stimulus,label,is_match,shouldpress,stimulus_2,label_2,is_match_2,shouldpress_2,p_trials.thisRepN,p_trials.thisTrialN,p_trials.thisN,p_trials.thisIndex,trials.thisRepN,trials.thisTrialN,trials.thisN,trials.thisIndex,p_trials_2.thisRepN,p_trials_2.thisTrialN,p_trials_2.thisN,p_trials_2.thisIndex,trials_2.thisRepN,trials_2.thisTrialN,trials_2.thisN,trials_2.thisIndex,thisRow.t,notes,Intruduction.started,text_3.started,key_resp_2.started,Intruduction.stopped,key_resp_2.keys,key_resp_2.rt,key_resp_2.duration,self_other_instructions.started,text_4.started,key_resp_3.started,self_other_instructions.stopped,key_resp_3.keys,key_resp_3.rt,key_resp_3.duration,self_other_info.started,square_image.started,triangle_image.started,self_label.started,other_label.started,key_resp_4.started,text_5.started,self_other_info.stopped,key_resp_4.keys,key_resp_4.rt,key_resp_4.duration,self_other_starting_2.started,text_6.started,key_resp_5.started,self_other_starting_2.stopped,key_resp_5.keys,key_resp_5.rt,key_resp_5.duration,practice1.started,p_fication.started,p_fication.stopped,p_fixation_3.started,p_text.started,key_resp_p.started,p_image.started,p_fixation_3.stopped,p_text.stopped,p_image.stopped,key_resp_p.stopped,practice1.stopped,key_resp_p.keys,p_feedback.started,text_15.started,text_15.stopped,p_feedback.stopped,key_resp_p.rt,key_resp_p.duration,start2.started,start_2.started,key_resp_11.started,start2.stopped,key_resp_11.keys,key_resp_11.rt,key_resp_11.duration,trial.started,fixation.started,fixation_3.started,text.started,key_resp.started,image.started,fixation.stopped,fixation_3.stopped,text.stopped,image.stopped,trial.stopped,key_resp.keys,key_resp.rt,key_resp.duration,feedback.started,text_2.started,text_2.stopped,feedback.stopped,key_resp.stopped,break_3.started,text_13.started,text_14.started,key_resp_10.started,text_13.stopped,break_3.stopped,key_resp_10.keys,key_resp_10.rt,key_resp_10.duration,self_other_instructions_2.started,text_10.started,key_resp_7.started,self_other_instructions_2.stopped,key_resp_7.keys,key_resp_7.rt,key_resp_7.duration,self_other_intro_2.started,circle_image.started,diamond_image.started,Disgusting_self_lable.started,Desirable_self_lable.started,key_resp_8.started,text_11.started,self_other_intro_2.stopped,key_resp_8.keys,key_resp_8.rt,key_resp_8.duration,self_other_starting_3.started,text_12.started,key_resp_9.started,self_other_starting_3.stopped,key_resp_9.keys,key_resp_9.rt,key_resp_9.duration,practice2.started,p_fixation_2.started,p_fixation_2.stopped,p_fixation_4.started,p_text_8.started,key_resp_6_p.started,p_image_2.started,p_fixation_4.stopped,p_text_8.stopped,p_image_2.stopped,key_resp_6_p.stopped,practice2.stopped,key_resp_6_p.keys,feedback_2_p.started,text_16.started,feedback_2_p.stopped,key_resp_6_p.rt,key_resp_6_p.duration,text_16.stopped,trial_2.started,fixation_2.started,fixation_4.started,text_8.started,key_resp_6.started,image_2.started,fixation_2.stopped,fixation_4.stopped,text_8.stopped,image_2.stopped,trial_2.stopped,key_resp_6.keys,key_resp_6.rt,key_resp_6.duration,feedback_2.started,text_9.started,text_9.stopped,feedback_2.stopped,key_resp_6.stopped,Thank_you.started,text_7.started,text_7.stopped,Thank_you.stopped,participant,session,date,expName,psychopyVersion,frameRate,expStart,
,,,,,,,,,,,,,,,,,,,,,,,,,,0.002641199971549213,0.006351600051857531,0.006351600051857531,6.352561100036837,space,6.339911099988967,None,,,,,,,,,,,,,,,,,,,,,,,,,,,,,,,,,,,,,,,,,,,,,,,,,,,,,,,,,,,,,,,,,,,,,,,,,,,,,,,,,,,,,,,,,,,,,,,,,,,,,,,,,,,,,,,,,,,,,,,,,,,,,,,,,,,,,,,,,,,,,,,,,,,A_10,001,2024-11-29_12h03.17.919,untitled,2024.1.5,None,2024-11-29 12h03.33.311131 +0530,
,,,,,,,,,,,,,,,,,,,,,,,,,,,,,,,,,6.352585399989039,6.366749300039373,6.366749300039373,38.951137500000186,space,32.58224070002325,None,,,,,,,,,,,,,,,,,,,,,,,,,,,,,,,,,,,,,,,,,,,,,,,,,,,,,,,,,,,,,,,,,,,,,,,,,,,,,,,,,,,,,,,,,,,,,,,,,,,,,,,,,,,,,,,,,,,,,,,,,,,,,,,,,,,,,,,,,,,,A_10,001,2024-11-29_12h03.17.919,untitled,2024.1.5,None,2024-11-29 12h03.33.311131 +0530,
,,,,,,,,,,,,,,,,,,,,,,,,,,,,,,,,,,,,,,,,38.951163699966855,38.98492760001682,38.98492760001682,38.98492760001682,38.98492760001682,38.98492760001682,38.98492760001682,117.64060000004247,space,78.64526909997221,None,,,,,,,,,,,,,,,,,,,,,,,,,,,,,,,,,,,,,,,,,,,,,,,,,,,,,,,,,,,,,,,,,,,,,,,,,,,,,,,,,,,,,,,,,,,,,,,,,,,,,,,,,,,,,,,,,,,,,,,,,,,,,,,,,A_10,001,2024-11-29_12h03.17.919,untitled,2024.1.5,None,2024-11-29 12h03.33.311131 +0530,
,,,,,,,,,,,,,,,,,,,,,,,,,,,,,,,,,,,,,,,,,,,,,,,,,,,117.64063080004416,117.65661379997618,117.65661379997618,130.08057510002982,space,12.416140799992718,None,,,,,,,,,,,,,,,,,,,,,,,,,,,,,,,,,,,,,,,,,,,,,,,,,,,,,,,,,,,,,,,,,,,,,,,,,,,,,,,,,,,,,,,,,,,,,,,,,,,,,,,,,,,,,,,,,,,,,,,,,,A_10,001,2024-11-29_12h03.17.919,untitled,2024.1.5,None,2024-11-29 12h03.33.311131 +0530,
triangle.png,you,1,M,,,,,0,0,0,1,,,,,,,,,,,,,130.0968036999693,,,,,,,,,,,,,,,,,,,,,,,,,,,,,,,,,,130.08692210004665,130.0968036999693,130.5962681999663,130.5962681999663,130.5962681999663,130.5962681999663,130.5962681999663,130.8963191000512,130.8963191000512,130.8963191000512,131.69646580005065,131.6802409000229,None,131.68045390001498,131.69646580005065,132.6971213000361,132.6809483000543,,,,,,,,,,,,,,,,,,,,,,,,,,,,,,,,,,,,,,,,,,,,,,,,,,,,,,,,,,,,,,,,,,,,,,,,,,,,,,,,,,,,,,,,,,,,,,,,,,,,,,,,,A_10,001,2024-11-29_12h03.17.919,untitled,2024.1.5,None,2024-11-29 12h03.33.311131 +0530,
square.png,stranger,1,M,,,,,0,1,1,0,,,,,,,,,,,,,132.6971213000361,,,,,,,,,,,,,,,,,,,,,,,,,,,,,,,,,,132.68119729997125,132.6971213000361,133.1973308000015,133.1808665000135,133.1808665000135,133.1808665000135,133.1808665000135,133.48073379998095,133.48073379998095,133.48073379998095,134.28150190005545,134.26517699996475,None,134.26530980004463,134.28150190005545,135.2819279000396,135.26570099999662,,,,,,,,,,,,,,,,,,,,,,,,,,,,,,,,,,,,,,,,,,,,,,,,,,,,,,,,,,,,,,,,,,,,,,,,,,,,,,,,,,,,,,,,,,,,,,,,,,,,,,,,,A_10,001,2024-11-29_12h03.17.919,untitled,2024.1.5,None,2024-11-29 12h03.33.311131 +0530,
triangle.png,stranger,0,Z,,,,,0,2,2,3,,,,,,,,,,,,,135.2819279000396,,,,,,,,,,,,,,,,,,,,,,,,,,,,,,,,,,135.26593300001696,135.2819279000396,135.78207830002066,135.78207830002066,135.78207830002066,135.78207830002066,135.78207830002066,136.08227280003484,136.08227280003484,136.08227280003484,136.88256639998872,136.86645760003012,None,136.86658839997835,136.88256639998872,137.8832570000086,137.8670469999779,,,,,,,,,,,,,,,,,,,,,,,,,,,,,,,,,,,,,,,,,,,,,,,,,,,,,,,,,,,,,,,,,,,,,,,,,,,,,,,,,,,,,,,,,,,,,,,,,,,,,,,,,A_10,001,2024-11-29_12h03.17.919,untitled,2024.1.5,None,2024-11-29 12h03.33.311131 +0530,
square.png,you,0,Z,,,,,0,3,3,2,,,,,,,,,,,,,137.8832570000086,,,,,,,,,,,,,,,,,,,,,,,,,,,,,,,,,,137.8673214999726,137.8832570000086,138.38338859996293,138.38338859996293,138.38338859996293,138.38338859996293,138.38338859996293,138.6835772000486,138.6835772000486,138.6835772000486,139.48408409999683,139.46762230002787,None,139.46775529999286,139.48408409999683,140.4845687999623,140.4682249999605,,,,,,,,,,,,,,,,,,,,,,,,,,,,,,,,,,,,,,,,,,,,,,,,,,,,,,,,,,,,,,,,,,,,,,,,,,,,,,,,,,,,,,,,,,,,,,,,,,,,,,,,,A_10,001,2024-11-29_12h03.17.919,untitled,2024.1.5,None,2024-11-29 12h03.33.311131 +0530,
square.png,stranger,1,M,,,,,1,0,4,0,,,,,,,,,,,,,140.4845687999623,,,,,,,,,,,,,,,,,,,,,,,,,,,,,,,,,,140.4684615000151,140.4845687999623,140.98510010004975,140.98510010004975,140.98510010004975,140.98510010004975,140.98510010004975,141.28483270003926,141.28483270003926,141.28483270003926,142.08513350004796,142.06900969997514,None,142.0691437999485,142.08513350004796,143.08593239996117,143.06974579999223,,,,,,,,,,,,,,,,,,,,,,,,,,,,,,,,,,,,,,,,,,,,,,,,,,,,,,,,,,,,,,,,,,,,,,,,,,,,,,,,,,,,,,,,,,,,,,,,,,,,,,,,,A_10,001,2024-11-29_12h03.17.919,untitled,2024.1.5,None,2024-11-29 12h03.33.311131 +0530,
triangle.png,you,1,M,,,,,1,1,5,1,,,,,,,,,,,,,143.08593239996117,,,,,,,,,,,,,,,,,,,,,,,,,,,,,,,,,,143.06997790001333,143.08593239996117,143.5860714999726,143.5860714999726,143.5860714999726,143.5860714999726,143.5860714999726,143.8863567999797,143.8863567999797,143.8863567999797,144.68648559995927,144.6703435999807,None,144.6704775999533,144.68648559995927,145.68719640001655,145.67085110000335,,,,,,,,,,,,,,,,,,,,,,,,,,,,,,,,,,,,,,,,,,,,,,,,,,,,,,,,,,,,,,,,,,,,,,,,,,,,,,,,,,,,,,,,,,,,,,,,,,,,,,,,,A_10,001,2024-11-29_12h03.17.919,untitled,2024.1.5,None,2024-11-29 12h03.33.311131 +0530,
square.png,you,0,Z,,,,,1,2,6,2,,,,,,,,,,,,,145.68719640001655,,,,,,,,,,,,,,,,,,,,,,,,,,,,,,,,,,145.6710882000625,145.68719640001655,146.1875665000407,146.1875665000407,146.1875665000407,146.1875665000407,146.1875665000407,146.4876923999982,146.4876923999982,146.4876923999982,,146.7717563000042,z,146.77209179999772,146.78773149999324,147.78813040000387,147.77202669996768,0.5703182999277487,None,,,,,,,,,,,,,,,,,,,,,,,,,,,,,,,,,,,,,,,,,,,,,,,,,,,,,,,,,,,,,,,,,,,,,,,,,,,,,,,,,,,,,,,,,,,,,,,,,,,,,,,A_10,001,2024-11-29_12h03.17.919,untitled,2024.1.5,None,2024-11-29 12h03.33.311131 +0530,
triangle.png,stranger,0,Z,,,,,1,3,7,3,,,,,,,,,,,,,147.78813040000387,,,,,,,,,,,,,,,,,,,,,,,,,,,,,,,,,,147.772265000036,147.78813040000387,148.28869219997432,148.27192880003713,148.27192880003713,148.27192880003713,148.27192880003713,148.5720513999695,148.5720513999695,148.5720513999695,,148.83947180001996,m,148.83972799999174,148.85544319998007,149.8560191000579,149.83966820000205,0.553998599993065,None,,,,,,,,,,,,,,,,,,,,,,,,,,,,,,,,,,,,,,,,,,,,,,,,,,,,,,,,,,,,,,,,,,,,,,,,,,,,,,,,,,,,,,,,,,,,,,,,,,,,,,,A_10,001,2024-11-29_12h03.17.919,untitled,2024.1.5,None,2024-11-29 12h03.33.311131 +0530,
triangle.png,you,1,M,,,,,2,0,8,1,,,,,,,,,,,,,149.8560191000579,,,,,,,,,,,,,,,,,,,,,,,,,,,,,,,,,,149.83990440005437,149.8560191000579,150.35641999996733,150.33980459999293,150.33980459999293,150.33980459999293,150.33980459999293,150.63983160001226,150.63983160001226,150.63983160001226,,150.92388230003417,z,150.9241359999869,150.93973600002937,151.94051330001093,151.92412950005382,0.581963500007987,None,,,,,,,,,,,,,,,,,,,,,,,,,,,,,,,,,,,,,,,,,,,,,,,,,,,,,,,,,,,,,,,,,,,,,,,,,,,,,,,,,,,,,,,,,,,,,,,,,,,,,,,A_10,001,2024-11-29_12h03.17.919,untitled,2024.1.5,None,2024-11-29 12h03.33.311131 +0530,
square.png,you,0,Z,,,,,2,1,9,2,,,,,,,,,,,,,151.94051330001093,,,,,,,,,,,,,,,,,,,,,,,,,,,,,,,,,,151.9243601000635,151.94051330001093,152.44065540004522,152.42430149996653,152.42430149996653,152.42430149996653,152.42430149996653,152.7239791000029,152.7239791000029,152.7239791000029,,153.4583746000426,z,153.45862920000218,153.47447759995703,,154.4587933999719,1.0185505000408739,None,,,,,,,,,,,,,,,,,,,,,,,,,,,,,,,,,,,,,,,,,,,,,,,,,,,,,,,,,,,,,,,,,,,,,,,,,,,,,,,,,,,,,,,,,,,,,,,,,,,,,,,A_10,001,2024-11-29_12h03.17.919,untitled,2024.1.5,None,2024-11-29 12h03.33.311131 +0530,
triangle.png,stranger,0,Z,,,,,2,2,10,3,,,,,,,,,,,,,154.47490060003474,,,,,,,,,,,,,,,,,,,,,,,,,,,,,,,,,,154.45903719996568,154.47490060003474,154.9755024999613,154.9587486999808,154.9587486999808,154.9587486999808,154.9587486999808,155.2587199000409,155.2587199000409,155.2587199000409,,155.92638349998742,z,155.92663720005658,155.94237529998645,156.9430638999911,156.92679940001108,0.9662656000582501,None,,,,,,,,,,,,,,,,,,,,,,,,,,,,,,,,,,,,,,,,,,,,,,,,,,,,,,,,,,,,,,,,,,,,,,,,,,,,,,,,,,,,,,,,,,,,,,,,,,,,,,,A_10,001,2024-11-29_12h03.17.919,untitled,2024.1.5,None,2024-11-29 12h03.33.311131 +0530,
square.png,stranger,1,M,,,,,2,3,11,0,,,,,,,,,,,,,156.9430638999911,,,,,,,,,,,,,,,,,,,,,,,,,,,,,,,,,,156.92702820000704,156.9430638999911,157.44350779999513,157.42690479999874,157.42690479999874,157.42690479999874,157.42690479999874,157.7266043999698,157.7266043999698,157.7266043999698,158.52729240001645,158.51093760004733,None,158.51107000000775,158.52729240001645,159.5276383999735,159.511209600023,,,,,,,,,,,,,,,,,,,,,,,,,,,,,,,,,,,,,,,,,,,,,,,,,,,,,,,,,,,,,,,,,,,,,,,,,,,,,,,,,,,,,,,,,,,,,,,,,,,,,,,,,A_10,001,2024-11-29_12h03.17.919,untitled,2024.1.5,None,2024-11-29 12h03.33.311131 +0530,
square.png,you,0,Z,,,,,3,0,12,2,,,,,,,,,,,,,159.5276383999735,,,,,,,,,,,,,,,,,,,,,,,,,,,,,,,,,,159.5114470999688,159.5276383999735,160.0279818000272,160.0279818000272,160.0279818000272,160.0279818000272,160.0279818000272,160.32815830002073,160.32815830002073,160.32815830002073,,160.94588580005802,z,160.94615820003673,160.96160469995812,161.96227320004255,161.9458622999955,0.9139474000548944,None,,,,,,,,,,,,,,,,,,,,,,,,,,,,,,,,,,,,,,,,,,,,,,,,,,,,,,,,,,,,,,,,,,,,,,,,,,,,,,,,,,,,,,,,,,,,,,,,,,,,,,,A_10,001,2024-11-29_12h03.17.919,untitled,2024.1.5,None,2024-11-29 12h03.33.311131 +0530,
triangle.png,you,1,M,,,,,3,1,13,1,,,,,,,,,,,,,161.96227320004255,,,,,,,,,,,,,,,,,,,,,,,,,,,,,,,,,,161.94609450001735,161.96227320004255,162.46252050006296,162.44595419999678,162.44595419999678,162.44595419999678,162.44595419999678,162.74596840003505,162.74596840003505,162.74596840003505,,163.4304646999808,m,163.43071530002635,163.4464817000553,164.44677389995195,164.4305967000546,0.9761403000447899,None,,,,,,,,,,,,,,,,,,,,,,,,,,,,,,,,,,,,,,,,,,,,,,,,,,,,,,,,,,,,,,,,,,,,,,,,,,,,,,,,,,,,,,,,,,,,,,,,,,,,,,,A_10,001,2024-11-29_12h03.17.919,untitled,2024.1.5,None,2024-11-29 12h03.33.311131 +0530,
triangle.png,stranger,0,Z,,,,,3,2,14,3,,,,,,,,,,,,,164.44677389995195,,,,,,,,,,,,,,,,,,,,,,,,,,,,,,,,,,164.43083229998592,164.44677389995195,164.94710750004742,164.9307954000542,164.9307954000542,164.9307954000542,164.9307954000542,165.2305588000454,165.2305588000454,165.2305588000454,,165.71495920000598,z,165.71521120006219,165.73066839994863,166.7313597999746,166.71515920001548,0.7708139999303967,None,,,,,,,,,,,,,,,,,,,,,,,,,,,,,,,,,,,,,,,,,,,,,,,,,,,,,,,,,,,,,,,,,,,,,,,,,,,,,,,,,,,,,,,,,,,,,,,,,,,,,,,A_10,001,2024-11-29_12h03.17.919,untitled,2024.1.5,None,2024-11-29 12h03.33.311131 +0530,
square.png,stranger,1,M,,,,,3,3,15,0,,,,,,,,,,,,,166.7313597999746,,,,,,,,,,,,,,,,,,,,,,,,,,,,,,,,,,166.71539729996584,166.7313597999746,167.231648499961,167.21527729998343,167.21527729998343,167.21527729998343,167.21527729998343,167.5152281000046,167.5152281000046,167.5152281000046,,168.1993912999751,m,168.1996388999978,168.21539579995442,169.21578610001598,169.19964740006253,0.9826911999844015,None,,,,,,,,,,,,,,,,,,,,,,,,,,,,,,,,,,,,,,,,,,,,,,,,,,,,,,,,,,,,,,,,,,,,,,,,,,,,,,,,,,,,,,,,,,,,,,,,,,,,,,,A_10,001,2024-11-29_12h03.17.919,untitled,2024.1.5,None,2024-11-29 12h03.33.311131 +0530,
square.png,stranger,1,M,,,,,4,0,16,0,,,,,,,,,,,,,169.21578610001598,,,,,,,,,,,,,,,,,,,,,,,,,,,,,,,,,,169.1998828999931,169.21578610001598,169.71652769995853,169.69973280001432,169.69973280001432,169.69973280001432,169.69973280001432,169.9995507999556,169.9995507999556,169.9995507999556,,170.43382060003933,m,170.43406909995247,170.45013110002037,171.45067579997703,171.4341191999847,0.7186801000498235,None,,,,,,,,,,,,,,,,,,,,,,,,,,,,,,,,,,,,,,,,,,,,,,,,,,,,,,,,,,,,,,,,,,,,,,,,,,,,,,,,,,,,,,,,,,,,,,,,,,,,,,,A_10,001,2024-11-29_12h03.17.919,untitled,2024.1.5,None,2024-11-29 12h03.33.311131 +0530,
triangle.png,stranger,0,Z,,,,,4,1,17,3,,,,,,,,,,,,,171.45067579997703,,,,,,,,,,,,,,,,,,,,,,,,,,,,,,,,,,171.4343502999982,171.45067579997703,171.9507147000404,171.93435870006215,171.93435870006215,171.93435870006215,171.93435870006215,172.23421709996182,172.23421709996182,172.23421709996182,,172.5851285000099,z,172.58538319997024,172.6012130000163,173.60146260005422,173.58535790001042,0.6470858999527991,None,,,,,,,,,,,,,,,,,,,,,,,,,,,,,,,,,,,,,,,,,,,,,,,,,,,,,,,,,,,,,,,,,,,,,,,,,,,,,,,,,,,,,,,,,,,,,,,,,,,,,,,A_10,001,2024-11-29_12h03.17.919,untitled,2024.1.5,None,2024-11-29 12h03.33.311131 +0530,
square.png,you,0,Z,,,,,4,2,18,2,,,,,,,,,,,,,173.60146260005422,,,,,,,,,,,,,,,,,,,,,,,,,,,,,,,,,,173.58559270005208,173.60146260005422,174.10177379997913,174.08518140006345,174.08518140006345,174.08518140006345,174.08518140006345,174.38539609999862,174.38539609999862,174.38539609999862,,175.10325699998066,z,175.1035053000087,175.11893710005097,176.11944469995797,176.10335400002077,1.0128146999049932,None,,,,,,,,,,,,,,,,,,,,,,,,,,,,,,,,,,,,,,,,,,,,,,,,,,,,,,,,,,,,,,,,,,,,,,,,,,,,,,,,,,,,,,,,,,,,,,,,,,,,,,,A_10,001,2024-11-29_12h03.17.919,untitled,2024.1.5,None,2024-11-29 12h03.33.311131 +0530,
triangle.png,you,1,M,,,,,4,3,19,1,,,,,,,,,,,,,176.11944469995797,,,,,,,,,,,,,,,,,,,,,,,,,,,,,,,,,,176.10358490003273,176.11944469995797,176.62005070003215,176.6033687000163,176.6033687000163,176.6033687000163,176.6033687000163,176.90326499997173,176.90326499997173,176.90326499997173,,177.5210391000146,m,177.52132329996675,177.53678109997418,178.53762379998807,178.52111219998915,0.906062199966982,None,,,,,,,,,,,,,,,,,,,,,,,,,,,,,,,,,,,,,,,,,,,,,,,,,,,,,,,,,,,,,,,,,,,,,,,,,,,,,,,,,,,,,,,,,,,,,,,,,,,,,,,A_10,001,2024-11-29_12h03.17.919,untitled,2024.1.5,None,2024-11-29 12h03.33.311131 +0530,
,,,,,,,,,,,,,,,,,,,,,,,,,,,,,,,,,,,,,,,,,,,,,,,,,,,,,,,,,,,,,,,,,,,,,,,,,,,,,178.52116050000768,178.53762379998807,178.53762379998807,181.87343589996453,space,3.3311414000345394,None,,,,,,,,,,,,,,,,,,,,,,,,,,,,,,,,,,,,,,,,,,,,,,,,,,,,,,,,,,,,,,,,,,,,,,,,,,,,,,,,,,,,,,,,,,,,,,,,A_10,001,2024-11-29_12h03.17.919,untitled,2024.1.5,None,2024-11-29 12h03.33.311131 +0530,
square.png,stranger,1,M,,,,,,,,,0,0,0,0,,,,,,,,,181.88908069999889,,,,,,,,,,,,,,,,,,,,,,,,,,,,,,,,,,,,,,,,,,,,,,,,,,,,,,,,,,,,181.87847180000972,181.88908069999889,182.3729222000111,182.3729222000111,182.3729222000111,182.3729222000111,182.38955219998024,182.6728393000085,182.6728393000085,182.6728393000085,183.35708740004338,z,0.9731549000134692,None,183.35777490003966,183.37325429997873,184.3736951999599,184.3574819000205,,,,,,,,,,,,,,,,,,,,,,,,,,,,,,,,,,,,,,,,,,,,,,,,,,,,,,,,,,,,,,,,,,,,,,,,,,,,,,A_10,001,2024-11-29_12h03.17.919,untitled,2024.1.5,None,2024-11-29 12h03.33.311131 +0530,
triangle.png,you,1,M,,,,,,,,,0,1,1,1,,,,,,,,,184.3736951999599,,,,,,,,,,,,,,,,,,,,,,,,,,,,,,,,,,,,,,,,,,,,,,,,,,,,,,,,,,,,184.3578519000439,184.3736951999599,184.85729099996388,184.85729099996388,184.85729099996388,184.85729099996388,184.87398290005513,185.15727029996924,185.15727029996924,185.15727029996924,185.69188940001186,m,0.8329084999859333,None,185.69234419998247,185.70781509997323,186.70804419997148,186.69190279999748,,,,,,,,,,,,,,,,,,,,,,,,,,,,,,,,,,,,,,,,,,,,,,,,,,,,,,,,,,,,,,,,,,,,,,,,,,,,,,A_10,001,2024-11-29_12h03.17.919,untitled,2024.1.5,None,2024-11-29 12h03.33.311131 +0530,
square.png,you,0,Z,,,,,,,,,0,2,2,2,,,,,,,,,186.70804419997148,,,,,,,,,,,,,,,,,,,,,,,,,,,,,,,,,,,,,,,,,,,,,,,,,,,,,,,,,,,,186.69226200005505,186.70804419997148,187.1924872000236,187.1924872000236,187.1924872000236,187.1924872000236,187.20864349999465,187.4919332000427,187.4919332000427,187.4919332000427,188.2759800000349,None,,,188.27617620001547,188.2924227999756,189.2929249999579,189.27668160002213,188.2924227999756,,,,,,,,,,,,,,,,,,,,,,,,,,,,,,,,,,,,,,,,,,,,,,,,,,,,,,,,,,,,,,,,,,,,,,,,,,,,,A_10,001,2024-11-29_12h03.17.919,untitled,2024.1.5,None,2024-11-29 12h03.33.311131 +0530,
triangle.png,stranger,0,Z,,,,,,,,,0,3,3,3,,,,,,,,,189.2929249999579,,,,,,,,,,,,,,,,,,,,,,,,,,,,,,,,,,,,,,,,,,,,,,,,,,,,,,,,,,,,189.27703840006143,189.2929249999579,189.79315280006267,189.79315280006267,189.79315280006267,189.79315280006267,189.79315280006267,190.09332860005088,190.09332860005088,190.09332860005088,190.87749640003312,None,,,190.8776970000472,190.89382240001578,191.89429029996973,191.87795969995204,190.89382240001578,,,,,,,,,,,,,,,,,,,,,,,,,,,,,,,,,,,,,,,,,,,,,,,,,,,,,,,,,,,,,,,,,,,,,,,,,,,,,A_10,001,2024-11-29_12h03.17.919,untitled,2024.1.5,None,2024-11-29 12h03.33.311131 +0530,
triangle.png,stranger,0,Z,,,,,,,,,1,0,4,3,,,,,,,,,191.89429029996973,,,,,,,,,,,,,,,,,,,,,,,,,,,,,,,,,,,,,,,,,,,,,,,,,,,,,,,,,,,,191.87831509998068,191.89429029996973,192.3949126000516,192.3949126000516,192.3949126000516,192.3949126000516,192.3949126000516,192.69479059998412,192.69479059998412,192.69479059998412,192.99584210000467,z,0.5989046000177041,None,192.99627450003754,193.01161269994918,194.01193439995404,193.99600619997364,,,,,,,,,,,,,,,,,,,,,,,,,,,,,,,,,,,,,,,,,,,,,,,,,,,,,,,,,,,,,,,,,,,,,,,,,,,,,,A_10,001,2024-11-29_12h03.17.919,untitled,2024.1.5,None,2024-11-29 12h03.33.311131 +0530,
triangle.png,you,1,M,,,,,,,,,1,1,5,1,,,,,,,,,194.01193439995404,,,,,,,,,,,,,,,,,,,,,,,,,,,,,,,,,,,,,,,,,,,,,,,,,,,,,,,,,,,,193.99636480002664,194.01193439995404,194.49576119997073,194.49576119997073,194.49576119997073,194.49576119997073,194.51235930004623,194.79576670005918,194.79576670005918,194.79576670005918,195.58006980002392,None,,,195.58026850002352,195.59606699994765,196.59680429997388,196.58041589998174,195.59606699994765,,,,,,,,,,,,,,,,,,,,,,,,,,,,,,,,,,,,,,,,,,,,,,,,,,,,,,,,,,,,,,,,,,,,,,,,,,,,,A_10,001,2024-11-29_12h03.17.919,untitled,2024.1.5,None,2024-11-29 12h03.33.311131 +0530,
square.png,you,0,Z,,,,,,,,,1,2,6,2,,,,,,,,,196.59680429997388,,,,,,,,,,,,,,,,,,,,,,,,,,,,,,,,,,,,,,,,,,,,,,,,,,,,,,,,,,,,196.58080190001056,196.59680429997388,197.0972316999687,197.0972316999687,197.0972316999687,197.0972316999687,197.0972316999687,197.39712770003825,197.39712770003825,197.39712770003825,197.98126729996875,m,0.8730774000287056,None,197.98174029996153,197.9971789000556,198.99793990002945,198.98146829998586,,,,,,,,,,,,,,,,,,,,,,,,,,,,,,,,,,,,,,,,,,,,,,,,,,,,,,,,,,,,,,,,,,,,,,,,,,,,,,A_10,001,2024-11-29_12h03.17.919,untitled,2024.1.5,None,2024-11-29 12h03.33.311131 +0530,
square.png,stranger,1,M,,,,,,,,,1,3,7,0,,,,,,,,,198.99793990002945,,,,,,,,,,,,,,,,,,,,,,,,,,,,,,,,,,,,,,,,,,,,,,,,,,,,,,,,,,,,198.98182790004648,198.99793990002945,199.4816002000589,199.4816002000589,199.4816002000589,199.4816002000589,199.49839029996656,199.7816699000541,199.7816699000541,199.7816699000541,200.36631339997984,m,0.8835206999210641,None,200.36679800006095,200.382137699984,201.38255059998482,201.36623240006156,,,,,,,,,,,,,,,,,,,,,,,,,,,,,,,,,,,,,,,,,,,,,,,,,,,,,,,,,,,,,,,,,,,,,,,,,,,,,,A_10,001,2024-11-29_12h03.17.919,untitled,2024.1.5,None,2024-11-29 12h03.33.311131 +0530,
square.png,stranger,1,M,,,,,,,,,2,0,8,0,,,,,,,,,201.38255059998482,,,,,,,,,,,,,,,,,,,,,,,,,,,,,,,,,,,,,,,,,,,,,,,,,,,,,,,,,,,,201.36659780004993,201.38255059998482,201.86614790000021,201.86614790000021,201.86614790000021,201.86614790000021,201.88276159996167,202.16612760000862,202.16612760000862,202.16612760000862,202.71708370000124,m,0.835135699948296,None,202.71752399997786,202.73313790000975,203.73357799998485,203.71747819997836,,,,,,,,,,,,,,,,,,,,,,,,,,,,,,,,,,,,,,,,,,,,,,,,,,,,,,,,,,,,,,,,,,,,,,,,,,,,,,A_10,001,2024-11-29_12h03.17.919,untitled,2024.1.5,None,2024-11-29 12h03.33.311131 +0530,
triangle.png,you,1,M,,,,,,,,,2,1,9,1,,,,,,,,,203.73357799998485,,,,,,,,,,,,,,,,,,,,,,,,,,,,,,,,,,,,,,,,,,,,,,,,,,,,,,,,,,,,203.71784399996977,203.73357799998485,204.21757950005122,204.21757950005122,204.21757950005122,204.21757950005122,204.23389679996762,204.51744189998135,204.51744189998135,204.51744189998135,204.83506840001792,z,0.6119773000245914,None,204.83550809998997,204.85097360005602,205.85160199995153,205.8350666000042,,,,,,,,,,,,,,,,,,,,,,,,,,,,,,,,,,,,,,,,,,,,,,,,,,,,,,,,,,,,,,,,,,,,,,,,,,,,,,A_10,001,2024-11-29_12h03.17.919,untitled,2024.1.5,None,2024-11-29 12h03.33.311131 +0530,
square.png,you,0,Z,,,,,,,,,2,2,10,2,,,,,,,,,205.85160199995153,,,,,,,,,,,,,,,,,,,,,,,,,,,,,,,,,,,,,,,,,,,,,,,,,,,,,,,,,,,,205.83542560006026,205.85160199995153,206.33525490004104,206.33525490004104,206.33525490004104,206.33525490004104,206.35191950004082,206.63517530006357,206.63517530006357,206.63517530006357,207.10293309995905,z,0.7536017999518663,None,207.10336489998735,207.11878749995958,208.11937359999865,208.10313639999367,,,,,,,,,,,,,,,,,,,,,,,,,,,,,,,,,,,,,,,,,,,,,,,,,,,,,,,,,,,,,,,,,,,,,,,,,,,,,,A_10,001,2024-11-29_12h03.17.919,untitled,2024.1.5,None,2024-11-29 12h03.33.311131 +0530,
triangle.png,stranger,0,Z,,,,,,,,,2,3,11,3,,,,,,,,,208.11937359999865,,,,,,,,,,,,,,,,,,,,,,,,,,,,,,,,,,,,,,,,,,,,,,,,,,,,,,,,,,,,208.10350329999346,208.11937359999865,208.6028868999565,208.6028868999565,208.6028868999565,208.6028868999565,208.6195295000216,208.9030162000563,208.9030162000563,208.9030162000563,209.68715000001248,None,,,209.6873476000037,209.70341730001383,210.70376850001048,210.68769209994934,209.70341730001383,,,,,,,,,,,,,,,,,,,,,,,,,,,,,,,,,,,,,,,,,,,,,,,,,,,,,,,,,,,,,,,,,,,,,,,,,,,,,A_10,001,2024-11-29_12h03.17.919,untitled,2024.1.5,None,2024-11-29 12h03.33.311131 +0530,
triangle.png,you,1,M,,,,,,,,,3,0,12,1,,,,,,,,,210.70376850001048,,,,,,,,,,,,,,,,,,,,,,,,,,,,,,,,,,,,,,,,,,,,,,,,,,,,,,,,,,,,210.68805050000083,210.70376850001048,211.20428649999667,211.20428649999667,211.20428649999667,211.20428649999667,211.20428649999667,211.50424339994788,211.50424339994788,211.50424339994788,212.05554400000256,m,0.8365914999740198,None,212.0559757000301,212.07132430002093,213.07180579996202,213.05554289999418,,,,,,,,,,,,,,,,,,,,,,,,,,,,,,,,,,,,,,,,,,,,,,,,,,,,,,,,,,,,,,,,,,,,,,,,,,,,,,A_10,001,2024-11-29_12h03.17.919,untitled,2024.1.5,None,2024-11-29 12h03.33.311131 +0530,
triangle.png,stranger,0,Z,,,,,,,,,3,1,13,3,,,,,,,,,213.07180579996202,,,,,,,,,,,,,,,,,,,,,,,,,,,,,,,,,,,,,,,,,,,,,,,,,,,,,,,,,,,,213.05589590000454,213.07180579996202,213.55553500005044,213.55553500005044,213.55553500005044,213.55553500005044,213.57201770006213,213.8556059000548,213.8556059000548,213.8556059000548,214.57343880005646,z,1.0092541999183595,None,214.57387550000567,214.5893420999637,215.5897364000557,215.57346960005816,,,,,,,,,,,,,,,,,,,,,,,,,,,,,,,,,,,,,,,,,,,,,,,,,,,,,,,,,,,,,,,,,,,,,,,,,,,,,,A_10,001,2024-11-29_12h03.17.919,untitled,2024.1.5,None,2024-11-29 12h03.33.311131 +0530,
square.png,you,0,Z,,,,,,,,,3,2,14,2,,,,,,,,,215.5897364000557,,,,,,,,,,,,,,,,,,,,,,,,,,,,,,,,,,,,,,,,,,,,,,,,,,,,,,,,,,,,215.57382249995135,215.5897364000557,216.07343029999174,216.07343029999174,216.07343029999174,216.07343029999174,216.09003459999803,216.3736227999907,216.3736227999907,216.3736227999907,217.15786589996424,None,,,217.1580633999547,217.17389760003425,218.17456980003044,218.15836060000584,217.17389760003425,,,,,,,,,,,,,,,,,,,,,,,,,,,,,,,,,,,,,,,,,,,,,,,,,,,,,,,,,,,,,,,,,,,,,,,,,,,,,A_10,001,2024-11-29_12h03.17.919,untitled,2024.1.5,None,2024-11-29 12h03.33.311131 +0530,
square.png,stranger,1,M,,,,,,,,,3,3,15,0,,,,,,,,,218.17456980003044,,,,,,,,,,,,,,,,,,,,,,,,,,,,,,,,,,,,,,,,,,,,,,,,,,,,,,,,,,,,218.1587251999881,218.17456980003044,218.6749210000271,218.6749210000271,218.6749210000271,218.6749210000271,218.6749210000271,218.97467010002583,218.97467010002583,218.97467010002583,219.62645149999298,m,0.9507490999531001,None,219.62690410006326,219.64175830001477,220.6425075000152,220.6260387999937,,,,,,,,,,,,,,,,,,,,,,,,,,,,,,,,,,,,,,,,,,,,,,,,,,,,,,,,,,,,,,,,,,,,,,,,,,,,,,A_10,001,2024-11-29_12h03.17.919,untitled,2024.1.5,None,2024-11-29 12h03.33.311131 +0530,
triangle.png,you,1,M,,,,,,,,,4,0,16,1,,,,,,,,,220.6425075000152,,,,,,,,,,,,,,,,,,,,,,,,,,,,,,,,,,,,,,,,,,,,,,,,,,,,,,,,,,,,220.6263925000094,220.6425075000152,221.12633050000295,221.12633050000295,221.12633050000295,221.12633050000295,221.14265459997114,221.42589600000065,221.42589600000065,221.42589600000065,221.62678319995757,z,0.49573840002994984,None,221.6272270999616,221.64284079999197,222.64353740005754,222.6273191999644,,,,,,,,,,,,,,,,,,,,,,,,,,,,,,,,,,,,,,,,,,,,,,,,,,,,,,,,,,,,,,,,,,,,,,,,,,,,,,A_10,001,2024-11-29_12h03.17.919,untitled,2024.1.5,None,2024-11-29 12h03.33.311131 +0530,
square.png,you,0,Z,,,,,,,,,4,1,17,2,,,,,,,,,222.64353740005754,,,,,,,,,,,,,,,,,,,,,,,,,,,,,,,,,,,,,,,,,,,,,,,,,,,,,,,,,,,,222.6279283000622,222.64353740005754,223.12710689997766,223.12710689997766,223.12710689997766,223.12710689997766,223.14366679999512,223.42725359997712,223.42725359997712,223.42725359997712,223.92800489999354,z,0.7978030000813305,None,223.92843520001043,223.94420400005765,224.9445705000544,224.9284239000408,,,,,,,,,,,,,,,,,,,,,,,,,,,,,,,,,,,,,,,,,,,,,,,,,,,,,,,,,,,,,,,,,,,,,,,,,,,,,,A_10,001,2024-11-29_12h03.17.919,untitled,2024.1.5,None,2024-11-29 12h03.33.311131 +0530,
square.png,stranger,1,M,,,,,,,,,4,2,18,0,,,,,,,,,224.9445705000544,,,,,,,,,,,,,,,,,,,,,,,,,,,,,,,,,,,,,,,,,,,,,,,,,,,,,,,,,,,,224.9287763000466,224.9445705000544,225.42846379999537,225.42846379999537,225.42846379999537,225.42846379999537,225.4451208000537,225.72826250002254,225.72826250002254,225.72826250002254,226.5123457000591,None,,,226.51254270004574,226.52867250004783,227.52938790002372,227.51308129995596,226.52867250004783,,,,,,,,,,,,,,,,,,,,,,,,,,,,,,,,,,,,,,,,,,,,,,,,,,,,,,,,,,,,,,,,,,,,,,,,,,,,,A_10,001,2024-11-29_12h03.17.919,untitled,2024.1.5,None,2024-11-29 12h03.33.311131 +0530,
triangle.png,stranger,0,Z,,,,,,,,,4,3,19,3,,,,,,,,,227.52938790002372,,,,,,,,,,,,,,,,,,,,,,,,,,,,,,,,,,,,,,,,,,,,,,,,,,,,,,,,,,,,227.5134337999625,227.52938790002372,228.0295303000603,228.0295303000603,228.0295303000603,228.0295303000603,228.0295303000603,228.32947670004796,228.32947670004796,228.32947670004796,229.11380869999994,None,,,229.11400189995766,229.13027039996814,230.13075420004316,230.11449529998936,229.13027039996814,,,,,,,,,,,,,,,,,,,,,,,,,,,,,,,,,,,,,,,,,,,,,,,,,,,,,,,,,,,,,,,,,,,,,,,,,,,,,A_10,001,2024-11-29_12h03.17.919,untitled,2024.1.5,None,2024-11-29 12h03.33.311131 +0530,
square.png,you,0,Z,,,,,,,,,5,0,20,2,,,,,,,,,230.13075420004316,,,,,,,,,,,,,,,,,,,,,,,,,,,,,,,,,,,,,,,,,,,,,,,,,,,,,,,,,,,,230.11485080001876,230.13075420004316,230.63092929997947,230.63092929997947,230.63092929997947,230.63092929997947,230.63092929997947,230.9308575000614,230.9308575000614,230.9308575000614,231.13188360002823,m,0.486645600060001,None,231.13232109998353,231.14777529996354,232.14842189999763,232.13221049995627,,,,,,,,,,,,,,,,,,,,,,,,,,,,,,,,,,,,,,,,,,,,,,,,,,,,,,,,,,,,,,,,,,,,,,,,,,,,,,A_10,001,2024-11-29_12h03.17.919,untitled,2024.1.5,None,2024-11-29 12h03.33.311131 +0530,
triangle.png,you,1,M,,,,,,,,,5,1,21,1,,,,,,,,,232.14842189999763,,,,,,,,,,,,,,,,,,,,,,,,,,,,,,,,,,,,,,,,,,,,,,,,,,,,,,,,,,,,232.1325632999651,232.14842189999763,232.6319874000037,232.6319874000037,232.6319874000037,232.6319874000037,232.64890070003457,232.9322529999772,232.9322529999772,232.9322529999772,233.04936699999962,z,0.40229130000807345,None,233.04979970003478,233.06547719996888,234.0658060000278,234.0497350000078,,,,,,,,,,,,,,,,,,,,,,,,,,,,,,,,,,,,,,,,,,,,,,,,,,,,,,,,,,,,,,,,,,,,,,,,,,,,,,A_10,001,2024-11-29_12h03.17.919,untitled,2024.1.5,None,2024-11-29 12h03.33.311131 +0530,
triangle.png,stranger,0,Z,,,,,,,,,5,2,22,3,,,,,,,,,234.0658060000278,,,,,,,,,,,,,,,,,,,,,,,,,,,,,,,,,,,,,,,,,,,,,,,,,,,,,,,,,,,,234.05009000003338,234.0658060000278,234.54965739999898,234.54965739999898,234.54965739999898,234.54965739999898,234.56620120001025,234.8493694999488,234.8493694999488,234.8493694999488,235.51726450002752,m,0.9641551000531763,None,235.51770640001632,235.53334690001793,236.5339673999697,236.51764480001293,,,,,,,,,,,,,,,,,,,,,,,,,,,,,,,,,,,,,,,,,,,,,,,,,,,,,,,,,,,,,,,,,,,,,,,,,,,,,,A_10,001,2024-11-29_12h03.17.919,untitled,2024.1.5,None,2024-11-29 12h03.33.311131 +0530,
square.png,stranger,1,M,,,,,,,,,5,3,23,0,,,,,,,,,236.5339673999697,,,,,,,,,,,,,,,,,,,,,,,,,,,,,,,,,,,,,,,,,,,,,,,,,,,,,,,,,,,,236.51800020004157,236.5339673999697,237.0177838000236,237.0177838000236,237.0177838000236,237.0177838000236,237.0340765999863,237.31762009998783,237.31762009998783,237.31762009998783,237.45165349997114,z,0.42433780001010746,None,237.45211189996917,237.46775680000428,238.46815660002176,238.45219780004118,,,,,,,,,,,,,,,,,,,,,,,,,,,,,,,,,,,,,,,,,,,,,,,,,,,,,,,,,,,,,,,,,,,,,,,,,,,,,,A_10,001,2024-11-29_12h03.17.919,untitled,2024.1.5,None,2024-11-29 12h03.33.311131 +0530,
triangle.png,you,1,M,,,,,,,,,6,0,24,1,,,,,,,,,238.46815660002176,,,,,,,,,,,,,,,,,,,,,,,,,,,,,,,,,,,,,,,,,,,,,,,,,,,,,,,,,,,,238.45256080001127,238.46815660002176,238.95187610003632,238.95187610003632,238.95187610003632,238.95187610003632,238.96849110000767,239.25198050006293,239.25198050006293,239.25198050006293,240.0360890000593,None,,,240.03628490003757,240.0522154000355,241.05294269998558,241.03651760006323,240.0522154000355,,,,,,,,,,,,,,,,,,,,,,,,,,,,,,,,,,,,,,,,,,,,,,,,,,,,,,,,,,,,,,,,,,,,,,,,,,,,,A_10,001,2024-11-29_12h03.17.919,untitled,2024.1.5,None,2024-11-29 12h03.33.311131 +0530,
square.png,you,0,Z,,,,,,,,,6,1,25,2,,,,,,,,,241.05294269998558,,,,,,,,,,,,,,,,,,,,,,,,,,,,,,,,,,,,,,,,,,,,,,,,,,,,,,,,,,,,241.0368768000044,241.05294269998558,241.55304859997705,241.55304859997705,241.55304859997705,241.55304859997705,241.55304859997705,241.85305389994755,241.85305389994755,241.85305389994755,242.5876186999958,z,1.0208587000379339,None,242.5880558999488,242.60361999995075,243.60424759995658,243.5879028000636,,,,,,,,,,,,,,,,,,,,,,,,,,,,,,,,,,,,,,,,,,,,,,,,,,,,,,,,,,,,,,,,,,,,,,,,,,,,,,A_10,001,2024-11-29_12h03.17.919,untitled,2024.1.5,None,2024-11-29 12h03.33.311131 +0530,
square.png,stranger,1,M,,,,,,,,,6,2,26,0,,,,,,,,,243.60424759995658,,,,,,,,,,,,,,,,,,,,,,,,,,,,,,,,,,,,,,,,,,,,,,,,,,,,,,,,,,,,243.58826310001314,243.60424759995658,244.08785709994845,244.08785709994845,244.08785709994845,244.08785709994845,244.1046882000519,244.38789989997167,244.38789989997167,244.38789989997167,245.15568680001888,m,1.0543027999810874,None,245.15613560006022,245.17156930000056,246.17199860000983,246.1558341999771,,,,,,,,,,,,,,,,,,,,,,,,,,,,,,,,,,,,,,,,,,,,,,,,,,,,,,,,,,,,,,,,,,,,,,,,,,,,,,A_10,001,2024-11-29_12h03.17.919,untitled,2024.1.5,None,2024-11-29 12h03.33.311131 +0530,
triangle.png,stranger,0,Z,,,,,,,,,6,3,27,3,,,,,,,,,246.17199860000983,,,,,,,,,,,,,,,,,,,,,,,,,,,,,,,,,,,,,,,,,,,,,,,,,,,,,,,,,,,,246.15619450004306,246.17199860000983,246.65588710003067,246.65588710003067,246.65588710003067,246.65588710003067,246.67235200002324,246.9558525000466,246.9558525000466,246.9558525000466,247.50693699996918,z,0.8489131999667734,None,247.50736889999826,247.52276139997412,248.52342470001895,248.5071732000215,,,,,,,,,,,,,,,,,,,,,,,,,,,,,,,,,,,,,,,,,,,,,,,,,,,,,,,,,,,,,,,,,,,,,,,,,,,,,,A_10,001,2024-11-29_12h03.17.919,untitled,2024.1.5,None,2024-11-29 12h03.33.311131 +0530,
triangle.png,stranger,0,Z,,,,,,,,,7,0,28,3,,,,,,,,,248.52342470001895,,,,,,,,,,,,,,,,,,,,,,,,,,,,,,,,,,,,,,,,,,,,,,,,,,,,,,,,,,,,248.50752620003186,248.52342470001895,249.00701669999398,249.00701669999398,249.00701669999398,249.00701669999398,249.02372820000164,249.30706170003396,249.30706170003396,249.30706170003396,250.07497169997077,z,1.0659059999743477,None,250.0754107000539,250.0908378000604,251.0912458000239,251.07527699996717,,,,,,,,,,,,,,,,,,,,,,,,,,,,,,,,,,,,,,,,,,,,,,,,,,,,,,,,,,,,,,,,,,,,,,,,,,,,,,A_10,001,2024-11-29_12h03.17.919,untitled,2024.1.5,None,2024-11-29 12h03.33.311131 +0530,
square.png,stranger,1,M,,,,,,,,,7,1,29,0,,,,,,,,,251.0912458000239,,,,,,,,,,,,,,,,,,,,,,,,,,,,,,,,,,,,,,,,,,,,,,,,,,,,,,,,,,,,251.07563600002322,251.0912458000239,251.5751092999708,251.5751092999708,251.5751092999708,251.5751092999708,251.59150430001318,251.87503410002682,251.87503410002682,251.87503410002682,252.45939790003467,z,0.8828774000285193,None,252.45982960006222,252.4755605000537,253.47601730003953,253.45960990001913,,,,,,,,,,,,,,,,,,,,,,,,,,,,,,,,,,,,,,,,,,,,,,,,,,,,,,,,,,,,,,,,,,,,,,,,,,,,,,A_10,001,2024-11-29_12h03.17.919,untitled,2024.1.5,None,2024-11-29 12h03.33.311131 +0530,
square.png,you,0,Z,,,,,,,,,7,2,30,2,,,,,,,,,253.47601730003953,,,,,,,,,,,,,,,,,,,,,,,,,,,,,,,,,,,,,,,,,,,,,,,,,,,,,,,,,,,,253.45996590005234,253.47601730003953,253.959635599982,253.959635599982,253.959635599982,253.959635599982,253.97624520002864,254.25979779998306,254.25979779998306,254.25979779998306,254.87745280005038,m,0.9103563000680879,None,254.87788819998968,254.8935013000155,255.8939089999767,255.87778300000355,,,,,,,,,,,,,,,,,,,,,,,,,,,,,,,,,,,,,,,,,,,,,,,,,,,,,,,,,,,,,,,,,,,,,,,,,,,,,,A_10,001,2024-11-29_12h03.17.919,untitled,2024.1.5,None,2024-11-29 12h03.33.311131 +0530,
triangle.png,you,1,M,,,,,,,,,7,3,31,1,,,,,,,,,255.8939089999767,,,,,,,,,,,,,,,,,,,,,,,,,,,,,,,,,,,,,,,,,,,,,,,,,,,,,,,,,,,,255.8781478999881,255.8939089999767,256.3775193999754,256.3775193999754,256.3775193999754,256.3775193999754,256.3941023000516,256.6774609000422,256.6774609000422,256.6774609000422,257.21207320003305,m,0.8245972999138758,None,257.21251330000814,257.2280138999922,258.22848229995,258.21204320003744,,,,,,,,,,,,,,,,,,,,,,,,,,,,,,,,,,,,,,,,,,,,,,,,,,,,,,,,,,,,,,,,,,,,,,,,,,,,,,A_10,001,2024-11-29_12h03.17.919,untitled,2024.1.5,None,2024-11-29 12h03.33.311131 +0530,
triangle.png,stranger,0,Z,,,,,,,,,8,0,32,3,,,,,,,,,258.22848229995,,,,,,,,,,,,,,,,,,,,,,,,,,,,,,,,,,,,,,,,,,,,,,,,,,,,,,,,,,,,258.21239939995576,258.22848229995,258.7121013000142,258.7121013000142,258.7121013000142,258.7121013000142,258.7285316999769,259.01220320002176,259.01220320002176,259.01220320002176,259.6629177000141,z,0.9377896999940276,None,259.6634024999803,259.67896679998375,260.6795340999961,260.66313869995065,,,,,,,,,,,,,,,,,,,,,,,,,,,,,,,,,,,,,,,,,,,,,,,,,,,,,,,,,,,,,,,,,,,,,,,,,,,,,,A_10,001,2024-11-29_12h03.17.919,untitled,2024.1.5,None,2024-11-29 12h03.33.311131 +0530,
square.png,you,0,Z,,,,,,,,,8,1,33,2,,,,,,,,,260.6795340999961,,,,,,,,,,,,,,,,,,,,,,,,,,,,,,,,,,,,,,,,,,,,,,,,,,,,,,,,,,,,260.66350100003183,260.6795340999961,261.16331720002927,261.16331720002927,261.16331720002927,261.16331720002927,261.17986929998733,261.4633643999696,261.4633643999696,261.4633643999696,262.231096399948,z,1.0586780000012368,None,262.2315489000175,262.2469053999521,263.24777200003155,263.2314589000307,,,,,,,,,,,,,,,,,,,,,,,,,,,,,,,,,,,,,,,,,,,,,,,,,,,,,,,,,,,,,,,,,,,,,,,,,,,,,,A_10,001,2024-11-29_12h03.17.919,untitled,2024.1.5,None,2024-11-29 12h03.33.311131 +0530,
triangle.png,you,1,M,,,,,,,,,8,2,34,1,,,,,,,,,263.24777200003155,,,,,,,,,,,,,,,,,,,,,,,,,,,,,,,,,,,,,,,,,,,,,,,,,,,,,,,,,,,,263.2318139000563,263.24777200003155,263.73153089999687,263.73153089999687,263.73153089999687,263.73153089999687,263.7479811999947,264.0315373999765,264.0315373999765,264.0315373999765,264.59905429999344,m,0.8585833000252023,None,264.59949259995483,264.61499599996023,265.6155026999768,265.5992873000214,,,,,,,,,,,,,,,,,,,,,,,,,,,,,,,,,,,,,,,,,,,,,,,,,,,,,,,,,,,,,,,,,,,,,,,,,,,,,,A_10,001,2024-11-29_12h03.17.919,untitled,2024.1.5,None,2024-11-29 12h03.33.311131 +0530,
square.png,stranger,1,M,,,,,,,,,8,3,35,0,,,,,,,,,265.6155026999768,,,,,,,,,,,,,,,,,,,,,,,,,,,,,,,,,,,,,,,,,,,,,,,,,,,,,,,,,,,,265.5996521000052,265.6155026999768,266.09908820001874,266.09908820001874,266.09908820001874,266.09908820001874,266.1158910000231,266.3990791999968,266.3990791999968,266.3990791999968,266.9502524000127,z,0.8496597000630572,None,266.9506870000623,266.9663720000535,267.9668625999475,267.95045789994765,,,,,,,,,,,,,,,,,,,,,,,,,,,,,,,,,,,,,,,,,,,,,,,,,,,,,,,,,,,,,,,,,,,,,,,,,,,,,,A_10,001,2024-11-29_12h03.17.919,untitled,2024.1.5,None,2024-11-29 12h03.33.311131 +0530,
square.png,stranger,1,M,,,,,,,,,9,0,36,0,,,,,,,,,267.9668625999475,,,,,,,,,,,,,,,,,,,,,,,,,,,,,,,,,,,,,,,,,,,,,,,,,,,,,,,,,,,,267.9508131999755,267.9668625999475,268.45037510001566,268.45037510001566,268.45037510001566,268.45037510001566,268.4670729000354,268.7504571999889,268.7504571999889,268.7504571999889,268.8846045000246,m,0.4277218000497669,None,268.8850513000507,268.9003565000603,269.9008819999872,269.88486969994847,,,,,,,,,,,,,,,,,,,,,,,,,,,,,,,,,,,,,,,,,,,,,,,,,,,,,,,,,,,,,,,,,,,,,,,,,,,,,,A_10,001,2024-11-29_12h03.17.919,untitled,2024.1.5,None,2024-11-29 12h03.33.311131 +0530,
triangle.png,you,1,M,,,,,,,,,9,1,37,1,,,,,,,,,269.9008819999872,,,,,,,,,,,,,,,,,,,,,,,,,,,,,,,,,,,,,,,,,,,,,,,,,,,,,,,,,,,,269.88523280003574,269.9008819999872,270.3848027000204,270.3848027000204,270.3848027000204,270.3848027000204,270.4013782000402,270.6848170000594,270.6848170000594,270.6848170000594,271.25255189999007,m,0.8523623000364751,None,271.2530012000352,271.2682822999777,272.2688578000525,272.25278640002944,,,,,,,,,,,,,,,,,,,,,,,,,,,,,,,,,,,,,,,,,,,,,,,,,,,,,,,,,,,,,,,,,,,,,,,,,,,,,,A_10,001,2024-11-29_12h03.17.919,untitled,2024.1.5,None,2024-11-29 12h03.33.311131 +0530,
square.png,you,0,Z,,,,,,,,,9,2,38,2,,,,,,,,,272.2688578000525,,,,,,,,,,,,,,,,,,,,,,,,,,,,,,,,,,,,,,,,,,,,,,,,,,,,,,,,,,,,272.25314359995537,272.2688578000525,272.75248260004446,272.75248260004446,272.75248260004446,272.75248260004446,272.76910160004627,273.0525214000372,273.0525214000372,273.0525214000372,273.553571299999,z,0.7855410999618471,None,273.55400590004865,273.56973460002337,274.5702108000405,274.5539803999709,,,,,,,,,,,,,,,,,,,,,,,,,,,,,,,,,,,,,,,,,,,,,,,,,,,,,,,,,,,,,,,,,,,,,,,,,,,,,,A_10,001,2024-11-29_12h03.17.919,untitled,2024.1.5,None,2024-11-29 12h03.33.311131 +0530,
triangle.png,stranger,0,Z,,,,,,,,,9,3,39,3,,,,,,,,,274.5702108000405,,,,,,,,,,,,,,,,,,,,,,,,,,,,,,,,,,,,,,,,,,,,,,,,,,,,,,,,,,,,274.55433419998735,274.5702108000405,275.0540879999753,275.0540879999753,275.0540879999753,275.0540879999753,275.07034600002225,275.35377809999045,275.35377809999045,275.35377809999045,276.0382708000252,z,0.9827472000615671,None,276.0387064999668,276.0540695999516,277.0546194999479,277.03840179997496,,,,,,,,,,,,,,,,,,,,,,,,,,,,,,,,,,,,,,,,,,,,,,,,,,,,,,,,,,,,,,,,,,,,,,,,,,,,,,A_10,001,2024-11-29_12h03.17.919,untitled,2024.1.5,None,2024-11-29 12h03.33.311131 +0530,
triangle.png,you,1,M,,,,,,,,,10,0,40,1,,,,,,,,,277.0546194999479,,,,,,,,,,,,,,,,,,,,,,,,,,,,,,,,,,,,,,,,,,,,,,,,,,,,,,,,,,,,277.0387548999861,277.0546194999479,277.53865700005554,277.53865700005554,277.53865700005554,277.53865700005554,277.5549493000144,277.8383905000519,277.8383905000519,277.8383905000519,278.3394066999899,m,0.7913920999271795,None,278.3398707000306,278.3553973999806,279.355892600026,279.33982730004936,,,,,,,,,,,,,,,,,,,,,,,,,,,,,,,,,,,,,,,,,,,,,,,,,,,,,,,,,,,,,,,,,,,,,,,,,,,,,,A_10,001,2024-11-29_12h03.17.919,untitled,2024.1.5,None,2024-11-29 12h03.33.311131 +0530,
square.png,you,0,Z,,,,,,,,,10,1,41,2,,,,,,,,,279.355892600026,,,,,,,,,,,,,,,,,,,,,,,,,,,,,,,,,,,,,,,,,,,,,,,,,,,,,,,,,,,,279.3401857999852,279.355892600026,279.83943609998096,279.83943609998096,279.83943609998096,279.83943609998096,279.8563258999493,280.13953379995655,280.13953379995655,280.13953379995655,280.674322100007,z,0.8337476000888273,None,280.6747620999813,280.68992390006315,281.6903412999818,281.6740972000407,,,,,,,,,,,,,,,,,,,,,,,,,,,,,,,,,,,,,,,,,,,,,,,,,,,,,,,,,,,,,,,,,,,,,,,,,,,,,,A_10,001,2024-11-29_12h03.17.919,untitled,2024.1.5,None,2024-11-29 12h03.33.311131 +0530,
square.png,stranger,1,M,,,,,,,,,10,2,42,0,,,,,,,,,281.6903412999818,,,,,,,,,,,,,,,,,,,,,,,,,,,,,,,,,,,,,,,,,,,,,,,,,,,,,,,,,,,,281.6744523999514,281.6903412999818,282.1744444000069,282.1744444000069,282.1744444000069,282.1744444000069,282.19072459999006,282.47398050001357,282.47398050001357,282.47398050001357,283.07518140005413,m,0.8913910000119358,None,283.07564499997534,283.0911855000304,284.09178230003454,284.0752855000319,,,,,,,,,,,,,,,,,,,,,,,,,,,,,,,,,,,,,,,,,,,,,,,,,,,,,,,,,,,,,,,,,,,,,,,,,,,,,,A_10,001,2024-11-29_12h03.17.919,untitled,2024.1.5,None,2024-11-29 12h03.33.311131 +0530,
triangle.png,stranger,0,Z,,,,,,,,,10,3,43,3,,,,,,,,,284.09178230003454,,,,,,,,,,,,,,,,,,,,,,,,,,,,,,,,,,,,,,,,,,,,,,,,,,,,,,,,,,,,284.0756413999479,284.09178230003454,284.57551919994876,284.57551919994876,284.57551919994876,284.57551919994876,284.5921457000077,284.8754542999668,284.8754542999668,284.8754542999668,285.2761263999855,z,0.6939950999803841,None,285.2765708999941,285.29232620005496,286.29296160000376,286.27668230002746,,,,,,,,,,,,,,,,,,,,,,,,,,,,,,,,,,,,,,,,,,,,,,,,,,,,,,,,,,,,,,,,,,,,,,,,,,,,,,A_10,001,2024-11-29_12h03.17.919,untitled,2024.1.5,None,2024-11-29 12h03.33.311131 +0530,
square.png,stranger,1,M,,,,,,,,,11,0,44,0,,,,,,,,,286.29296160000376,,,,,,,,,,,,,,,,,,,,,,,,,,,,,,,,,,,,,,,,,,,,,,,,,,,,,,,,,,,,286.27704039996024,286.29296160000376,286.7765942000551,286.7765942000551,286.7765942000551,286.7765942000551,286.7930270000361,287.07650079997256,287.07650079997256,287.07650079997256,287.5440546000609,m,0.7642823000205681,None,287.5444911000086,287.5601510000415,288.5605474000331,288.5446111999918,,,,,,,,,,,,,,,,,,,,,,,,,,,,,,,,,,,,,,,,,,,,,,,,,,,,,,,,,,,,,,,,,,,,,,,,,,,,,,A_10,001,2024-11-29_12h03.17.919,untitled,2024.1.5,None,2024-11-29 12h03.33.311131 +0530,
triangle.png,stranger,0,Z,,,,,,,,,11,1,45,3,,,,,,,,,288.5605474000331,,,,,,,,,,,,,,,,,,,,,,,,,,,,,,,,,,,,,,,,,,,,,,,,,,,,,,,,,,,,288.5449659000151,288.5605474000331,289.044181699981,289.044181699981,289.044181699981,289.044181699981,289.0609924000455,289.34459019999485,289.34459019999485,289.34459019999485,289.7620098000625,z,0.7135266000404954,None,289.7624530000612,289.7777841000352,290.7782647999702,290.76206189999357,,,,,,,,,,,,,,,,,,,,,,,,,,,,,,,,,,,,,,,,,,,,,,,,,,,,,,,,,,,,,,,,,,,,,,,,,,,,,,A_10,001,2024-11-29_12h03.17.919,untitled,2024.1.5,None,2024-11-29 12h03.33.311131 +0530,
square.png,you,0,Z,,,,,,,,,11,2,46,2,,,,,,,,,290.7782647999702,,,,,,,,,,,,,,,,,,,,,,,,,,,,,,,,,,,,,,,,,,,,,,,,,,,,,,,,,,,,290.76242190005723,290.7782647999702,291.2620922999922,291.2620922999922,291.2620922999922,291.2620922999922,291.27900670003146,291.5621960000135,291.5621960000135,291.5621960000135,291.91318629996385,m,0.640022800071165,None,291.913635600009,291.9289279000368,292.9296749000205,292.91322670003865,,,,,,,,,,,,,,,,,,,,,,,,,,,,,,,,,,,,,,,,,,,,,,,,,,,,,,,,,,,,,,,,,,,,,,,,,,,,,,A_10,001,2024-11-29_12h03.17.919,untitled,2024.1.5,None,2024-11-29 12h03.33.311131 +0530,
triangle.png,you,1,M,,,,,,,,,11,3,47,1,,,,,,,,,292.9296749000205,,,,,,,,,,,,,,,,,,,,,,,,,,,,,,,,,,,,,,,,,,,,,,,,,,,,,,,,,,,,292.91358860000037,292.9296749000205,293.41316050000023,293.41316050000023,293.41316050000023,293.41316050000023,293.42971689999104,293.71332590002567,293.71332590002567,293.71332590002567,294.281158400001,z,0.8648971000220627,None,294.28161279996857,294.2970699999714,295.2975997000467,295.28121289995033,,,,,,,,,,,,,,,,,,,,,,,,,,,,,,,,,,,,,,,,,,,,,,,,,,,,,,,,,,,,,,,,,,,,,,,,,,,,,,A_10,001,2024-11-29_12h03.17.919,untitled,2024.1.5,None,2024-11-29 12h03.33.311131 +0530,
triangle.png,stranger,0,Z,,,,,,,,,12,0,48,3,,,,,,,,,295.2975997000467,,,,,,,,,,,,,,,,,,,,,,,,,,,,,,,,,,,,,,,,,,,,,,,,,,,,,,,,,,,,295.28173190006055,295.2975997000467,295.78102320001926,295.78102320001926,295.78102320001926,295.78102320001926,295.7976351999678,296.0809617000632,296.0809617000632,296.0809617000632,296.7821819999954,m,0.9879597000544891,None,296.7826204999583,296.79814890003763,297.7985298000276,297.78229620005004,,,,,,,,,,,,,,,,,,,,,,,,,,,,,,,,,,,,,,,,,,,,,,,,,,,,,,,,,,,,,,,,,,,,,,,,,,,,,,A_10,001,2024-11-29_12h03.17.919,untitled,2024.1.5,None,2024-11-29 12h03.33.311131 +0530,
triangle.png,you,1,M,,,,,,,,,12,1,49,1,,,,,,,,,297.7985298000276,,,,,,,,,,,,,,,,,,,,,,,,,,,,,,,,,,,,,,,,,,,,,,,,,,,,,,,,,,,,297.7826600000262,297.7985298000276,298.2822811000515,298.2822811000515,298.2822811000515,298.2822811000515,298.2988801000174,298.582334500039,298.582334500039,298.582334500039,299.216990099987,m,0.9275544999400154,None,299.2174291999545,299.2329006999498,300.23343470005784,300.21692839998286,,,,,,,,,,,,,,,,,,,,,,,,,,,,,,,,,,,,,,,,,,,,,,,,,,,,,,,,,,,,,,,,,,,,,,,,,,,,,,A_10,001,2024-11-29_12h03.17.919,untitled,2024.1.5,None,2024-11-29 12h03.33.311131 +0530,
square.png,you,0,Z,,,,,,,,,12,2,50,2,,,,,,,,,300.23343470005784,,,,,,,,,,,,,,,,,,,,,,,,,,,,,,,,,,,,,,,,,,,,,,,,,,,,,,,,,,,,300.2172801999841,300.23343470005784,300.71693029999733,300.71693029999733,300.71693029999733,300.71693029999733,300.73372320004273,301.0171132000396,301.0171132000396,301.0171132000396,301.534690600005,z,0.8129559999797493,None,301.53512070002034,301.55047580006067,302.55126680003013,302.5351013999898,,,,,,,,,,,,,,,,,,,,,,,,,,,,,,,,,,,,,,,,,,,,,,,,,,,,,,,,,,,,,,,,,,,,,,,,,,,,,,A_10,001,2024-11-29_12h03.17.919,untitled,2024.1.5,None,2024-11-29 12h03.33.311131 +0530,
square.png,stranger,1,M,,,,,,,,,12,3,51,0,,,,,,,,,302.55126680003013,,,,,,,,,,,,,,,,,,,,,,,,,,,,,,,,,,,,,,,,,,,,,,,,,,,,,,,,,,,,302.5355043000309,302.55126680003013,303.0347297999542,303.0347297999542,303.0347297999542,303.0347297999542,303.051806799951,303.3350107000442,303.3350107000442,303.3350107000442,304.03602400003,m,0.9859939001034945,None,304.03645310003776,304.0520518999547,305.052523600054,305.0363114000065,,,,,,,,,,,,,,,,,,,,,,,,,,,,,,,,,,,,,,,,,,,,,,,,,,,,,,,,,,,,,,,,,,,,,,,,,,,,,,A_10,001,2024-11-29_12h03.17.919,untitled,2024.1.5,None,2024-11-29 12h03.33.311131 +0530,
square.png,you,0,Z,,,,,,,,,13,0,52,2,,,,,,,,,305.052523600054,,,,,,,,,,,,,,,,,,,,,,,,,,,,,,,,,,,,,,,,,,,,,,,,,,,,,,,,,,,,305.0366688000504,305.052523600054,305.53611370001454,305.53611370001454,305.53611370001454,305.53611370001454,305.55288740003016,305.83614020003006,305.83614020003006,305.83614020003006,306.38702290004585,z,0.8417299999855459,None,306.3874685000628,306.40323279995937,307.4036987000145,307.3874452000018,,,,,,,,,,,,,,,,,,,,,,,,,,,,,,,,,,,,,,,,,,,,,,,,,,,,,,,,,,,,,,,,,,,,,,,,,,,,,,A_10,001,2024-11-29_12h03.17.919,untitled,2024.1.5,None,2024-11-29 12h03.33.311131 +0530,
square.png,stranger,1,M,,,,,,,,,13,1,53,0,,,,,,,,,307.4036987000145,,,,,,,,,,,,,,,,,,,,,,,,,,,,,,,,,,,,,,,,,,,,,,,,,,,,,,,,,,,,307.3878042000579,307.4036987000145,307.8873184999684,307.8873184999684,307.8873184999684,307.8873184999684,307.9039967999561,308.1872113000136,308.1872113000136,308.1872113000136,308.97149679996073,None,,,308.97168980003335,308.98789330001455,309.988380099996,309.9719804000342,308.98789330001455,,,,,,,,,,,,,,,,,,,,,,,,,,,,,,,,,,,,,,,,,,,,,,,,,,,,,,,,,,,,,,,,,,,,,,,,,,,,,A_10,001,2024-11-29_12h03.17.919,untitled,2024.1.5,None,2024-11-29 12h03.33.311131 +0530,
triangle.png,stranger,0,Z,,,,,,,,,13,2,54,3,,,,,,,,,309.988380099996,,,,,,,,,,,,,,,,,,,,,,,,,,,,,,,,,,,,,,,,,,,,,,,,,,,,,,,,,,,,309.9723408999853,309.988380099996,310.48867360001896,310.48867360001896,310.48867360001896,310.48867360001896,310.48867360001896,310.7884864000371,310.7884864000371,310.7884864000371,311.2730079999892,z,0.7770232999464497,None,311.27345730003435,311.28908080002293,312.2894951000344,312.2731550000608,,,,,,,,,,,,,,,,,,,,,,,,,,,,,,,,,,,,,,,,,,,,,,,,,,,,,,,,,,,,,,,,,,,,,,,,,,,,,,A_10,001,2024-11-29_12h03.17.919,untitled,2024.1.5,None,2024-11-29 12h03.33.311131 +0530,
triangle.png,you,1,M,,,,,,,,,13,3,55,1,,,,,,,,,312.2894951000344,,,,,,,,,,,,,,,,,,,,,,,,,,,,,,,,,,,,,,,,,,,,,,,,,,,,,,,,,,,,312.2735200000461,312.2894951000344,312.7731976000359,312.7731976000359,312.7731976000359,312.7731976000359,312.7897345999954,313.07340049999766,313.07340049999766,313.07340049999766,313.524249900016,m,0.7369954999303445,None,313.5246827000519,313.5402012000559,314.5406879000366,314.5245244000107,,,,,,,,,,,,,,,,,,,,,,,,,,,,,,,,,,,,,,,,,,,,,,,,,,,,,,,,,,,,,,,,,,,,,,,,,,,,,,A_10,001,2024-11-29_12h03.17.919,untitled,2024.1.5,None,2024-11-29 12h03.33.311131 +0530,
triangle.png,you,1,M,,,,,,,,,14,0,56,1,,,,,,,,,314.5406879000366,,,,,,,,,,,,,,,,,,,,,,,,,,,,,,,,,,,,,,,,,,,,,,,,,,,,,,,,,,,,314.5248831999488,314.5406879000366,315.0244670000393,315.0244670000393,315.0244670000393,315.0244670000393,315.0411328000482,315.32437279995065,315.32437279995065,315.32437279995065,315.70897599996533,m,0.6684238000307232,None,315.70948750001844,315.72465089999605,316.7251582000172,316.70866780006327,,,,,,,,,,,,,,,,,,,,,,,,,,,,,,,,,,,,,,,,,,,,,,,,,,,,,,,,,,,,,,,,,,,,,,,,,,,,,,A_10,001,2024-11-29_12h03.17.919,untitled,2024.1.5,None,2024-11-29 12h03.33.311131 +0530,
triangle.png,stranger,0,Z,,,,,,,,,14,1,57,3,,,,,,,,,316.7251582000172,,,,,,,,,,,,,,,,,,,,,,,,,,,,,,,,,,,,,,,,,,,,,,,,,,,,,,,,,,,,316.7090292000212,316.7251582000172,317.2090160000371,317.2090160000371,317.2090160000371,317.2090160000371,317.22556090005673,317.5087527000578,317.5087527000578,317.5087527000578,318.0931509999791,z,0.8677584000397474,None,318.09359800000675,318.1092571000336,319.1097590000136,319.09350900002755,,,,,,,,,,,,,,,,,,,,,,,,,,,,,,,,,,,,,,,,,,,,,,,,,,,,,,,,,,,,,,,,,,,,,,,,,,,,,,A_10,001,2024-11-29_12h03.17.919,untitled,2024.1.5,None,2024-11-29 12h03.33.311131 +0530,
square.png,you,0,Z,,,,,,,,,14,2,58,2,,,,,,,,,319.1097590000136,,,,,,,,,,,,,,,,,,,,,,,,,,,,,,,,,,,,,,,,,,,,,,,,,,,,,,,,,,,,319.0938671999611,319.1097590000136,319.5931993999984,319.5931993999984,319.5931993999984,319.5931993999984,319.609841800062,319.89343960001133,319.89343960001133,319.89343960001133,320.6612133999588,m,1.0525522000389174,None,320.6616576999659,320.6771286999574,321.67748199997004,321.66142260003835,,,,,,,,,,,,,,,,,,,,,,,,,,,,,,,,,,,,,,,,,,,,,,,,,,,,,,,,,,,,,,,,,,,,,,,,,,,,,,A_10,001,2024-11-29_12h03.17.919,untitled,2024.1.5,None,2024-11-29 12h03.33.311131 +0530,
square.png,stranger,1,M,,,,,,,,,14,3,59,0,,,,,,,,,321.67748199997004,,,,,,,,,,,,,,,,,,,,,,,,,,,,,,,,,,,,,,,,,,,,,,,,,,,,,,,,,,,,321.6618268999737,321.67748199997004,322.16140009998344,322.16140009998344,322.16140009998344,322.16140009998344,322.17807450005785,322.46140749996994,322.46140749996994,322.46140749996994,322.87901579996105,m,0.7074616000754759,None,322.8794568000594,322.89487449999433,323.89535440003965,323.87933300004806,,,,,,,,,,,,,,,,,,,,,,,,,,,,,,,,,,,,,,,,,,,,,,,,,,,,,,,,,,,,,,,,,,,,,,,,,,,,,,A_10,001,2024-11-29_12h03.17.919,untitled,2024.1.5,None,2024-11-29 12h03.33.311131 +0530,
square.png,you,0,Z,,,,,,,,,15,0,60,2,,,,,,,,,323.89535440003965,,,,,,,,,,,,,,,,,,,,,,,,,,,,,,,,,,,,,,,,,,,,,,,,,,,,,,,,,,,,323.87969390000217,323.89535440003965,324.37910460005514,324.37910460005514,324.37910460005514,324.37910460005514,324.3959762000013,324.67902609996963,324.67902609996963,324.67902609996963,325.03004780004267,m,0.6390837000217289,None,325.03048590000253,325.04606840002816,326.04634829994757,326.0302335000597,,,,,,,,,,,,,,,,,,,,,,,,,,,,,,,,,,,,,,,,,,,,,,,,,,,,,,,,,,,,,,,,,,,,,,,,,,,,,,A_10,001,2024-11-29_12h03.17.919,untitled,2024.1.5,None,2024-11-29 12h03.33.311131 +0530,
triangle.png,you,1,M,,,,,,,,,15,1,61,1,,,,,,,,,326.04634829994757,,,,,,,,,,,,,,,,,,,,,,,,,,,,,,,,,,,,,,,,,,,,,,,,,,,,,,,,,,,,326.03059480001684,326.04634829994757,326.53030810004566,326.53030810004566,326.53030810004566,326.53030810004566,326.54692660004366,326.8302429000614,326.8302429000614,326.8302429000614,327.0480322999647,z,0.5105619999812916,None,327.0484652000014,327.06371639994904,328.0642551999772,328.0479301000014,,,,,,,,,,,,,,,,,,,,,,,,,,,,,,,,,,,,,,,,,,,,,,,,,,,,,,,,,,,,,,,,,,,,,,,,,,,,,,A_10,001,2024-11-29_12h03.17.919,untitled,2024.1.5,None,2024-11-29 12h03.33.311131 +0530,
square.png,stranger,1,M,,,,,,,,,15,2,62,0,,,,,,,,,328.0642551999772,,,,,,,,,,,,,,,,,,,,,,,,,,,,,,,,,,,,,,,,,,,,,,,,,,,,,,,,,,,,328.0482843000209,328.0642551999772,328.5481356000528,328.5481356000528,328.5481356000528,328.5481356000528,328.56475500005763,328.84788709995337,328.84788709995337,328.84788709995337,329.0653918000171,m,0.5012506999773905,None,329.0658419999527,329.08125190006103,330.08217680000234,330.065721699968,,,,,,,,,,,,,,,,,,,,,,,,,,,,,,,,,,,,,,,,,,,,,,,,,,,,,,,,,,,,,,,,,,,,,,,,,,,,,,A_10,001,2024-11-29_12h03.17.919,untitled,2024.1.5,None,2024-11-29 12h03.33.311131 +0530,
triangle.png,stranger,0,Z,,,,,,,,,15,3,63,3,,,,,,,,,330.08217680000234,,,,,,,,,,,,,,,,,,,,,,,,,,,,,,,,,,,,,,,,,,,,,,,,,,,,,,,,,,,,330.066140800016,330.08217680000234,330.5653526999522,330.5653526999522,330.5653526999522,330.5653526999522,330.58197030005977,330.865417300025,330.865417300025,330.865417300025,331.6500162000302,None,,,331.65021460002754,331.66625610005576,332.66695670003537,332.6507103999611,331.66625610005576,,,,,,,,,,,,,,,,,,,,,,,,,,,,,,,,,,,,,,,,,,,,,,,,,,,,,,,,,,,,,,,,,,,,,,,,,,,,,A_10,001,2024-11-29_12h03.17.919,untitled,2024.1.5,None,2024-11-29 12h03.33.311131 +0530,
triangle.png,stranger,0,Z,,,,,,,,,16,0,64,3,,,,,,,,,332.66695670003537,,,,,,,,,,,,,,,,,,,,,,,,,,,,,,,,,,,,,,,,,,,,,,,,,,,,,,,,,,,,332.6510688000126,332.66695670003537,333.1669414000353,333.1669414000353,333.1669414000353,333.1669414000353,333.1669414000353,333.46705680002924,333.46705680002924,333.46705680002924,334.08459330000915,z,0.915363600011915,None,334.0850411000429,334.1006698999554,335.1013722999487,335.0851356999483,,,,,,,,,,,,,,,,,,,,,,,,,,,,,,,,,,,,,,,,,,,,,,,,,,,,,,,,,,,,,,,,,,,,,,,,,,,,,,A_10,001,2024-11-29_12h03.17.919,untitled,2024.1.5,None,2024-11-29 12h03.33.311131 +0530,
square.png,stranger,1,M,,,,,,,,,16,1,65,0,,,,,,,,,335.1013722999487,,,,,,,,,,,,,,,,,,,,,,,,,,,,,,,,,,,,,,,,,,,,,,,,,,,,,,,,,,,,335.08549149998,335.1013722999487,335.58528490003664,335.58528490003664,335.58528490003664,335.58528490003664,335.60151990002487,335.8848529000534,335.8848529000534,335.8848529000534,336.4693780000089,m,0.879473999957554,None,336.46981419995427,336.48519270005636,337.4858988999622,337.4697126999963,,,,,,,,,,,,,,,,,,,,,,,,,,,,,,,,,,,,,,,,,,,,,,,,,,,,,,,,,,,,,,,,,,,,,,,,,,,,,,A_10,001,2024-11-29_12h03.17.919,untitled,2024.1.5,None,2024-11-29 12h03.33.311131 +0530,
square.png,you,0,Z,,,,,,,,,16,2,66,2,,,,,,,,,337.4858988999622,,,,,,,,,,,,,,,,,,,,,,,,,,,,,,,,,,,,,,,,,,,,,,,,,,,,,,,,,,,,337.4701507999562,337.4858988999622,337.96935579995625,337.96935579995625,337.96935579995625,337.96935579995625,337.9862448000349,338.26952049997635,338.26952049997635,338.26952049997635,338.48696060001384,m,0.5123997000046074,None,338.4874039000133,338.5029084000271,339.5033218000317,339.4872210000176,,,,,,,,,,,,,,,,,,,,,,,,,,,,,,,,,,,,,,,,,,,,,,,,,,,,,,,,,,,,,,,,,,,,,,,,,,,,,,A_10,001,2024-11-29_12h03.17.919,untitled,2024.1.5,None,2024-11-29 12h03.33.311131 +0530,
triangle.png,you,1,M,,,,,,,,,16,3,67,1,,,,,,,,,339.5033218000317,,,,,,,,,,,,,,,,,,,,,,,,,,,,,,,,,,,,,,,,,,,,,,,,,,,,,,,,,,,,339.4875912000425,339.5033218000317,339.98774190002587,339.98774190002587,339.98774190002587,339.98774190002587,340.00372709997464,340.287181599997,340.287181599997,340.287181599997,340.50469580001663,m,0.5149303999496624,None,340.50514719996136,340.5206774000544,341.52111299999524,341.50487399997655,,,,,,,,,,,,,,,,,,,,,,,,,,,,,,,,,,,,,,,,,,,,,,,,,,,,,,,,,,,,,,,,,,,,,,,,,,,,,,A_10,001,2024-11-29_12h03.17.919,untitled,2024.1.5,None,2024-11-29 12h03.33.311131 +0530,
square.png,stranger,1,M,,,,,,,,,17,0,68,0,,,,,,,,,341.52111299999524,,,,,,,,,,,,,,,,,,,,,,,,,,,,,,,,,,,,,,,,,,,,,,,,,,,,,,,,,,,,341.5052310000174,341.52111299999524,342.0050193000352,342.0050193000352,342.0050193000352,342.0050193000352,342.02166670002043,342.3050493999617,342.3050493999617,342.3050493999617,342.67257159994915,m,0.6609990999568254,None,342.67301070003305,342.68841079995036,343.68896810000297,343.67260369996075,,,,,,,,,,,,,,,,,,,,,,,,,,,,,,,,,,,,,,,,,,,,,,,,,,,,,,,,,,,,,,,,,,,,,,,,,,,,,,A_10,001,2024-11-29_12h03.17.919,untitled,2024.1.5,None,2024-11-29 12h03.33.311131 +0530,
triangle.png,stranger,0,Z,,,,,,,,,17,1,69,3,,,,,,,,,343.68896810000297,,,,,,,,,,,,,,,,,,,,,,,,,,,,,,,,,,,,,,,,,,,,,,,,,,,,,,,,,,,,343.6729611000046,343.68896810000297,344.17284070001915,344.17284070001915,344.17284070001915,344.17284070001915,344.1894591000164,344.47246780002024,344.47246780002024,344.47246780002024,344.95707360003144,z,0.7759288999950513,None,344.95750510005746,344.9728557000635,345.9736827999586,345.9573538999539,,,,,,,,,,,,,,,,,,,,,,,,,,,,,,,,,,,,,,,,,,,,,,,,,,,,,,,,,,,,,,,,,,,,,,,,,,,,,,A_10,001,2024-11-29_12h03.17.919,untitled,2024.1.5,None,2024-11-29 12h03.33.311131 +0530,
square.png,you,0,Z,,,,,,,,,17,2,70,2,,,,,,,,,345.9736827999586,,,,,,,,,,,,,,,,,,,,,,,,,,,,,,,,,,,,,,,,,,,,,,,,,,,,,,,,,,,,345.95770410005935,345.9736827999586,346.4571943000192,346.4571943000192,346.4571943000192,346.4571943000192,346.4735532000195,346.7572574999649,346.7572574999649,346.7572574999649,347.17493800004013,m,0.7157342999707907,None,347.1753708999604,347.1908631999977,348.1912703999551,348.1751024000114,,,,,,,,,,,,,,,,,,,,,,,,,,,,,,,,,,,,,,,,,,,,,,,,,,,,,,,,,,,,,,,,,,,,,,,,,,,,,,A_10,001,2024-11-29_12h03.17.919,untitled,2024.1.5,None,2024-11-29 12h03.33.311131 +0530,
triangle.png,you,1,M,,,,,,,,,17,3,71,1,,,,,,,,,348.1912703999551,,,,,,,,,,,,,,,,,,,,,,,,,,,,,,,,,,,,,,,,,,,,,,,,,,,,,,,,,,,,348.17545540002175,348.1912703999551,348.6750939999474,348.6750939999474,348.6750939999474,348.6750939999474,348.6917358000064,348.97504000004847,348.97504000004847,348.97504000004847,349.32607029995415,m,0.6350979999406263,None,349.3265098000411,349.34208319999743,350.3425190000562,350.3260761999991,,,,,,,,,,,,,,,,,,,,,,,,,,,,,,,,,,,,,,,,,,,,,,,,,,,,,,,,,,,,,,,,,,,,,,,,,,,,,,A_10,001,2024-11-29_12h03.17.919,untitled,2024.1.5,None,2024-11-29 12h03.33.311131 +0530,
square.png,stranger,1,M,,,,,,,,,18,0,72,0,,,,,,,,,350.3425190000562,,,,,,,,,,,,,,,,,,,,,,,,,,,,,,,,,,,,,,,,,,,,,,,,,,,,,,,,,,,,350.32643020001706,350.3425190000562,350.8261142000556,350.8261142000556,350.8261142000556,350.8261142000556,350.8426128999563,351.12602289998904,351.12602289998904,351.12602289998904,351.44388340006117,z,0.6121058999560773,None,351.4443173999898,351.45953430002555,352.45993709994946,352.4440076999599,,,,,,,,,,,,,,,,,,,,,,,,,,,,,,,,,,,,,,,,,,,,,,,,,,,,,,,,,,,,,,,,,,,,,,,,,,,,,,A_10,001,2024-11-29_12h03.17.919,untitled,2024.1.5,None,2024-11-29 12h03.33.311131 +0530,
triangle.png,you,1,M,,,,,,,,,18,1,73,1,,,,,,,,,352.45993709994946,,,,,,,,,,,,,,,,,,,,,,,,,,,,,,,,,,,,,,,,,,,,,,,,,,,,,,,,,,,,352.44436720001977,352.45993709994946,352.9437518999912,352.9437518999912,352.9437518999912,352.9437518999912,352.9604905999731,353.2438668999821,353.2438668999821,353.2438668999821,353.6115544999484,m,0.6624417999992147,None,353.6120022999821,353.6273283000337,354.6280860999832,354.6115873999661,,,,,,,,,,,,,,,,,,,,,,,,,,,,,,,,,,,,,,,,,,,,,,,,,,,,,,,,,,,,,,,,,,,,,,,,,,,,,,A_10,001,2024-11-29_12h03.17.919,untitled,2024.1.5,None,2024-11-29 12h03.33.311131 +0530,
triangle.png,stranger,0,Z,,,,,,,,,18,2,74,3,,,,,,,,,354.6280860999832,,,,,,,,,,,,,,,,,,,,,,,,,,,,,,,,,,,,,,,,,,,,,,,,,,,,,,,,,,,,354.6119407999795,354.6280860999832,355.1115789000178,355.1115789000178,355.1115789000178,355.1115789000178,355.1282700999873,355.41172299999744,355.41172299999744,355.41172299999744,355.8959244999569,z,0.7705420999554917,None,355.896356799989,355.9118012000108,356.9124760000268,356.89619780005887,,,,,,,,,,,,,,,,,,,,,,,,,,,,,,,,,,,,,,,,,,,,,,,,,,,,,,,,,,,,,,,,,,,,,,,,,,,,,,A_10,001,2024-11-29_12h03.17.919,untitled,2024.1.5,None,2024-11-29 12h03.33.311131 +0530,
square.png,you,0,Z,,,,,,,,,18,3,75,2,,,,,,,,,356.9124760000268,,,,,,,,,,,,,,,,,,,,,,,,,,,,,,,,,,,,,,,,,,,,,,,,,,,,,,,,,,,,356.8965500999475,356.9124760000268,357.3961898999987,357.3961898999987,357.3961898999987,357.3961898999987,357.4126328000566,357.69600450003054,357.69600450003054,357.69600450003054,358.03039580001496,m,0.6300495000323281,None,358.0308394000167,358.0461741000181,359.04678350000177,359.0306489999639,,,,,,,,,,,,,,,,,,,,,,,,,,,,,,,,,,,,,,,,,,,,,,,,,,,,,,,,,,,,,,,,,,,,,,,,,,,,,,A_10,001,2024-11-29_12h03.17.919,untitled,2024.1.5,None,2024-11-29 12h03.33.311131 +0530,
triangle.png,stranger,0,Z,,,,,,,,,19,0,76,3,,,,,,,,,359.04678350000177,,,,,,,,,,,,,,,,,,,,,,,,,,,,,,,,,,,,,,,,,,,,,,,,,,,,,,,,,,,,359.03100620000623,359.04678350000177,359.5305444999831,359.5305444999831,359.5305444999831,359.5305444999831,359.5471923999721,359.8303976999596,359.8303976999596,359.8303976999596,360.29820499999914,z,0.7662769000744447,None,360.2986344000092,360.31421059998684,361.31477669999003,361.2985990999732,,,,,,,,,,,,,,,,,,,,,,,,,,,,,,,,,,,,,,,,,,,,,,,,,,,,,,,,,,,,,,,,,,,,,,,,,,,,,,A_10,001,2024-11-29_12h03.17.919,untitled,2024.1.5,None,2024-11-29 12h03.33.311131 +0530,
triangle.png,you,1,M,,,,,,,,,19,1,77,1,,,,,,,,,361.31477669999003,,,,,,,,,,,,,,,,,,,,,,,,,,,,,,,,,,,,,,,,,,,,,,,,,,,,,,,,,,,,361.2989509999752,361.31477669999003,361.79847969999537,361.79847969999537,361.79847969999537,361.79847969999537,361.814851299976,362.09824880003,362.09824880003,362.09824880003,362.5995239999611,m,0.7955673000542447,None,362.59996450005565,362.615542500047,363.6160526999738,363.59960640000645,,,,,,,,,,,,,,,,,,,,,,,,,,,,,,,,,,,,,,,,,,,,,,,,,,,,,,,,,,,,,,,,,,,,,,,,,,,,,,A_10,001,2024-11-29_12h03.17.919,untitled,2024.1.5,None,2024-11-29 12h03.33.311131 +0530,
square.png,you,0,Z,,,,,,,,,19,2,78,2,,,,,,,,,363.6160526999738,,,,,,,,,,,,,,,,,,,,,,,,,,,,,,,,,,,,,,,,,,,,,,,,,,,,,,,,,,,,363.5999615000328,363.6160526999738,364.0995638000313,364.0995638000313,364.0995638000313,364.0995638000313,364.1161771999905,364.39956849999726,364.39956849999726,364.39956849999726,364.9005405999487,z,0.790859799948521,None,364.90098010003567,364.91663640004117,365.9170622000238,365.90061660006177,,,,,,,,,,,,,,,,,,,,,,,,,,,,,,,,,,,,,,,,,,,,,,,,,,,,,,,,,,,,,,,,,,,,,,,,,,,,,,A_10,001,2024-11-29_12h03.17.919,untitled,2024.1.5,None,2024-11-29 12h03.33.311131 +0530,
square.png,stranger,1,M,,,,,,,,,19,3,79,0,,,,,,,,,365.9170622000238,,,,,,,,,,,,,,,,,,,,,,,,,,,,,,,,,,,,,,,,,,,,,,,,,,,,,,,,,,,,365.90098170004785,365.9170622000238,366.40073100000154,366.40073100000154,366.40073100000154,366.40073100000154,366.4171945999842,366.700965099968,366.700965099968,366.700965099968,367.38518310000654,m,0.973516899975948,None,367.38564280001447,367.4010721000377,368.40161429997534,368.3853298999602,,,,,,,,,,,,,,,,,,,,,,,,,,,,,,,,,,,,,,,,,,,,,,,,,,,,,,,,,,,,,,,,,,,,,,,,,,,,,,A_10,001,2024-11-29_12h03.17.919,untitled,2024.1.5,None,2024-11-29 12h03.33.311131 +0530,
triangle.png,you,1,M,,,,,,,,,20,0,80,1,,,,,,,,,368.40161429997534,,,,,,,,,,,,,,,,,,,,,,,,,,,,,,,,,,,,,,,,,,,,,,,,,,,,,,,,,,,,368.3856866999995,368.40161429997534,368.8851024999749,368.8851024999749,368.8851024999749,368.8851024999749,368.90167349996045,369.18525179999415,369.18525179999415,369.18525179999415,369.56958360003773,m,0.669144400046207,None,369.5700256000273,369.58560360001866,370.5860009000171,370.5700483999681,,,,,,,,,,,,,,,,,,,,,,,,,,,,,,,,,,,,,,,,,,,,,,,,,,,,,,,,,,,,,,,,,,,,,,,,,,,,,,A_10,001,2024-11-29_12h03.17.919,untitled,2024.1.5,None,2024-11-29 12h03.33.311131 +0530,
square.png,stranger,1,M,,,,,,,,,20,1,81,0,,,,,,,,,370.5860009000171,,,,,,,,,,,,,,,,,,,,,,,,,,,,,,,,,,,,,,,,,,,,,,,,,,,,,,,,,,,,370.57040910003707,370.5860009000171,371.06985029997304,371.06985029997304,371.06985029997304,371.06985029997304,371.08647730003577,371.36980540002696,371.36980540002696,371.36980540002696,371.9041471000528,m,0.823768200003542,None,371.90458209998906,371.92028660001233,372.9204587000422,372.9043630999513,,,,,,,,,,,,,,,,,,,,,,,,,,,,,,,,,,,,,,,,,,,,,,,,,,,,,,,,,,,,,,,,,,,,,,,,,,,,,,A_10,001,2024-11-29_12h03.17.919,untitled,2024.1.5,None,2024-11-29 12h03.33.311131 +0530,
triangle.png,stranger,0,Z,,,,,,,,,20,2,82,3,,,,,,,,,372.9204587000422,,,,,,,,,,,,,,,,,,,,,,,,,,,,,,,,,,,,,,,,,,,,,,,,,,,,,,,,,,,,372.9047272000462,372.9204587000422,373.40430269995704,373.40430269995704,373.40430269995704,373.40430269995704,373.4211660999572,373.7041896999581,373.7041896999581,373.7041896999581,373.93864189996384,z,0.5331159000052139,None,373.93907500000205,373.9543085000478,374.95495379995555,374.9386910999892,,,,,,,,,,,,,,,,,,,,,,,,,,,,,,,,,,,,,,,,,,,,,,,,,,,,,,,,,,,,,,,,,,,,,,,,,,,,,,A_10,001,2024-11-29_12h03.17.919,untitled,2024.1.5,None,2024-11-29 12h03.33.311131 +0530,
square.png,you,0,Z,,,,,,,,,20,3,83,2,,,,,,,,,374.95495379995555,,,,,,,,,,,,,,,,,,,,,,,,,,,,,,,,,,,,,,,,,,,,,,,,,,,,,,,,,,,,374.9390464000171,374.95495379995555,375.4385522999801,375.4385522999801,375.4385522999801,375.4385522999801,375.45577909995336,375.73862940003164,375.73862940003164,375.73862940003164,376.4566791000543,z,1.0077251000329852,None,376.4571169000119,376.47255880001467,377.472824400058,377.4566339000594,,,,,,,,,,,,,,,,,,,,,,,,,,,,,,,,,,,,,,,,,,,,,,,,,,,,,,,,,,,,,,,,,,,,,,,,,,,,,,A_10,001,2024-11-29_12h03.17.919,untitled,2024.1.5,None,2024-11-29 12h03.33.311131 +0530,
triangle.png,stranger,0,Z,,,,,,,,,21,0,84,3,,,,,,,,,377.472824400058,,,,,,,,,,,,,,,,,,,,,,,,,,,,,,,,,,,,,,,,,,,,,,,,,,,,,,,,,,,,377.45699720003176,377.472824400058,377.9570724000223,377.9570724000223,377.9570724000223,377.9570724000223,377.9733356999932,378.25669279997237,378.25669279997237,378.25669279997237,378.49090249999426,m,0.5244415999623016,None,378.4913432999747,378.5069015000481,379.50727990001906,379.49129759997595,,,,,,,,,,,,,,,,,,,,,,,,,,,,,,,,,,,,,,,,,,,,,,,,,,,,,,,,,,,,,,,,,,,,,,,,,,,,,,A_10,001,2024-11-29_12h03.17.919,untitled,2024.1.5,None,2024-11-29 12h03.33.311131 +0530,
square.png,stranger,1,M,,,,,,,,,21,1,85,0,,,,,,,,,379.50727990001906,,,,,,,,,,,,,,,,,,,,,,,,,,,,,,,,,,,,,,,,,,,,,,,,,,,,,,,,,,,,379.4916590000503,379.50727990001906,379.9910823999671,379.9910823999671,379.9910823999671,379.9910823999671,380.00782319996506,380.29091620002873,380.29091620002873,380.29091620002873,380.87518380000256,m,0.8828229000791907,None,380.87563510006294,380.8913279999979,381.89202070003375,381.87574140005745,,,,,,,,,,,,,,,,,,,,,,,,,,,,,,,,,,,,,,,,,,,,,,,,,,,,,,,,,,,,,,,,,,,,,,,,,,,,,,A_10,001,2024-11-29_12h03.17.919,untitled,2024.1.5,None,2024-11-29 12h03.33.311131 +0530,
square.png,you,0,Z,,,,,,,,,21,2,86,2,,,,,,,,,381.89202070003375,,,,,,,,,,,,,,,,,,,,,,,,,,,,,,,,,,,,,,,,,,,,,,,,,,,,,,,,,,,,381.8760964999674,381.89202070003375,382.3754521999508,382.3754521999508,382.3754521999508,382.3754521999508,382.39210810000077,382.6757705999771,382.6757705999771,382.6757705999771,383.16001949994825,z,0.7774022999219596,None,383.1604556000093,383.1758356000064,384.1764592999825,384.1603943000082,,,,,,,,,,,,,,,,,,,,,,,,,,,,,,,,,,,,,,,,,,,,,,,,,,,,,,,,,,,,,,,,,,,,,,,,,,,,,,A_10,001,2024-11-29_12h03.17.919,untitled,2024.1.5,None,2024-11-29 12h03.33.311131 +0530,
triangle.png,you,1,M,,,,,,,,,21,3,87,1,,,,,,,,,384.1764592999825,,,,,,,,,,,,,,,,,,,,,,,,,,,,,,,,,,,,,,,,,,,,,,,,,,,,,,,,,,,,384.16075230005663,384.1764592999825,384.6603042000206,384.6603042000206,384.6603042000206,384.6603042000206,384.67692929995246,384.9599821000593,384.9599821000593,384.9599821000593,385.2612088000169,m,0.5965952000115067,None,385.2616404000437,385.27688150003087,386.27748749998864,386.2612293000566,,,,,,,,,,,,,,,,,,,,,,,,,,,,,,,,,,,,,,,,,,,,,,,,,,,,,,,,,,,,,,,,,,,,,,,,,,,,,,A_10,001,2024-11-29_12h03.17.919,untitled,2024.1.5,None,2024-11-29 12h03.33.311131 +0530,
triangle.png,stranger,0,Z,,,,,,,,,22,0,88,3,,,,,,,,,386.27748749998864,,,,,,,,,,,,,,,,,,,,,,,,,,,,,,,,,,,,,,,,,,,,,,,,,,,,,,,,,,,,386.2615936000366,386.27748749998864,386.76144689996727,386.76144689996727,386.76144689996727,386.76144689996727,386.7779213000322,387.06113200006075,387.06113200006075,387.06113200006075,387.61241209995933,z,0.8447796999244019,None,387.6128441999899,387.62819119996857,388.62883629999124,388.61239400005434,,,,,,,,,,,,,,,,,,,,,,,,,,,,,,,,,,,,,,,,,,,,,,,,,,,,,,,,,,,,,,,,,,,,,,,,,,,,,,A_10,001,2024-11-29_12h03.17.919,untitled,2024.1.5,None,2024-11-29 12h03.33.311131 +0530,
square.png,stranger,1,M,,,,,,,,,22,1,89,0,,,,,,,,,388.62883629999124,,,,,,,,,,,,,,,,,,,,,,,,,,,,,,,,,,,,,,,,,,,,,,,,,,,,,,,,,,,,388.61274450004566,388.62883629999124,389.1124133999692,389.1124133999692,389.1124133999692,389.1124133999692,389.1290837000124,389.41252480004914,389.41252480004914,389.41252480004914,389.94688309996855,m,0.8249979000538588,None,389.9473215000471,389.962905399967,390.9634477000218,390.94724819995463,,,,,,,,,,,,,,,,,,,,,,,,,,,,,,,,,,,,,,,,,,,,,,,,,,,,,,,,,,,,,,,,,,,,,,,,,,,,,,A_10,001,2024-11-29_12h03.17.919,untitled,2024.1.5,None,2024-11-29 12h03.33.311131 +0530,
triangle.png,you,1,M,,,,,,,,,22,2,90,1,,,,,,,,,390.9634477000218,,,,,,,,,,,,,,,,,,,,,,,,,,,,,,,,,,,,,,,,,,,,,,,,,,,,,,,,,,,,390.9476013999665,390.9634477000218,391.44686799997,391.44686799997,391.44686799997,391.44686799997,391.4637269000523,391.7469684999669,391.7469684999669,391.7469684999669,392.1979543999769,m,0.7434910000301898,None,392.19839559996035,392.21402319998015,393.21444769995287,393.19809439999517,,,,,,,,,,,,,,,,,,,,,,,,,,,,,,,,,,,,,,,,,,,,,,,,,,,,,,,,,,,,,,,,,,,,,,,,,,,,,,A_10,001,2024-11-29_12h03.17.919,untitled,2024.1.5,None,2024-11-29 12h03.33.311131 +0530,
square.png,you,0,Z,,,,,,,,,22,3,91,2,,,,,,,,,393.21444769995287,,,,,,,,,,,,,,,,,,,,,,,,,,,,,,,,,,,,,,,,,,,,,,,,,,,,,,,,,,,,393.19845639995765,393.21444769995287,393.69820550002623,393.69820550002623,393.69820550002623,393.69820550002623,393.7146417000331,393.99811150005553,393.99811150005553,393.99811150005553,394.4157716999762,z,0.7114298000233248,None,394.4162258000579,394.43154919997323,395.43233990005683,395.41598629998043,,,,,,,,,,,,,,,,,,,,,,,,,,,,,,,,,,,,,,,,,,,,,,,,,,,,,,,,,,,,,,,,,,,,,,,,,,,,,,A_10,001,2024-11-29_12h03.17.919,untitled,2024.1.5,None,2024-11-29 12h03.33.311131 +0530,
square.png,stranger,1,M,,,,,,,,,23,0,92,0,,,,,,,,,395.43233990005683,,,,,,,,,,,,,,,,,,,,,,,,,,,,,,,,,,,,,,,,,,,,,,,,,,,,,,,,,,,,395.4163470000494,395.43233990005683,395.9161753000226,395.9161753000226,395.9161753000226,395.9161753000226,395.93261789996177,396.21593569999095,396.21593569999095,396.21593569999095,396.73379920003936,m,0.8054150999523699,None,396.73423719999846,396.74973160005175,397.74998049996793,397.7341739999829,,,,,,,,,,,,,,,,,,,,,,,,,,,,,,,,,,,,,,,,,,,,,,,,,,,,,,,,,,,,,,,,,,,,,,,,,,,,,,A_10,001,2024-11-29_12h03.17.919,untitled,2024.1.5,None,2024-11-29 12h03.33.311131 +0530,
triangle.png,you,1,M,,,,,,,,,23,1,93,1,,,,,,,,,397.74998049996793,,,,,,,,,,,,,,,,,,,,,,,,,,,,,,,,,,,,,,,,,,,,,,,,,,,,,,,,,,,,397.73453480005264,397.74998049996793,398.2337051000213,398.2337051000213,398.2337051000213,398.2337051000213,398.25033179996535,398.5337213999592,398.5337213999592,398.5337213999592,398.884714600048,m,0.6404226999729872,None,398.8851542000193,398.90079590003006,399.9012919999659,399.8847470000619,,,,,,,,,,,,,,,,,,,,,,,,,,,,,,,,,,,,,,,,,,,,,,,,,,,,,,,,,,,,,,,,,,,,,,,,,,,,,,A_10,001,2024-11-29_12h03.17.919,untitled,2024.1.5,None,2024-11-29 12h03.33.311131 +0530,
square.png,you,0,Z,,,,,,,,,23,2,94,2,,,,,,,,,399.9012919999659,,,,,,,,,,,,,,,,,,,,,,,,,,,,,,,,,,,,,,,,,,,,,,,,,,,,,,,,,,,,399.88510810001753,399.9012919999659,400.3847907000454,400.3847907000454,400.3847907000454,400.3847907000454,400.4013662999496,400.6849989000475,400.6849989000475,400.6849989000475,401.2024960999843,z,0.8047240999294445,None,401.2029325000476,401.218610299984,402.21900389995426,402.2028776999796,,,,,,,,,,,,,,,,,,,,,,,,,,,,,,,,,,,,,,,,,,,,,,,,,,,,,,,,,,,,,,,,,,,,,,,,,,,,,,A_10,001,2024-11-29_12h03.17.919,untitled,2024.1.5,None,2024-11-29 12h03.33.311131 +0530,
triangle.png,stranger,0,Z,,,,,,,,,23,3,95,3,,,,,,,,,402.21900389995426,,,,,,,,,,,,,,,,,,,,,,,,,,,,,,,,,,,,,,,,,,,,,,,,,,,,,,,,,,,,402.20323119999375,402.21900389995426,402.7027210999513,402.7027210999513,402.7027210999513,402.7027210999513,402.7194347999757,403.00287540000863,403.00287540000863,403.00287540000863,403.72062739997637,z,1.015063399914652,None,403.721078600036,403.7364538999973,404.7370386000257,404.7209254000336,,,,,,,,,,,,,,,,,,,,,,,,,,,,,,,,,,,,,,,,,,,,,,,,,,,,,,,,,,,,,,,,,,,,,,,,,,,,,,A_10,001,2024-11-29_12h03.17.919,untitled,2024.1.5,None,2024-11-29 12h03.33.311131 +0530,
square.png,stranger,1,M,,,,,,,,,24,0,96,0,,,,,,,,,404.7370386000257,,,,,,,,,,,,,,,,,,,,,,,,,,,,,,,,,,,,,,,,,,,,,,,,,,,,,,,,,,,,404.7212851999793,404.7370386000257,405.2206852999516,405.2206852999516,405.2206852999516,405.2206852999516,405.23761640000157,405.5206498999614,405.5206498999614,405.5206498999614,405.88822079997044,m,0.6608539998997003,None,405.8886664999882,405.9043369999854,406.90493159997277,406.8886329999659,,,,,,,,,,,,,,,,,,,,,,,,,,,,,,,,,,,,,,,,,,,,,,,,,,,,,,,,,,,,,,,,,,,,,,,,,,,,,,A_10,001,2024-11-29_12h03.17.919,untitled,2024.1.5,None,2024-11-29 12h03.33.311131 +0530,
triangle.png,stranger,0,Z,,,,,,,,,24,1,97,3,,,,,,,,,406.90493159997277,,,,,,,,,,,,,,,,,,,,,,,,,,,,,,,,,,,,,,,,,,,,,,,,,,,,,,,,,,,,406.8889935000334,406.90493159997277,407.3882974999724,407.3882974999724,407.3882974999724,407.3882974999724,407.40513610001653,407.68855129997246,407.68855129997246,407.68855129997246,408.0724886000389,z,0.6691177000757307,None,408.07293250004295,408.0888477000408,409.0894027999602,409.07296639995184,,,,,,,,,,,,,,,,,,,,,,,,,,,,,,,,,,,,,,,,,,,,,,,,,,,,,,,,,,,,,,,,,,,,,,,,,,,,,,A_10,001,2024-11-29_12h03.17.919,untitled,2024.1.5,None,2024-11-29 12h03.33.311131 +0530,
square.png,you,0,Z,,,,,,,,,24,2,98,2,,,,,,,,,409.0894027999602,,,,,,,,,,,,,,,,,,,,,,,,,,,,,,,,,,,,,,,,,,,,,,,,,,,,,,,,,,,,409.0733300000429,409.0894027999602,409.5730977000203,409.5730977000203,409.5730977000203,409.5730977000203,409.5894331999589,409.8731680000201,409.8731680000201,409.8731680000201,410.4073382000206,z,0.8199361000442877,None,410.4077806000132,410.42345080000814,411.42374750005547,411.4073974000057,,,,,,,,,,,,,,,,,,,,,,,,,,,,,,,,,,,,,,,,,,,,,,,,,,,,,,,,,,,,,,,,,,,,,,,,,,,,,,A_10,001,2024-11-29_12h03.17.919,untitled,2024.1.5,None,2024-11-29 12h03.33.311131 +0530,
triangle.png,you,1,M,,,,,,,,,24,3,99,1,,,,,,,,,411.42374750005547,,,,,,,,,,,,,,,,,,,,,,,,,,,,,,,,,,,,,,,,,,,,,,,,,,,,,,,,,,,,411.40775749995373,411.42374750005547,411.9073185999878,411.9073185999878,411.9073185999878,411.9073185999878,411.9241335999686,412.2071508000372,412.2071508000372,412.2071508000372,412.37490110006183,m,0.4590242999838665,None,412.3753448999487,412.3909490000224,413.39145380002446,413.37533339997754,,,,,,,,,,,,,,,,,,,,,,,,,,,,,,,,,,,,,,,,,,,,,,,,,,,,,,,,,,,,,,,,,,,,,,,,,,,,,,A_10,001,2024-11-29_12h03.17.919,untitled,2024.1.5,None,2024-11-29 12h03.33.311131 +0530,
triangle.png,you,1,M,,,,,,,,,25,0,100,1,,,,,,,,,413.39145380002446,,,,,,,,,,,,,,,,,,,,,,,,,,,,,,,,,,,,,,,,,,,,,,,,,,,,,,,,,,,,413.37569350004196,413.39145380002446,413.87522519996855,413.87522519996855,413.87522519996855,413.87522519996855,413.89183730003424,414.1751944000134,414.1751944000134,414.1751944000134,414.5258982999949,m,0.6386659999843687,None,414.5263425000012,414.5420482000336,415.5427520000376,415.5262909999583,,,,,,,,,,,,,,,,,,,,,,,,,,,,,,,,,,,,,,,,,,,,,,,,,,,,,,,,,,,,,,,,,,,,,,,,,,,,,,A_10,001,2024-11-29_12h03.17.919,untitled,2024.1.5,None,2024-11-29 12h03.33.311131 +0530,
square.png,stranger,1,M,,,,,,,,,25,1,101,0,,,,,,,,,415.5427520000376,,,,,,,,,,,,,,,,,,,,,,,,,,,,,,,,,,,,,,,,,,,,,,,,,,,,,,,,,,,,415.52664659998845,415.5427520000376,416.026578500052,416.026578500052,416.026578500052,416.026578500052,416.0428788999561,416.3263327999739,416.3263327999739,416.3263327999739,416.6439153000247,z,0.6110305999172851,None,416.64435519999824,416.65978330001235,417.66026330005843,417.64420780004,,,,,,,,,,,,,,,,,,,,,,,,,,,,,,,,,,,,,,,,,,,,,,,,,,,,,,,,,,,,,,,,,,,,,,,,,,,,,,A_10,001,2024-11-29_12h03.17.919,untitled,2024.1.5,None,2024-11-29 12h03.33.311131 +0530,
triangle.png,stranger,0,Z,,,,,,,,,25,2,102,3,,,,,,,,,417.66026330005843,,,,,,,,,,,,,,,,,,,,,,,,,,,,,,,,,,,,,,,,,,,,,,,,,,,,,,,,,,,,417.64457360003144,417.66026330005843,418.14412880002055,418.14412880002055,418.14412880002055,418.14412880002055,418.1608795999782,418.4442336000502,418.4442336000502,418.4442336000502,418.99504369997885,m,0.838139700004831,None,418.9954890999943,419.011030600057,420.0113841999555,419.99526959995274,,,,,,,,,,,,,,,,,,,,,,,,,,,,,,,,,,,,,,,,,,,,,,,,,,,,,,,,,,,,,,,,,,,,,,,,,,,,,,A_10,001,2024-11-29_12h03.17.919,untitled,2024.1.5,None,2024-11-29 12h03.33.311131 +0530,
square.png,you,0,Z,,,,,,,,,25,3,103,2,,,,,,,,,420.0113841999555,,,,,,,,,,,,,,,,,,,,,,,,,,,,,,,,,,,,,,,,,,,,,,,,,,,,,,,,,,,,419.9956278000027,420.0113841999555,420.4951653999742,420.4951653999742,420.4951653999742,420.4951653999742,420.51167849998455,420.795267199981,420.795267199981,420.795267199981,421.29628630005755,z,0.7944767000153661,None,421.29672400001436,421.3121057000244,422.31262250000145,422.2965989999939,,,,,,,,,,,,,,,,,,,,,,,,,,,,,,,,,,,,,,,,,,,,,,,,,,,,,,,,,,,,,,,,,,,,,,,,,,,,,,A_10,001,2024-11-29_12h03.17.919,untitled,2024.1.5,None,2024-11-29 12h03.33.311131 +0530,
square.png,you,0,Z,,,,,,,,,26,0,104,2,,,,,,,,,422.31262250000145,,,,,,,,,,,,,,,,,,,,,,,,,,,,,,,,,,,,,,,,,,,,,,,,,,,,,,,,,,,,422.2969545000233,422.31262250000145,422.7962041000137,422.7962041000137,422.7962041000137,422.7962041000137,422.81309469998814,423.0963404000504,423.0963404000504,423.0963404000504,423.8806953000603,None,,,423.8809086000547,423.89709380001295,424.89751040004194,424.8810680999886,423.89709380001295,,,,,,,,,,,,,,,,,,,,,,,,,,,,,,,,,,,,,,,,,,,,,,,,,,,,,,,,,,,,,,,,,,,,,,,,,,,,,A_10,001,2024-11-29_12h03.17.919,untitled,2024.1.5,None,2024-11-29 12h03.33.311131 +0530,
square.png,stranger,1,M,,,,,,,,,26,1,105,0,,,,,,,,,424.89751040004194,,,,,,,,,,,,,,,,,,,,,,,,,,,,,,,,,,,,,,,,,,,,,,,,,,,,,,,,,,,,424.8814231000142,424.89751040004194,425.39811810001265,425.39811810001265,425.39811810001265,425.39811810001265,425.39811810001265,425.69788720004726,425.69788720004726,425.69788720004726,426.03196259995457,z,0.6273286000359803,None,426.0324011000339,426.04816510004457,427.0486957000103,427.0323748999508,,,,,,,,,,,,,,,,,,,,,,,,,,,,,,,,,,,,,,,,,,,,,,,,,,,,,,,,,,,,,,,,,,,,,,,,,,,,,,A_10,001,2024-11-29_12h03.17.919,untitled,2024.1.5,None,2024-11-29 12h03.33.311131 +0530,
triangle.png,you,1,M,,,,,,,,,26,2,106,1,,,,,,,,,427.0486957000103,,,,,,,,,,,,,,,,,,,,,,,,,,,,,,,,,,,,,,,,,,,,,,,,,,,,,,,,,,,,427.0327269999543,427.0486957000103,427.53210369998123,427.53210369998123,427.53210369998123,427.53210369998123,427.54901840002276,427.8321060000453,427.8321060000453,427.8321060000453,428.08298840001225,m,0.5446934000356123,None,428.08343140000943,428.0993369000498,429.09939840005245,429.08324900001753,,,,,,,,,,,,,,,,,,,,,,,,,,,,,,,,,,,,,,,,,,,,,,,,,,,,,,,,,,,,,,,,,,,,,,,,,,,,,,A_10,001,2024-11-29_12h03.17.919,untitled,2024.1.5,None,2024-11-29 12h03.33.311131 +0530,
triangle.png,stranger,0,Z,,,,,,,,,26,3,107,3,,,,,,,,,429.09939840005245,,,,,,,,,,,,,,,,,,,,,,,,,,,,,,,,,,,,,,,,,,,,,,,,,,,,,,,,,,,,429.08360080001876,429.09939840005245,429.58316639997065,429.58316639997065,429.58316639997065,429.58316639997065,429.59987260005437,429.8831409000559,429.8831409000559,429.8831409000559,430.33404970006086,z,0.7429389000171795,None,430.33453200000804,430.35014690004755,431.3506398999598,431.3341244000476,,,,,,,,,,,,,,,,,,,,,,,,,,,,,,,,,,,,,,,,,,,,,,,,,,,,,,,,,,,,,,,,,,,,,,,,,,,,,,A_10,001,2024-11-29_12h03.17.919,untitled,2024.1.5,None,2024-11-29 12h03.33.311131 +0530,
square.png,stranger,1,M,,,,,,,,,27,0,108,0,,,,,,,,,431.3506398999598,,,,,,,,,,,,,,,,,,,,,,,,,,,,,,,,,,,,,,,,,,,,,,,,,,,,,,,,,,,,431.33449859998655,431.3506398999598,431.8344441000372,431.8344441000372,431.8344441000372,431.8344441000372,431.85109570005443,432.1344547000481,432.1344547000481,432.1344547000481,432.7186880999943,m,0.8783860999392346,None,432.71913199999835,432.73467959999107,433.73520150000695,433.7188858999871,,,,,,,,,,,,,,,,,,,,,,,,,,,,,,,,,,,,,,,,,,,,,,,,,,,,,,,,,,,,,,,,,,,,,,,,,,,,,,A_10,001,2024-11-29_12h03.17.919,untitled,2024.1.5,None,2024-11-29 12h03.33.311131 +0530,
triangle.png,you,1,M,,,,,,,,,27,1,109,1,,,,,,,,,433.73520150000695,,,,,,,,,,,,,,,,,,,,,,,,,,,,,,,,,,,,,,,,,,,,,,,,,,,,,,,,,,,,433.71924510004465,433.73520150000695,434.21875530004036,434.21875530004036,434.21875530004036,434.21875530004036,434.2355927999597,434.51903309999034,434.51903309999034,434.51903309999034,434.78654110000934,z,0.55523199995514,None,434.78698890004307,434.802365200012,435.80293939996045,435.7868835000554,,,,,,,,,,,,,,,,,,,,,,,,,,,,,,,,,,,,,,,,,,,,,,,,,,,,,,,,,,,,,,,,,,,,,,,,,,,,,,A_10,001,2024-11-29_12h03.17.919,untitled,2024.1.5,None,2024-11-29 12h03.33.311131 +0530,
triangle.png,stranger,0,Z,,,,,,,,,27,2,110,3,,,,,,,,,435.80293939996045,,,,,,,,,,,,,,,,,,,,,,,,,,,,,,,,,,,,,,,,,,,,,,,,,,,,,,,,,,,,435.787244200008,435.80293939996045,436.2868939000182,436.2868939000182,436.2868939000182,436.2868939000182,436.3032629999798,436.5866743000224,436.5866743000224,436.5866743000224,437.0375908999704,z,0.747547599952668,None,437.0380220999941,437.05370060005225,438.05413399997633,438.03791389998514,,,,,,,,,,,,,,,,,,,,,,,,,,,,,,,,,,,,,,,,,,,,,,,,,,,,,,,,,,,,,,,,,,,,,,,,,,,,,,A_10,001,2024-11-29_12h03.17.919,untitled,2024.1.5,None,2024-11-29 12h03.33.311131 +0530,
square.png,you,0,Z,,,,,,,,,27,3,111,2,,,,,,,,,438.05413399997633,,,,,,,,,,,,,,,,,,,,,,,,,,,,,,,,,,,,,,,,,,,,,,,,,,,,,,,,,,,,438.038281599991,438.05413399997633,438.53774289996363,438.53774289996363,438.53774289996363,438.53774289996363,438.5542904000031,438.8376692000311,438.8376692000311,438.8376692000311,439.1887147000525,m,0.639865699922666,None,439.1891620999668,439.2045256999554,440.20515479997266,440.1891266000457,,,,,,,,,,,,,,,,,,,,,,,,,,,,,,,,,,,,,,,,,,,,,,,,,,,,,,,,,,,,,,,,,,,,,,,,,,,,,,A_10,001,2024-11-29_12h03.17.919,untitled,2024.1.5,None,2024-11-29 12h03.33.311131 +0530,
square.png,stranger,1,M,,,,,,,,,28,0,112,0,,,,,,,,,440.20515479997266,,,,,,,,,,,,,,,,,,,,,,,,,,,,,,,,,,,,,,,,,,,,,,,,,,,,,,,,,,,,440.1894906000234,440.20515479997266,440.6889106000308,440.6889106000308,440.6889106000308,440.6889106000308,440.70562420005444,440.98885710001923,440.98885710001923,440.98885710001923,441.5900054000085,m,0.8887547999620438,None,441.59045530005824,441.60605099995155,442.60650270001497,442.5900217000162,,,,,,,,,,,,,,,,,,,,,,,,,,,,,,,,,,,,,,,,,,,,,,,,,,,,,,,,,,,,,,,,,,,,,,,,,,,,,,A_10,001,2024-11-29_12h03.17.919,untitled,2024.1.5,None,2024-11-29 12h03.33.311131 +0530,
triangle.png,you,1,M,,,,,,,,,28,1,113,1,,,,,,,,,442.60650270001497,,,,,,,,,,,,,,,,,,,,,,,,,,,,,,,,,,,,,,,,,,,,,,,,,,,,,,,,,,,,442.59038119995967,442.60650270001497,443.09017119999044,443.09017119999044,443.09017119999044,443.09017119999044,443.10691019997466,443.39006720006,443.39006720006,443.39006720006,443.59116179996636,m,0.48754070000723004,None,443.5916315000504,443.60702120000497,444.60757670004386,444.5912200000603,,,,,,,,,,,,,,,,,,,,,,,,,,,,,,,,,,,,,,,,,,,,,,,,,,,,,,,,,,,,,,,,,,,,,,,,,,,,,,A_10,001,2024-11-29_12h03.17.919,untitled,2024.1.5,None,2024-11-29 12h03.33.311131 +0530,
triangle.png,stranger,0,Z,,,,,,,,,28,2,114,3,,,,,,,,,444.60757670004386,,,,,,,,,,,,,,,,,,,,,,,,,,,,,,,,,,,,,,,,,,,,,,,,,,,,,,,,,,,,444.5915822000243,444.60757670004386,445.0913797999965,445.0913797999965,445.0913797999965,445.0913797999965,445.10773249994963,445.3911779000191,445.3911779000191,445.3911779000191,445.708783900016,z,0.6095004000235349,None,445.7092164000496,445.7247328000376,446.7250471999869,446.7088587000035,,,,,,,,,,,,,,,,,,,,,,,,,,,,,,,,,,,,,,,,,,,,,,,,,,,,,,,,,,,,,,,,,,,,,,,,,,,,,,A_10,001,2024-11-29_12h03.17.919,untitled,2024.1.5,None,2024-11-29 12h03.33.311131 +0530,
square.png,you,0,Z,,,,,,,,,28,3,115,2,,,,,,,,,446.7250471999869,,,,,,,,,,,,,,,,,,,,,,,,,,,,,,,,,,,,,,,,,,,,,,,,,,,,,,,,,,,,446.7092258000048,446.7250471999869,447.2088673999533,447.2088673999533,447.2088673999533,447.2088673999533,447.22567960002925,447.50914119998924,447.50914119998924,447.50914119998924,447.776528300019,m,0.5521911999676377,None,447.7769704000093,447.7922840999672,448.7930435000453,448.7767972999718,,,,,,,,,,,,,,,,,,,,,,,,,,,,,,,,,,,,,,,,,,,,,,,,,,,,,,,,,,,,,,,,,,,,,,,,,,,,,,A_10,001,2024-11-29_12h03.17.919,untitled,2024.1.5,None,2024-11-29 12h03.33.311131 +0530,
square.png,you,0,Z,,,,,,,,,29,0,116,2,,,,,,,,,448.7930435000453,,,,,,,,,,,,,,,,,,,,,,,,,,,,,,,,,,,,,,,,,,,,,,,,,,,,,,,,,,,,448.77716509997845,448.7930435000453,449.276736699976,449.276736699976,449.276736699976,449.276736699976,449.2934265000513,449.57687390001956,449.57687390001956,449.57687390001956,449.9610869999742,m,0.6762042000191286,None,449.9615243000444,449.9768677999964,450.977649700013,450.9611304999562,,,,,,,,,,,,,,,,,,,,,,,,,,,,,,,,,,,,,,,,,,,,,,,,,,,,,,,,,,,,,,,,,,,,,,,,,,,,,,A_10,001,2024-11-29_12h03.17.919,untitled,2024.1.5,None,2024-11-29 12h03.33.311131 +0530,
triangle.png,stranger,0,Z,,,,,,,,,29,1,117,3,,,,,,,,,450.977649700013,,,,,,,,,,,,,,,,,,,,,,,,,,,,,,,,,,,,,,,,,,,,,,,,,,,,,,,,,,,,450.96148399997037,450.977649700013,451.4610953000374,451.4610953000374,451.4610953000374,451.4610953000374,451.4777023999486,451.76118589995895,451.76118589995895,451.76118589995895,452.0121870000148,m,0.5445076000178233,None,452.0126242999686,452.0279940000037,453.0285685999552,453.0123860000167,,,,,,,,,,,,,,,,,,,,,,,,,,,,,,,,,,,,,,,,,,,,,,,,,,,,,,,,,,,,,,,,,,,,,,,,,,,,,,A_10,001,2024-11-29_12h03.17.919,untitled,2024.1.5,None,2024-11-29 12h03.33.311131 +0530,
square.png,stranger,1,M,,,,,,,,,29,2,118,0,,,,,,,,,453.0285685999552,,,,,,,,,,,,,,,,,,,,,,,,,,,,,,,,,,,,,,,,,,,,,,,,,,,,,,,,,,,,453.01273850002326,453.0285685999552,453.51213960000314,453.51213960000314,453.51213960000314,453.51213960000314,453.5287723999936,453.81225590000395,453.81225590000395,453.81225590000395,454.53000799997244,m,1.012721800012514,None,454.5304927000543,454.5457456000149,455.5465939999558,455.5301752999658,,,,,,,,,,,,,,,,,,,,,,,,,,,,,,,,,,,,,,,,,,,,,,,,,,,,,,,,,,,,,,,,,,,,,,,,,,,,,,A_10,001,2024-11-29_12h03.17.919,untitled,2024.1.5,None,2024-11-29 12h03.33.311131 +0530,
triangle.png,you,1,M,,,,,,,,,29,3,119,1,,,,,,,,,455.5465939999558,,,,,,,,,,,,,,,,,,,,,,,,,,,,,,,,,,,,,,,,,,,,,,,,,,,,,,,,,,,,455.5305272999685,455.5465939999558,456.0300222999649,456.0300222999649,456.0300222999649,456.0300222999649,456.04679599998053,456.33024769998156,456.33024769998156,456.33024769998156,456.731265099952,m,0.6881354000652209,None,456.7317240999546,456.74717019998934,457.74764339998364,457.7313928999938,,,,,,,,,,,,,,,,,,,,,,,,,,,,,,,,,,,,,,,,,,,,,,,,,,,,,,,,,,,,,,,,,,,,,,,,,,,,,,A_10,001,2024-11-29_12h03.17.919,untitled,2024.1.5,None,2024-11-29 12h03.33.311131 +0530,
triangle.png,you,1,M,,,,,,,,,30,0,120,1,,,,,,,,,457.74764339998364,,,,,,,,,,,,,,,,,,,,,,,,,,,,,,,,,,,,,,,,,,,,,,,,,,,,,,,,,,,,457.73176770005375,457.74764339998364,458.231542399968,458.231542399968,458.231542399968,458.231542399968,458.247863000026,458.5314729999518,458.5314729999518,458.5314729999518,458.96548809995875,m,0.7304762999992818,None,458.96592460002284,458.9815839000512,459.9820431000553,459.96565140003804,,,,,,,,,,,,,,,,,,,,,,,,,,,,,,,,,,,,,,,,,,,,,,,,,,,,,,,,,,,,,,,,,,,,,,,,,,,,,,A_10,001,2024-11-29_12h03.17.919,untitled,2024.1.5,None,2024-11-29 12h03.33.311131 +0530,
triangle.png,stranger,0,Z,,,,,,,,,30,1,121,3,,,,,,,,,459.9820431000553,,,,,,,,,,,,,,,,,,,,,,,,,,,,,,,,,,,,,,,,,,,,,,,,,,,,,,,,,,,,459.96602619998157,459.9820431000553,460.46571190003306,460.46571190003306,460.46571190003306,460.46571190003306,460.48233150003944,460.76580359996296,460.76580359996296,460.76580359996296,461.11649269994814,m,0.644124099984765,None,461.1169313000282,461.1325103000272,462.1331232000375,462.1168732000515,,,,,,,,,,,,,,,,,,,,,,,,,,,,,,,,,,,,,,,,,,,,,,,,,,,,,,,,,,,,,,,,,,,,,,,,,,,,,,A_10,001,2024-11-29_12h03.17.919,untitled,2024.1.5,None,2024-11-29 12h03.33.311131 +0530,
square.png,stranger,1,M,,,,,,,,,30,2,122,0,,,,,,,,,462.1331232000375,,,,,,,,,,,,,,,,,,,,,,,,,,,,,,,,,,,,,,,,,,,,,,,,,,,,,,,,,,,,462.11722899996676,462.1331232000375,462.61682150000706,462.61682150000706,462.61682150000706,462.61682150000706,462.63348920003045,462.91687009995803,462.91687009995803,462.91687009995803,463.2678549999837,m,0.6373178999638185,None,463.2683568999637,463.2838162999833,464.2843947999645,464.2681941000046,,,,,,,,,,,,,,,,,,,,,,,,,,,,,,,,,,,,,,,,,,,,,,,,,,,,,,,,,,,,,,,,,,,,,,,,,,,,,,A_10,001,2024-11-29_12h03.17.919,untitled,2024.1.5,None,2024-11-29 12h03.33.311131 +0530,
square.png,you,0,Z,,,,,,,,,30,3,123,2,,,,,,,,,464.2843947999645,,,,,,,,,,,,,,,,,,,,,,,,,,,,,,,,,,,,,,,,,,,,,,,,,,,,,,,,,,,,464.2685518000508,464.2843947999645,464.7678958000615,464.7678958000615,464.7678958000615,464.7678958000615,464.78442729997914,465.06799210002646,465.06799210002646,465.06799210002646,465.4187625000486,m,0.6381905999733135,None,465.41920480004046,465.434723900049,466.435510899988,466.4192553999601,,,,,,,,,,,,,,,,,,,,,,,,,,,,,,,,,,,,,,,,,,,,,,,,,,,,,,,,,,,,,,,,,,,,,,,,,,,,,,A_10,001,2024-11-29_12h03.17.919,untitled,2024.1.5,None,2024-11-29 12h03.33.311131 +0530,
triangle.png,you,1,M,,,,,,,,,31,0,124,1,,,,,,,,,466.435510899988,,,,,,,,,,,,,,,,,,,,,,,,,,,,,,,,,,,,,,,,,,,,,,,,,,,,,,,,,,,,466.41960969998036,466.435510899988,466.91889560001437,466.91889560001437,466.91889560001437,466.91889560001437,466.93574129999615,467.21898220002186,467.21898220002186,467.21898220002186,467.36986700003035,m,0.43876180006191134,None,467.37029959994834,467.3859562999569,468.38642810005695,468.3702627000166,,,,,,,,,,,,,,,,,,,,,,,,,,,,,,,,,,,,,,,,,,,,,,,,,,,,,,,,,,,,,,,,,,,,,,,,,,,,,,A_10,001,2024-11-29_12h03.17.919,untitled,2024.1.5,None,2024-11-29 12h03.33.311131 +0530,
square.png,you,0,Z,,,,,,,,,31,1,125,2,,,,,,,,,468.38642810005695,,,,,,,,,,,,,,,,,,,,,,,,,,,,,,,,,,,,,,,,,,,,,,,,,,,,,,,,,,,,468.3706205000635,468.38642810005695,468.86978059995454,468.86978059995454,468.86978059995454,468.86978059995454,468.8864354999969,469.170004399959,469.170004399959,469.170004399959,469.2374857000541,m,0.36062689998652786,None,469.2379311999539,469.2534481000621,470.25400810001884,470.23798880004324,,,,,,,,,,,,,,,,,,,,,,,,,,,,,,,,,,,,,,,,,,,,,,,,,,,,,,,,,,,,,,,,,,,,,,,,,,,,,,A_10,001,2024-11-29_12h03.17.919,untitled,2024.1.5,None,2024-11-29 12h03.33.311131 +0530,
square.png,stranger,1,M,,,,,,,,,31,2,126,0,,,,,,,,,470.25400810001884,,,,,,,,,,,,,,,,,,,,,,,,,,,,,,,,,,,,,,,,,,,,,,,,,,,,,,,,,,,,470.2383438999532,470.25400810001884,470.73775019997265,470.73775019997265,470.73775019997265,470.73775019997265,470.7543727000011,471.0377600999782,471.0377600999782,471.0377600999782,471.3887682999484,m,0.643141100066714,None,471.3892035000026,471.40470549999736,472.40521550003905,472.3890024999855,,,,,,,,,,,,,,,,,,,,,,,,,,,,,,,,,,,,,,,,,,,,,,,,,,,,,,,,,,,,,,,,,,,,,,,,,,,,,,A_10,001,2024-11-29_12h03.17.919,untitled,2024.1.5,None,2024-11-29 12h03.33.311131 +0530,
triangle.png,stranger,0,Z,,,,,,,,,31,3,127,3,,,,,,,,,472.40521550003905,,,,,,,,,,,,,,,,,,,,,,,,,,,,,,,,,,,,,,,,,,,,,,,,,,,,,,,,,,,,472.38936619996093,472.40521550003905,472.8889274999965,472.8889274999965,472.8889274999965,472.8889274999965,472.905314499978,473.18874330003746,473.18874330003746,473.18874330003746,473.83990160003304,z,0.9366763000143692,None,473.8403421000112,473.8560781000415,474.8562404999975,474.84016260004137,,,,,,,,,,,,,,,,,,,,,,,,,,,,,,,,,,,,,,,,,,,,,,,,,,,,,,,,,,,,,,,,,,,,,,,,,,,,,,A_10,001,2024-11-29_12h03.17.919,untitled,2024.1.5,None,2024-11-29 12h03.33.311131 +0530,
square.png,stranger,1,M,,,,,,,,,32,0,128,0,,,,,,,,,474.8562404999975,,,,,,,,,,,,,,,,,,,,,,,,,,,,,,,,,,,,,,,,,,,,,,,,,,,,,,,,,,,,474.8405226999894,474.8562404999975,475.3402299999725,475.3402299999725,475.3402299999725,475.3402299999725,475.3565776000032,475.64008569996804,475.64008569996804,475.64008569996804,476.2578409999842,m,0.9100343000609428,None,476.25828199996613,476.27379370003473,477.274289199966,477.25810209999327,,,,,,,,,,,,,,,,,,,,,,,,,,,,,,,,,,,,,,,,,,,,,,,,,,,,,,,,,,,,,,,,,,,,,,,,,,,,,,A_10,001,2024-11-29_12h03.17.919,untitled,2024.1.5,None,2024-11-29 12h03.33.311131 +0530,
triangle.png,stranger,0,Z,,,,,,,,,32,1,129,3,,,,,,,,,477.274289199966,,,,,,,,,,,,,,,,,,,,,,,,,,,,,,,,,,,,,,,,,,,,,,,,,,,,,,,,,,,,477.2584575000219,477.274289199966,477.7580448000226,477.7580448000226,477.7580448000226,477.7580448000226,477.7744929000037,478.0580746999476,478.0580746999476,478.0580746999476,478.60894950001966,z,0.8353421000065282,None,478.6093815000495,478.625110700028,479.62565259996336,479.60916820005514,,,,,,,,,,,,,,,,,,,,,,,,,,,,,,,,,,,,,,,,,,,,,,,,,,,,,,,,,,,,,,,,,,,,,,,,,,,,,,A_10,001,2024-11-29_12h03.17.919,untitled,2024.1.5,None,2024-11-29 12h03.33.311131 +0530,
square.png,you,0,Z,,,,,,,,,32,2,130,2,,,,,,,,,479.62565259996336,,,,,,,,,,,,,,,,,,,,,,,,,,,,,,,,,,,,,,,,,,,,,,,,,,,,,,,,,,,,479.60952129994985,479.62565259996336,480.10904270003084,480.10904270003084,480.10904270003084,480.10904270003084,480.1258669999661,480.40917220001575,480.40917220001575,480.40917220001575,481.01021179999225,z,0.8924717999761924,None,481.0106626000488,481.0263453000225,482.02666400000453,482.01061130000744,,,,,,,,,,,,,,,,,,,,,,,,,,,,,,,,,,,,,,,,,,,,,,,,,,,,,,,,,,,,,,,,,,,,,,,,,,,,,,A_10,001,2024-11-29_12h03.17.919,untitled,2024.1.5,None,2024-11-29 12h03.33.311131 +0530,
triangle.png,you,1,M,,,,,,,,,32,3,131,1,,,,,,,,,482.02666400000453,,,,,,,,,,,,,,,,,,,,,,,,,,,,,,,,,,,,,,,,,,,,,,,,,,,,,,,,,,,,482.0109667000361,482.02666400000453,482.5102919000201,482.5102919000201,482.5102919000201,482.5102919000201,482.5269601000473,482.8104975000024,482.8104975000024,482.8104975000024,483.1782629999798,m,0.662456399993971,None,483.178700700053,483.19392900005914,484.19456259999424,484.1781407999806,,,,,,,,,,,,,,,,,,,,,,,,,,,,,,,,,,,,,,,,,,,,,,,,,,,,,,,,,,,,,,,,,,,,,,,,,,,,,,A_10,001,2024-11-29_12h03.17.919,untitled,2024.1.5,None,2024-11-29 12h03.33.311131 +0530,
square.png,you,0,Z,,,,,,,,,33,0,132,2,,,,,,,,,484.19456259999424,,,,,,,,,,,,,,,,,,,,,,,,,,,,,,,,,,,,,,,,,,,,,,,,,,,,,,,,,,,,484.17849930003285,484.19456259999424,484.6782873000484,484.6782873000484,484.6782873000484,484.6782873000484,484.6948574000271,484.9782288999995,484.9782288999995,484.9782288999995,485.395994600025,z,0.7073115999810398,None,485.39642600005027,485.41174749995116,486.41228259995114,486.39623169996776,,,,,,,,,,,,,,,,,,,,,,,,,,,,,,,,,,,,,,,,,,,,,,,,,,,,,,,,,,,,,,,,,,,,,,,,,,,,,,A_10,001,2024-11-29_12h03.17.919,untitled,2024.1.5,None,2024-11-29 12h03.33.311131 +0530,
triangle.png,stranger,0,Z,,,,,,,,,33,1,133,3,,,,,,,,,486.41228259995114,,,,,,,,,,,,,,,,,,,,,,,,,,,,,,,,,,,,,,,,,,,,,,,,,,,,,,,,,,,,486.39658459997736,486.41228259995114,486.89612589997705,486.89612589997705,486.89612589997705,486.89612589997705,486.9129536000546,487.1960560999578,487.1960560999578,487.1960560999578,487.81385070004035,z,0.9056979999877512,None,487.81429290003143,487.82972919999156,488.8300196999917,488.8140513000544,,,,,,,,,,,,,,,,,,,,,,,,,,,,,,,,,,,,,,,,,,,,,,,,,,,,,,,,,,,,,,,,,,,,,,,,,,,,,,A_10,001,2024-11-29_12h03.17.919,untitled,2024.1.5,None,2024-11-29 12h03.33.311131 +0530,
triangle.png,you,1,M,,,,,,,,,33,2,134,1,,,,,,,,,488.8300196999917,,,,,,,,,,,,,,,,,,,,,,,,,,,,,,,,,,,,,,,,,,,,,,,,,,,,,,,,,,,,488.81441390002146,488.8300196999917,489.31398079998326,489.31398079998326,489.31398079998326,489.31398079998326,489.33056439994834,489.6138611000497,489.6138611000497,489.6138611000497,489.9481840999797,m,0.6237231000559404,None,489.9486208000453,489.9642177999485,490.9647765000118,490.94825769995805,,,,,,,,,,,,,,,,,,,,,,,,,,,,,,,,,,,,,,,,,,,,,,,,,,,,,,,,,,,,,,,,,,,,,,,,,,,,,,A_10,001,2024-11-29_12h03.17.919,untitled,2024.1.5,None,2024-11-29 12h03.33.311131 +0530,
square.png,stranger,1,M,,,,,,,,,33,3,135,0,,,,,,,,,490.9647765000118,,,,,,,,,,,,,,,,,,,,,,,,,,,,,,,,,,,,,,,,,,,,,,,,,,,,,,,,,,,,490.94861219997983,490.9647765000118,491.4489170999732,491.4489170999732,491.4489170999732,491.4489170999732,491.46495329996105,491.748391799978,491.748391799978,491.748391799978,492.0158070999896,z,0.5570940000470728,None,492.0162592000561,492.0317060999805,493.0325793999946,493.01627919997554,,,,,,,,,,,,,,,,,,,,,,,,,,,,,,,,,,,,,,,,,,,,,,,,,,,,,,,,,,,,,,,,,,,,,,,,,,,,,,A_10,001,2024-11-29_12h03.17.919,untitled,2024.1.5,None,2024-11-29 12h03.33.311131 +0530,
triangle.png,you,1,M,,,,,,,,,34,0,136,1,,,,,,,,,493.0325793999946,,,,,,,,,,,,,,,,,,,,,,,,,,,,,,,,,,,,,,,,,,,,,,,,,,,,,,,,,,,,493.01665250002407,493.0325793999946,493.51607250003144,493.51607250003144,493.51607250003144,493.51607250003144,493.53257379995193,493.8160187000176,493.8160187000176,493.8160187000176,494.067084099981,m,0.54955080000218,None,494.06752559996676,494.08307199995033,495.08332970004994,495.0674040999729,,,,,,,,,,,,,,,,,,,,,,,,,,,,,,,,,,,,,,,,,,,,,,,,,,,,,,,,,,,,,,,,,,,,,,,,,,,,,,A_10,001,2024-11-29_12h03.17.919,untitled,2024.1.5,None,2024-11-29 12h03.33.311131 +0530,
square.png,you,0,Z,,,,,,,,,34,1,137,2,,,,,,,,,495.08332970004994,,,,,,,,,,,,,,,,,,,,,,,,,,,,,,,,,,,,,,,,,,,,,,,,,,,,,,,,,,,,495.06776420003735,495.08332970004994,495.56735819997266,495.56735819997266,495.56735819997266,495.56735819997266,495.58369859994855,495.8669696999714,495.8669696999714,495.8669696999714,496.31832169997506,z,0.7467053000582382,None,496.3187828999944,496.33437569998205,497.3347382999491,497.31845370004885,,,,,,,,,,,,,,,,,,,,,,,,,,,,,,,,,,,,,,,,,,,,,,,,,,,,,,,,,,,,,,,,,,,,,,,,,,,,,,A_10,001,2024-11-29_12h03.17.919,untitled,2024.1.5,None,2024-11-29 12h03.33.311131 +0530,
triangle.png,stranger,0,Z,,,,,,,,,34,2,138,3,,,,,,,,,497.3347382999491,,,,,,,,,,,,,,,,,,,,,,,,,,,,,,,,,,,,,,,,,,,,,,,,,,,,,,,,,,,,497.318807200063,497.3347382999491,497.8183441000292,497.8183441000292,497.8183441000292,497.8183441000292,497.8347786000231,498.118199700024,498.118199700024,498.118199700024,498.4025002999697,m,0.5798362999921665,None,498.4030001000501,498.4184252000414,499.4189236999955,499.40274699998554,,,,,,,,,,,,,,,,,,,,,,,,,,,,,,,,,,,,,,,,,,,,,,,,,,,,,,,,,,,,,,,,,,,,,,,,,,,,,,A_10,001,2024-11-29_12h03.17.919,untitled,2024.1.5,None,2024-11-29 12h03.33.311131 +0530,
