stimulus,label,is_match,shouldpress,stimulus_2,label_2,is_match_2,shouldpress_2,p_trials.thisRepN,p_trials.thisTrialN,p_trials.thisN,p_trials.thisIndex,trials.thisRepN,trials.thisTrialN,trials.thisN,trials.thisIndex,p_trials_2.thisRepN,p_trials_2.thisTrialN,p_trials_2.thisN,p_trials_2.thisIndex,trials_2.thisRepN,trials_2.thisTrialN,trials_2.thisN,trials_2.thisIndex,thisRow.t,notes,Intruduction.started,text_3.started,key_resp_2.started,Intruduction.stopped,key_resp_2.keys,key_resp_2.rt,key_resp_2.duration,self_other_instructions.started,text_4.started,key_resp_3.started,self_other_instructions.stopped,key_resp_3.keys,key_resp_3.rt,key_resp_3.duration,self_other_info.started,square_image.started,triangle_image.started,self_label.started,other_label.started,key_resp_4.started,text_5.started,self_other_info.stopped,key_resp_4.keys,key_resp_4.rt,key_resp_4.duration,self_other_starting_2.started,text_6.started,key_resp_5.started,self_other_starting_2.stopped,key_resp_5.keys,key_resp_5.rt,key_resp_5.duration,practice1.started,p_fication.started,p_fication.stopped,p_fixation_3.started,p_text.started,key_resp_p.started,p_image.started,p_fixation_3.stopped,p_text.stopped,p_image.stopped,key_resp_p.stopped,practice1.stopped,key_resp_p.keys,p_feedback.started,text_15.started,p_feedback.stopped,key_resp_p.rt,key_resp_p.duration,text_15.stopped,start2.started,start_2.started,key_resp_11.started,start2.stopped,key_resp_11.keys,key_resp_11.rt,key_resp_11.duration,trial.started,fixation.started,fixation_3.started,text.started,key_resp.started,image.started,fixation.stopped,fixation_3.stopped,text.stopped,image.stopped,trial.stopped,key_resp.keys,key_resp.rt,key_resp.duration,feedback.started,text_2.started,text_2.stopped,feedback.stopped,key_resp.stopped,break_3.started,text_13.started,text_13.stopped,text_14.started,key_resp_10.started,break_3.stopped,key_resp_10.keys,key_resp_10.rt,key_resp_10.duration,self_other_instructions_2.started,text_10.started,key_resp_7.started,self_other_instructions_2.stopped,key_resp_7.keys,key_resp_7.rt,key_resp_7.duration,self_other_intro_2.started,circle_image.started,diamond_image.started,Disgusting_self_lable.started,Desirable_self_lable.started,key_resp_8.started,text_11.started,self_other_intro_2.stopped,key_resp_8.keys,key_resp_8.rt,key_resp_8.duration,self_other_starting_3.started,text_12.started,key_resp_9.started,self_other_starting_3.stopped,key_resp_9.keys,key_resp_9.rt,key_resp_9.duration,practice2.started,p_fixation_2.started,p_fixation_4.started,p_text_8.started,key_resp_6_p.started,p_image_2.started,p_fixation_2.stopped,p_fixation_4.stopped,p_text_8.stopped,p_image_2.stopped,key_resp_6_p.stopped,practice2.stopped,key_resp_6_p.keys,feedback_2_p.started,text_16.started,text_16.stopped,feedback_2_p.stopped,key_resp_6_p.rt,key_resp_6_p.duration,trial_2.started,fixation_2.started,fixation_4.started,text_8.started,key_resp_6.started,image_2.started,fixation_2.stopped,fixation_4.stopped,text_8.stopped,image_2.stopped,trial_2.stopped,key_resp_6.keys,key_resp_6.rt,key_resp_6.duration,feedback_2.started,text_9.started,text_9.stopped,feedback_2.stopped,key_resp_6.stopped,Thank_you.started,text_7.started,Thank_you.stopped,participant,session,date,expName,psychopyVersion,frameRate,expStart,
,,,,,,,,,,,,,,,,,,,,,,,,,,0.002646800014190376,0.006367999943904579,0.006367999943904579,39.73764329997357,space,39.72260229999665,None,,,,,,,,,,,,,,,,,,,,,,,,,,,,,,,,,,,,,,,,,,,,,,,,,,,,,,,,,,,,,,,,,,,,,,,,,,,,,,,,,,,,,,,,,,,,,,,,,,,,,,,,,,,,,,,,,,,,,,,,,,,,,,,,,,,,,,,,,,,,,,,,,,A_12,001,2024-11-29_17h18.18.706,untitled,2024.1.5,None,2024-11-29 17h18.36.594259 +0530,
,,,,,,,,,,,,,,,,,,,,,,,,,,,,,,,,,39.73767079995014,39.75126459996682,39.75126459996682,58.81191429996397,space,19.05295969999861,None,,,,,,,,,,,,,,,,,,,,,,,,,,,,,,,,,,,,,,,,,,,,,,,,,,,,,,,,,,,,,,,,,,,,,,,,,,,,,,,,,,,,,,,,,,,,,,,,,,,,,,,,,,,,,,,,,,,,,,,,,,,,,,,,,,,,,,,,,,,A_12,001,2024-11-29_17h18.18.706,untitled,2024.1.5,None,2024-11-29 17h18.36.594259 +0530,
,,,,,,,,,,,,,,,,,,,,,,,,,,,,,,,,,,,,,,,,58.811938499915414,58.84547970001586,58.84547970001586,58.84547970001586,58.84547970001586,58.84547970001586,58.84547970001586,116.77423959993757,space,57.921916499966756,None,,,,,,,,,,,,,,,,,,,,,,,,,,,,,,,,,,,,,,,,,,,,,,,,,,,,,,,,,,,,,,,,,,,,,,,,,,,,,,,,,,,,,,,,,,,,,,,,,,,,,,,,,,,,,,,,,,,,,,,,,,,,,,,,A_12,001,2024-11-29_17h18.18.706,untitled,2024.1.5,None,2024-11-29 17h18.36.594259 +0530,
,,,,,,,,,,,,,,,,,,,,,,,,,,,,,,,,,,,,,,,,,,,,,,,,,,,116.77426889992785,116.7904437999241,116.7904437999241,119.89257069991436,space,3.0892021999461576,None,,,,,,,,,,,,,,,,,,,,,,,,,,,,,,,,,,,,,,,,,,,,,,,,,,,,,,,,,,,,,,,,,,,,,,,,,,,,,,,,,,,,,,,,,,,,,,,,,,,,,,,,,,,,,,,,,,,,,,,,,A_12,001,2024-11-29_17h18.18.706,untitled,2024.1.5,None,2024-11-29 17h18.36.594259 +0530,
square.png,you,0,Z,,,,,0,0,0,2,,,,,,,,,,,,,119.90813649992924,,,,,,,,,,,,,,,,,,,,,,,,,,,,,,,,,,119.89860630000476,119.90813649992924,120.4086092999205,120.4086092999205,120.4086092999205,120.4086092999205,120.4086092999205,120.70847329997923,120.70847329997923,120.70847329997923,121.50877359998412,121.49256059993058,None,121.49276930000633,121.50877359998412,122.49277899996378,,,,,,,,,,,,,,,,,,,,,,,,,,,,,,,,,,,,,,,,,,,,,,,,,,,,,,,,,,,,,,,,,,,,,,,,,,,,,,,,,,,,,,,,,,,,,,,,,,,,,,,,,A_12,001,2024-11-29_17h18.18.706,untitled,2024.1.5,None,2024-11-29 17h18.36.594259 +0530,
triangle.png,you,1,M,,,,,0,1,1,1,,,,,,,,,,,,,122.50933539995458,,,,,,,,,,,,,,,,,,,,,,,,,,,,,,,,,,122.49302569997963,122.50933539995458,123.00978510000277,122.99334159994032,122.99334159994032,122.99334159994032,122.99334159994032,123.29308989993297,123.29308989993297,123.29308989993297,,123.41035899997223,z,123.41070899995975,123.4264114999678,124.41070349991787,0.4117714000167325,None,124.42691299994476,,,,,,,,,,,,,,,,,,,,,,,,,,,,,,,,,,,,,,,,,,,,,,,,,,,,,,,,,,,,,,,,,,,,,,,,,,,,,,,,,,,,,,,,,,,,,,,,,,,,,,A_12,001,2024-11-29_17h18.18.706,untitled,2024.1.5,None,2024-11-29 17h18.36.594259 +0530,
square.png,stranger,1,M,,,,,0,2,2,0,,,,,,,,,,,,,124.42691299994476,,,,,,,,,,,,,,,,,,,,,,,,,,,,,,,,,,124.41093699994963,124.42691299994476,124.92740219994448,124.91070529993158,124.91070529993158,124.91070529993158,124.91070529993158,125.21086619992275,125.21086619992275,125.21086619992275,,125.49508239992429,m,125.49533159995917,125.5107938000001,126.49550760001875,0.5822903000516817,None,126.5114996000193,,,,,,,,,,,,,,,,,,,,,,,,,,,,,,,,,,,,,,,,,,,,,,,,,,,,,,,,,,,,,,,,,,,,,,,,,,,,,,,,,,,,,,,,,,,,,,,,,,,,,,A_12,001,2024-11-29_17h18.18.706,untitled,2024.1.5,None,2024-11-29 17h18.36.594259 +0530,
triangle.png,stranger,0,Z,,,,,0,3,3,3,,,,,,,,,,,,,126.5114996000193,,,,,,,,,,,,,,,,,,,,,,,,,,,,,,,,,,126.49574699997902,126.5114996000193,127.01164709997829,126.99540020001587,126.99540020001587,126.99540020001587,126.99540020001587,127.29513949993998,127.29513949993998,127.29513949993998,,127.2959176999284,m,127.29616409994196,127.31190889992286,128.29612199997064,0.29324139992240816,None,128.31221040000673,,,,,,,,,,,,,,,,,,,,,,,,,,,,,,,,,,,,,,,,,,,,,,,,,,,,,,,,,,,,,,,,,,,,,,,,,,,,,,,,,,,,,,,,,,,,,,,,,,,,,,A_12,001,2024-11-29_17h18.18.706,untitled,2024.1.5,None,2024-11-29 17h18.36.594259 +0530,
square.png,you,0,Z,,,,,1,0,4,2,,,,,,,,,,,,,128.31221040000673,,,,,,,,,,,,,,,,,,,,,,,,,,,,,,,,,,128.29636209993623,128.31221040000673,128.81272909999825,128.79606809990946,128.79606809990946,128.79606809990946,128.79606809990946,129.09609959996305,129.09609959996305,129.09609959996305,129.89661980001256,129.8801009999588,None,129.8802331999177,129.89661980001256,130.88091329997405,,,130.8968718999531,,,,,,,,,,,,,,,,,,,,,,,,,,,,,,,,,,,,,,,,,,,,,,,,,,,,,,,,,,,,,,,,,,,,,,,,,,,,,,,,,,,,,,,,,,,,,,,,,,,,,,A_12,001,2024-11-29_17h18.18.706,untitled,2024.1.5,None,2024-11-29 17h18.36.594259 +0530,
triangle.png,stranger,0,Z,,,,,1,1,5,3,,,,,,,,,,,,,130.8968718999531,,,,,,,,,,,,,,,,,,,,,,,,,,,,,,,,,,130.8811490999069,130.8968718999531,131.39729539991822,131.39729539991822,131.39729539991822,131.39729539991822,131.39729539991822,131.69748510001227,131.69748510001227,131.69748510001227,,132.16546649998054,z,132.1657145000063,132.1808524999069,133.16525039996486,0.7670041000237688,None,133.1816206999356,,,,,,,,,,,,,,,,,,,,,,,,,,,,,,,,,,,,,,,,,,,,,,,,,,,,,,,,,,,,,,,,,,,,,,,,,,,,,,,,,,,,,,,,,,,,,,,,,,,,,,A_12,001,2024-11-29_17h18.18.706,untitled,2024.1.5,None,2024-11-29 17h18.36.594259 +0530,
triangle.png,you,1,M,,,,,1,2,6,1,,,,,,,,,,,,,133.1816206999356,,,,,,,,,,,,,,,,,,,,,,,,,,,,,,,,,,133.16548540000804,133.1816206999356,133.68192539992742,133.66516859992407,133.66516859992407,133.66516859992407,133.66516859992407,133.9650760999648,133.9650760999648,133.9650760999648,,134.1661469999235,m,134.16639249993023,134.18202009995002,135.16627469996456,0.4863752000965178,None,135.1826561000198,,,,,,,,,,,,,,,,,,,,,,,,,,,,,,,,,,,,,,,,,,,,,,,,,,,,,,,,,,,,,,,,,,,,,,,,,,,,,,,,,,,,,,,,,,,,,,,,,,,,,,A_12,001,2024-11-29_17h18.18.706,untitled,2024.1.5,None,2024-11-29 17h18.36.594259 +0530,
square.png,stranger,1,M,,,,,1,3,7,0,,,,,,,,,,,,,135.1826561000198,,,,,,,,,,,,,,,,,,,,,,,,,,,,,,,,,,135.16650739999022,135.1826561000198,135.68282679992262,135.6661524999654,135.6661524999654,135.6661524999654,135.6661524999654,135.96620119991712,135.96620119991712,135.96620119991712,,136.46711580001283,z,136.4673636999214,136.48336379998364,137.4676278999541,0.7873033999931067,None,137.4835325999884,,,,,,,,,,,,,,,,,,,,,,,,,,,,,,,,,,,,,,,,,,,,,,,,,,,,,,,,,,,,,,,,,,,,,,,,,,,,,,,,,,,,,,,,,,,,,,,,,,,,,,A_12,001,2024-11-29_17h18.18.706,untitled,2024.1.5,None,2024-11-29 17h18.36.594259 +0530,
triangle.png,stranger,0,Z,,,,,2,0,8,3,,,,,,,,,,,,,137.4835325999884,,,,,,,,,,,,,,,,,,,,,,,,,,,,,,,,,,137.46786109998357,137.4835325999884,137.98391880001873,137.96759169991128,137.96759169991128,137.96759169991128,137.96759169991128,138.26754069991875,138.26754069991875,138.26754069991875,139.0677902000025,139.05168769997545,None,139.05181759991683,139.0677902000025,140.0520749000134,,,140.06826329999603,,,,,,,,,,,,,,,,,,,,,,,,,,,,,,,,,,,,,,,,,,,,,,,,,,,,,,,,,,,,,,,,,,,,,,,,,,,,,,,,,,,,,,,,,,,,,,,,,,,,,,A_12,001,2024-11-29_17h18.18.706,untitled,2024.1.5,None,2024-11-29 17h18.36.594259 +0530,
square.png,stranger,1,M,,,,,2,1,9,0,,,,,,,,,,,,,140.06826329999603,,,,,,,,,,,,,,,,,,,,,,,,,,,,,,,,,,140.052312899963,140.06826329999603,140.5688216999406,140.5688216999406,140.5688216999406,140.5688216999406,140.5688216999406,140.86872029991355,140.86872029991355,140.86872029991355,141.66910619998816,141.65304919995833,None,141.6531797000207,141.66910619998816,142.65332179993857,,,142.66961589991115,,,,,,,,,,,,,,,,,,,,,,,,,,,,,,,,,,,,,,,,,,,,,,,,,,,,,,,,,,,,,,,,,,,,,,,,,,,,,,,,,,,,,,,,,,,,,,,,,,,,,,A_12,001,2024-11-29_17h18.18.706,untitled,2024.1.5,None,2024-11-29 17h18.36.594259 +0530,
triangle.png,you,1,M,,,,,2,2,10,1,,,,,,,,,,,,,142.66961589991115,,,,,,,,,,,,,,,,,,,,,,,,,,,,,,,,,,142.653554599965,142.66961589991115,143.17018799996004,143.17018799996004,143.17018799996004,143.17018799996004,143.17018799996004,143.47015219996683,143.47015219996683,143.47015219996683,144.270606999984,144.25440500001423,None,144.25456509995274,144.270606999984,145.25469039997552,,,145.27125879994128,,,,,,,,,,,,,,,,,,,,,,,,,,,,,,,,,,,,,,,,,,,,,,,,,,,,,,,,,,,,,,,,,,,,,,,,,,,,,,,,,,,,,,,,,,,,,,,,,,,,,,A_12,001,2024-11-29_17h18.18.706,untitled,2024.1.5,None,2024-11-29 17h18.36.594259 +0530,
square.png,you,0,Z,,,,,2,3,11,2,,,,,,,,,,,,,145.27125879994128,,,,,,,,,,,,,,,,,,,,,,,,,,,,,,,,,,145.2549224999966,145.27125879994128,145.77152069995645,145.77152069995645,145.77152069995645,145.77152069995645,145.77152069995645,146.07147039996926,146.07147039996926,146.07147039996926,,146.68919119995553,z,146.68944009998813,146.70519229990896,147.68925479997415,0.9017138000344858,None,147.70562959997915,,,,,,,,,,,,,,,,,,,,,,,,,,,,,,,,,,,,,,,,,,,,,,,,,,,,,,,,,,,,,,,,,,,,,,,,,,,,,,,,,,,,,,,,,,,,,,,,,,,,,,A_12,001,2024-11-29_17h18.18.706,untitled,2024.1.5,None,2024-11-29 17h18.36.594259 +0530,
triangle.png,you,1,M,,,,,3,0,12,1,,,,,,,,,,,,,147.70562959997915,,,,,,,,,,,,,,,,,,,,,,,,,,,,,,,,,,147.68949259992223,147.70562959997915,148.20602719997987,148.18917229992803,148.18917229992803,148.18917229992803,148.18917229992803,148.4894539999077,148.4894539999077,148.4894539999077,,148.67346469999757,m,148.67371459992137,148.68938759993762,149.67352289997507,0.4750444000819698,None,149.69000579998828,,,,,,,,,,,,,,,,,,,,,,,,,,,,,,,,,,,,,,,,,,,,,,,,,,,,,,,,,,,,,,,,,,,,,,,,,,,,,,,,,,,,,,,,,,,,,,,,,,,,,,A_12,001,2024-11-29_17h18.18.706,untitled,2024.1.5,None,2024-11-29 17h18.36.594259 +0530,
triangle.png,stranger,0,Z,,,,,3,1,13,3,,,,,,,,,,,,,149.69000579998828,,,,,,,,,,,,,,,,,,,,,,,,,,,,,,,,,,149.67375969991554,149.69000579998828,150.19045290001668,150.1735527999699,150.1735527999699,150.1735527999699,150.1735527999699,150.47363379993476,150.47363379993476,150.47363379993476,,150.64129409997258,z,150.64154119999148,150.6572962999344,151.64146269997582,0.4633234000066295,None,151.65739790000953,,,,,,,,,,,,,,,,,,,,,,,,,,,,,,,,,,,,,,,,,,,,,,,,,,,,,,,,,,,,,,,,,,,,,,,,,,,,,,,,,,,,,,,,,,,,,,,,,,,,,,A_12,001,2024-11-29_17h18.18.706,untitled,2024.1.5,None,2024-11-29 17h18.36.594259 +0530,
square.png,stranger,1,M,,,,,3,2,14,0,,,,,,,,,,,,,151.65739790000953,,,,,,,,,,,,,,,,,,,,,,,,,,,,,,,,,,151.6416945999954,151.65739790000953,152.15791299997363,152.1413488999242,152.1413488999242,152.1413488999242,152.1413488999242,152.44155519991182,152.44155519991182,152.44155519991182,,152.4257162999129,m,152.42596109991428,152.44155519991182,153.42588170000818,0.2748057000571862,None,153.44196059997194,,,,,,,,,,,,,,,,,,,,,,,,,,,,,,,,,,,,,,,,,,,,,,,,,,,,,,,,,,,,,,,,,,,,,,,,,,,,,,,,,,,,,,,,,,,,,,,,,,,,,,A_12,001,2024-11-29_17h18.18.706,untitled,2024.1.5,None,2024-11-29 17h18.36.594259 +0530,
square.png,you,0,Z,,,,,3,3,15,2,,,,,,,,,,,,,153.44196059997194,,,,,,,,,,,,,,,,,,,,,,,,,,,,,,,,,,153.4261136999121,153.44196059997194,153.9421774999937,153.9257916000206,153.9257916000206,153.9257916000206,153.9257916000206,154.2254995999392,154.2254995999392,154.2254995999392,,154.2930833999999,m,154.29333189991303,154.3091776999645,155.29339339991566,0.35495369997806847,None,155.3096979999682,,,,,,,,,,,,,,,,,,,,,,,,,,,,,,,,,,,,,,,,,,,,,,,,,,,,,,,,,,,,,,,,,,,,,,,,,,,,,,,,,,,,,,,,,,,,,,,,,,,,,,A_12,001,2024-11-29_17h18.18.706,untitled,2024.1.5,None,2024-11-29 17h18.36.594259 +0530,
triangle.png,stranger,0,Z,,,,,4,0,16,3,,,,,,,,,,,,,155.3096979999682,,,,,,,,,,,,,,,,,,,,,,,,,,,,,,,,,,155.29362739995122,155.3096979999682,155.8101297999965,155.79355900001246,155.79355900001246,155.79355900001246,155.79355900001246,156.0932302000001,156.0932302000001,156.0932302000001,,156.27761479991022,z,156.2778613999253,156.29346700001042,157.27771329996176,0.46801549999509007,None,157.29378940002061,,,,,,,,,,,,,,,,,,,,,,,,,,,,,,,,,,,,,,,,,,,,,,,,,,,,,,,,,,,,,,,,,,,,,,,,,,,,,,,,,,,,,,,,,,,,,,,,,,,,,,A_12,001,2024-11-29_17h18.18.706,untitled,2024.1.5,None,2024-11-29 17h18.36.594259 +0530,
square.png,you,0,Z,,,,,4,1,17,2,,,,,,,,,,,,,157.29378940002061,,,,,,,,,,,,,,,,,,,,,,,,,,,,,,,,,,157.27795229991898,157.29378940002061,157.7944175999146,157.77775359991938,157.77775359991938,157.77775359991938,157.77775359991938,158.07753209990915,158.07753209990915,158.07753209990915,,158.54523859999608,z,158.54548909992445,158.56118580000475,159.54554710001685,0.7545626000501215,None,159.56163829995785,,,,,,,,,,,,,,,,,,,,,,,,,,,,,,,,,,,,,,,,,,,,,,,,,,,,,,,,,,,,,,,,,,,,,,,,,,,,,,,,,,,,,,,,,,,,,,,,,,,,,,A_12,001,2024-11-29_17h18.18.706,untitled,2024.1.5,None,2024-11-29 17h18.36.594259 +0530,
triangle.png,you,1,M,,,,,4,2,18,1,,,,,,,,,,,,,159.56163829995785,,,,,,,,,,,,,,,,,,,,,,,,,,,,,,,,,,159.54577909992076,159.56163829995785,160.0619532999117,160.0455590999918,160.0455590999918,160.0455590999918,160.0455590999918,160.34523139998782,160.34523139998782,160.34523139998782,,160.42934429994784,m,160.42959600000177,160.44546259997878,161.4298325999407,0.38252089999150485,None,161.44614629994612,,,,,,,,,,,,,,,,,,,,,,,,,,,,,,,,,,,,,,,,,,,,,,,,,,,,,,,,,,,,,,,,,,,,,,,,,,,,,,,,,,,,,,,,,,,,,,,,,,,,,,A_12,001,2024-11-29_17h18.18.706,untitled,2024.1.5,None,2024-11-29 17h18.36.594259 +0530,
square.png,stranger,1,M,,,,,4,3,19,0,,,,,,,,,,,,,161.44614629994612,,,,,,,,,,,,,,,,,,,,,,,,,,,,,,,,,,161.4300636999542,161.44614629994612,161.94643209991045,161.929624899989,161.929624899989,161.929624899989,161.929624899989,162.22997059999034,162.22997059999034,162.22997059999034,,162.24734809994698,z,162.2475966999773,162.26320649997797,163.24752199999057,0.3020292000146583,None,163.26354680000804,,,,,,,,,,,,,,,,,,,,,,,,,,,,,,,,,,,,,,,,,,,,,,,,,,,,,,,,,,,,,,,,,,,,,,,,,,,,,,,,,,,,,,,,,,,,,,,,,,,,,,A_12,001,2024-11-29_17h18.18.706,untitled,2024.1.5,None,2024-11-29 17h18.36.594259 +0530,
,,,,,,,,,,,,,,,,,,,,,,,,,,,,,,,,,,,,,,,,,,,,,,,,,,,,,,,,,,,,,,,,,,,,,,,,,,,,,163.2475684999954,163.26354680000804,163.26354680000804,164.2982862999197,space,1.0278314999304712,None,,,,,,,,,,,,,,,,,,,,,,,,,,,,,,,,,,,,,,,,,,,,,,,,,,,,,,,,,,,,,,,,,,,,,,,,,,,,,,,,,,,,,,,,,,,,,,,A_12,001,2024-11-29_17h18.18.706,untitled,2024.1.5,None,2024-11-29 17h18.36.594259 +0530,
square.png,stranger,1,M,,,,,,,,,0,0,0,0,,,,,,,,,164.3143304999685,,,,,,,,,,,,,,,,,,,,,,,,,,,,,,,,,,,,,,,,,,,,,,,,,,,,,,,,,,,,164.3032108999323,164.3143304999685,164.79780940001365,164.79780940001365,164.79780940001365,164.79780940001365,164.81450939993374,165.09776969999075,165.09776969999075,165.09776969999075,165.63217889994849,z,0.8268367999698967,None,165.6328864999814,165.64827200002037,166.64873199991416,166.63267889991403,,,,,,,,,,,,,,,,,,,,,,,,,,,,,,,,,,,,,,,,,,,,,,,,,,,,,,,,,,,,,,,,,,,,,,,,,,,,,A_12,001,2024-11-29_17h18.18.706,untitled,2024.1.5,None,2024-11-29 17h18.36.594259 +0530,
square.png,you,0,Z,,,,,,,,,0,1,1,2,,,,,,,,,166.64873199991416,,,,,,,,,,,,,,,,,,,,,,,,,,,,,,,,,,,,,,,,,,,,,,,,,,,,,,,,,,,,166.63304059999064,166.64873199991416,167.13244109996594,167.13244109996594,167.13244109996594,167.13244109996594,167.14900530001614,167.43233199999668,167.43233199999668,167.43233199999668,167.866775100003,z,0.723738000029698,None,167.86720989993773,167.88278859993443,168.88305629999377,168.86706570000388,,,,,,,,,,,,,,,,,,,,,,,,,,,,,,,,,,,,,,,,,,,,,,,,,,,,,,,,,,,,,,,,,,,,,,,,,,,,,A_12,001,2024-11-29_17h18.18.706,untitled,2024.1.5,None,2024-11-29 17h18.36.594259 +0530,
triangle.png,stranger,0,Z,,,,,,,,,0,2,2,3,,,,,,,,,168.88305629999377,,,,,,,,,,,,,,,,,,,,,,,,,,,,,,,,,,,,,,,,,,,,,,,,,,,,,,,,,,,,168.86742129991762,168.88305629999377,169.36674159998074,169.36674159998074,169.36674159998074,169.36674159998074,169.38366789999418,169.66702449996956,169.66702449996956,169.66702449996956,170.03475899994373,z,0.6567401000065729,None,170.03519409999717,170.05047629994806,171.05095049994998,171.03462019993458,,,,,,,,,,,,,,,,,,,,,,,,,,,,,,,,,,,,,,,,,,,,,,,,,,,,,,,,,,,,,,,,,,,,,,,,,,,,,A_12,001,2024-11-29_17h18.18.706,untitled,2024.1.5,None,2024-11-29 17h18.36.594259 +0530,
triangle.png,you,1,M,,,,,,,,,0,3,3,1,,,,,,,,,171.05095049994998,,,,,,,,,,,,,,,,,,,,,,,,,,,,,,,,,,,,,,,,,,,,,,,,,,,,,,,,,,,,171.03498070000205,171.05095049994998,171.53470179997385,171.53470179997385,171.53470179997385,171.53470179997385,171.55120909994002,171.83462390000932,171.83462390000932,171.83462390000932,172.01865400001407,m,0.4698101000394672,None,172.01908449991606,172.03483379993122,173.03511759999674,173.01913879998028,,,,,,,,,,,,,,,,,,,,,,,,,,,,,,,,,,,,,,,,,,,,,,,,,,,,,,,,,,,,,,,,,,,,,,,,,,,,,A_12,001,2024-11-29_17h18.18.706,untitled,2024.1.5,None,2024-11-29 17h18.36.594259 +0530,
square.png,you,0,Z,,,,,,,,,1,0,4,2,,,,,,,,,173.03511759999674,,,,,,,,,,,,,,,,,,,,,,,,,,,,,,,,,,,,,,,,,,,,,,,,,,,,,,,,,,,,173.01950029993895,173.03511759999674,173.5188287999481,173.5188287999481,173.5188287999481,173.5188287999481,173.53546159993857,173.81911629997194,173.81911629997194,173.81911629997194,174.15322039998136,z,0.6261982000432909,None,174.15365100000054,174.1691603999352,175.16964849992655,175.15361619996838,,,,,,,,,,,,,,,,,,,,,,,,,,,,,,,,,,,,,,,,,,,,,,,,,,,,,,,,,,,,,,,,,,,,,,,,,,,,,A_12,001,2024-11-29_17h18.18.706,untitled,2024.1.5,None,2024-11-29 17h18.36.594259 +0530,
triangle.png,stranger,0,Z,,,,,,,,,1,1,5,3,,,,,,,,,175.16964849992655,,,,,,,,,,,,,,,,,,,,,,,,,,,,,,,,,,,,,,,,,,,,,,,,,,,,,,,,,,,,175.15397029998712,175.16964849992655,175.65337870002259,175.65337870002259,175.65337870002259,175.65337870002259,175.670225400012,175.953593299957,175.953593299957,175.953593299957,176.32110309996642,z,0.6555410000728443,None,176.32154589996208,176.33683899999596,177.33742809994146,177.3213667999953,,,,,,,,,,,,,,,,,,,,,,,,,,,,,,,,,,,,,,,,,,,,,,,,,,,,,,,,,,,,,,,,,,,,,,,,,,,,,A_12,001,2024-11-29_17h18.18.706,untitled,2024.1.5,None,2024-11-29 17h18.36.594259 +0530,
square.png,stranger,1,M,,,,,,,,,1,2,6,0,,,,,,,,,177.33742809994146,,,,,,,,,,,,,,,,,,,,,,,,,,,,,,,,,,,,,,,,,,,,,,,,,,,,,,,,,,,,177.3217227999121,177.33742809994146,177.82131639996078,177.82131639996078,177.82131639996078,177.82131639996078,177.83769670000765,178.12137850001454,178.12137850001454,178.12137850001454,178.2721487999661,z,0.44618259998969734,None,178.27258280001115,178.28811419999693,179.288597799954,179.27244550001342,,,,,,,,,,,,,,,,,,,,,,,,,,,,,,,,,,,,,,,,,,,,,,,,,,,,,,,,,,,,,,,,,,,,,,,,,,,,,A_12,001,2024-11-29_17h18.18.706,untitled,2024.1.5,None,2024-11-29 17h18.36.594259 +0530,
triangle.png,you,1,M,,,,,,,,,1,3,7,1,,,,,,,,,179.288597799954,,,,,,,,,,,,,,,,,,,,,,,,,,,,,,,,,,,,,,,,,,,,,,,,,,,,,,,,,,,,179.2728058999637,179.288597799954,179.77214809996076,179.77214809996076,179.77214809996076,179.77214809996076,179.78879319992848,180.07206179993227,180.07206179993227,180.07206179993227,180.1729406999657,m,0.3954677999718115,None,180.17337779991794,180.1890559999738,181.18965199997183,181.17323650000617,,,,,,,,,,,,,,,,,,,,,,,,,,,,,,,,,,,,,,,,,,,,,,,,,,,,,,,,,,,,,,,,,,,,,,,,,,,,,A_12,001,2024-11-29_17h18.18.706,untitled,2024.1.5,None,2024-11-29 17h18.36.594259 +0530,
square.png,stranger,1,M,,,,,,,,,2,0,8,0,,,,,,,,,181.18965199997183,,,,,,,,,,,,,,,,,,,,,,,,,,,,,,,,,,,,,,,,,,,,,,,,,,,,,,,,,,,,181.17359030002262,181.18965199997183,181.67318379995413,181.67318379995413,181.67318379995413,181.67318379995413,181.68980139994528,181.9731412999099,181.9731412999099,181.9731412999099,182.3908458999358,z,0.7024315000744537,None,182.39127769996412,182.40668299992103,183.40721949993167,183.39135729998816,,,,,,,,,,,,,,,,,,,,,,,,,,,,,,,,,,,,,,,,,,,,,,,,,,,,,,,,,,,,,,,,,,,,,,,,,,,,,A_12,001,2024-11-29_17h18.18.706,untitled,2024.1.5,None,2024-11-29 17h18.36.594259 +0530,
square.png,you,0,Z,,,,,,,,,2,1,9,2,,,,,,,,,183.40721949993167,,,,,,,,,,,,,,,,,,,,,,,,,,,,,,,,,,,,,,,,,,,,,,,,,,,,,,,,,,,,183.39178780000657,183.40721949993167,183.89094369998202,183.89094369998202,183.89094369998202,183.89094369998202,183.9073787999805,184.19098519999534,184.19098519999534,184.19098519999534,184.84207539993804,z,0.9457600000314415,None,184.8425168999238,184.85814169992227,185.8587014999939,185.8422801999841,,,,,,,,,,,,,,,,,,,,,,,,,,,,,,,,,,,,,,,,,,,,,,,,,,,,,,,,,,,,,,,,,,,,,,,,,,,,,A_12,001,2024-11-29_17h18.18.706,untitled,2024.1.5,None,2024-11-29 17h18.36.594259 +0530,
triangle.png,stranger,0,Z,,,,,,,,,2,2,10,3,,,,,,,,,185.8587014999939,,,,,,,,,,,,,,,,,,,,,,,,,,,,,,,,,,,,,,,,,,,,,,,,,,,,,,,,,,,,185.8426376999123,185.8587014999939,186.34250069991685,186.34250069991685,186.34250069991685,186.34250069991685,186.35888359998353,186.64214539993554,186.64214539993554,186.64214539993554,187.4266238999553,None,,,187.42681879992597,187.44255559996236,188.44327519997023,188.42697389994282,187.44255559996236,,,,,,,,,,,,,,,,,,,,,,,,,,,,,,,,,,,,,,,,,,,,,,,,,,,,,,,,,,,,,,,,,,,,,,,,,,,,A_12,001,2024-11-29_17h18.18.706,untitled,2024.1.5,None,2024-11-29 17h18.36.594259 +0530,
triangle.png,you,1,M,,,,,,,,,2,3,11,1,,,,,,,,,188.44327519997023,,,,,,,,,,,,,,,,,,,,,,,,,,,,,,,,,,,,,,,,,,,,,,,,,,,,,,,,,,,,188.42733109998517,188.44327519997023,188.9437631999608,188.9437631999608,188.9437631999608,188.9437631999608,188.9437631999608,189.24375779996626,189.24375779996626,189.24375779996626,189.44460699998308,m,0.4843835999490693,None,189.44504409993533,189.46036149992142,190.46100749995094,190.44476290000603,,,,,,,,,,,,,,,,,,,,,,,,,,,,,,,,,,,,,,,,,,,,,,,,,,,,,,,,,,,,,,,,,,,,,,,,,,,,,A_12,001,2024-11-29_17h18.18.706,untitled,2024.1.5,None,2024-11-29 17h18.36.594259 +0530,
square.png,stranger,1,M,,,,,,,,,3,0,12,0,,,,,,,,,190.46100749995094,,,,,,,,,,,,,,,,,,,,,,,,,,,,,,,,,,,,,,,,,,,,,,,,,,,,,,,,,,,,190.44512059993576,190.46100749995094,190.94471229996998,190.94471229996998,190.94471229996998,190.94471229996998,190.96139199996833,191.24474039999768,191.24474039999768,191.24474039999768,191.6786966000218,m,0.7279102000175044,None,191.67913860001136,191.69493829994462,192.69553349993657,192.67903979995754,,,,,,,,,,,,,,,,,,,,,,,,,,,,,,,,,,,,,,,,,,,,,,,,,,,,,,,,,,,,,,,,,,,,,,,,,,,,,A_12,001,2024-11-29_17h18.18.706,untitled,2024.1.5,None,2024-11-29 17h18.36.594259 +0530,
triangle.png,you,1,M,,,,,,,,,3,1,13,1,,,,,,,,,192.69553349993657,,,,,,,,,,,,,,,,,,,,,,,,,,,,,,,,,,,,,,,,,,,,,,,,,,,,,,,,,,,,192.6793940999778,192.69553349993657,193.179235199932,193.179235199932,193.179235199932,193.179235199932,193.19586480001453,193.47906009992585,193.47906009992585,193.47906009992585,193.79678249999415,m,0.6043193000368774,None,193.79722099995706,193.81256150000263,194.81314619991463,194.7968623000197,,,,,,,,,,,,,,,,,,,,,,,,,,,,,,,,,,,,,,,,,,,,,,,,,,,,,,,,,,,,,,,,,,,,,,,,,,,,,A_12,001,2024-11-29_17h18.18.706,untitled,2024.1.5,None,2024-11-29 17h18.36.594259 +0530,
square.png,you,0,Z,,,,,,,,,3,2,14,2,,,,,,,,,194.81314619991463,,,,,,,,,,,,,,,,,,,,,,,,,,,,,,,,,,,,,,,,,,,,,,,,,,,,,,,,,,,,194.79722029995173,194.81314619991463,195.2968142000027,195.2968142000027,195.2968142000027,195.2968142000027,195.31342969997786,195.59677880001254,195.59677880001254,195.59677880001254,195.91452310001478,z,0.6120301999617368,None,195.91495439992286,195.93057510000654,196.9310170999961,196.91459479997866,,,,,,,,,,,,,,,,,,,,,,,,,,,,,,,,,,,,,,,,,,,,,,,,,,,,,,,,,,,,,,,,,,,,,,,,,,,,,A_12,001,2024-11-29_17h18.18.706,untitled,2024.1.5,None,2024-11-29 17h18.36.594259 +0530,
triangle.png,stranger,0,Z,,,,,,,,,3,3,15,3,,,,,,,,,196.9310170999961,,,,,,,,,,,,,,,,,,,,,,,,,,,,,,,,,,,,,,,,,,,,,,,,,,,,,,,,,,,,196.91495419992134,196.9310170999961,197.414707699907,197.414707699907,197.414707699907,197.414707699907,197.43139389995486,197.71474299998954,197.71474299998954,197.71474299998954,198.3322984999977,m,0.9127481000032276,None,198.3327452999074,198.34846799995285,199.34874929999933,199.33262589992955,,,,,,,,,,,,,,,,,,,,,,,,,,,,,,,,,,,,,,,,,,,,,,,,,,,,,,,,,,,,,,,,,,,,,,,,,,,,,A_12,001,2024-11-29_17h18.18.706,untitled,2024.1.5,None,2024-11-29 17h18.36.594259 +0530,
square.png,stranger,1,M,,,,,,,,,4,0,16,0,,,,,,,,,199.34874929999933,,,,,,,,,,,,,,,,,,,,,,,,,,,,,,,,,,,,,,,,,,,,,,,,,,,,,,,,,,,,199.3329878000077,199.34874929999933,199.83272509998642,199.83272509998642,199.83272509998642,199.83272509998642,199.84901779994834,200.1326657999307,200.1326657999307,200.1326657999307,200.6169121999992,m,0.7685152000049129,None,200.61734729993623,200.63276249996852,201.63316680002026,201.61691559990868,,,,,,,,,,,,,,,,,,,,,,,,,,,,,,,,,,,,,,,,,,,,,,,,,,,,,,,,,,,,,,,,,,,,,,,,,,,,,A_12,001,2024-11-29_17h18.18.706,untitled,2024.1.5,None,2024-11-29 17h18.36.594259 +0530,
triangle.png,you,1,M,,,,,,,,,4,1,17,1,,,,,,,,,201.63316680002026,,,,,,,,,,,,,,,,,,,,,,,,,,,,,,,,,,,,,,,,,,,,,,,,,,,,,,,,,,,,201.61728329991456,201.63316680002026,202.11687119991984,202.11687119991984,202.11687119991984,202.11687119991984,202.13344669993967,202.4170375999529,202.4170375999529,202.4170375999529,202.88445689994842,m,0.7545456000370905,None,202.88490419997834,202.90067869995255,203.9012655999977,203.8848589999834,,,,,,,,,,,,,,,,,,,,,,,,,,,,,,,,,,,,,,,,,,,,,,,,,,,,,,,,,,,,,,,,,,,,,,,,,,,,,A_12,001,2024-11-29_17h18.18.706,untitled,2024.1.5,None,2024-11-29 17h18.36.594259 +0530,
triangle.png,stranger,0,Z,,,,,,,,,4,2,18,3,,,,,,,,,203.9012655999977,,,,,,,,,,,,,,,,,,,,,,,,,,,,,,,,,,,,,,,,,,,,,,,,,,,,,,,,,,,,203.88521609990858,203.9012655999977,204.38497199991252,204.38497199991252,204.38497199991252,204.38497199991252,204.40163400000893,204.68506489996798,204.68506489996798,204.68506489996798,205.4527134000091,z,1.0600919999415055,None,205.45314939995296,205.4688606999116,206.469218299957,206.45282419992145,,,,,,,,,,,,,,,,,,,,,,,,,,,,,,,,,,,,,,,,,,,,,,,,,,,,,,,,,,,,,,,,,,,,,,,,,,,,,A_12,001,2024-11-29_17h18.18.706,untitled,2024.1.5,None,2024-11-29 17h18.36.594259 +0530,
square.png,you,0,Z,,,,,,,,,4,3,19,2,,,,,,,,,206.469218299957,,,,,,,,,,,,,,,,,,,,,,,,,,,,,,,,,,,,,,,,,,,,,,,,,,,,,,,,,,,,206.45317629992496,206.469218299957,206.95323769992683,206.95323769992683,206.95323769992683,206.95323769992683,206.96968520001974,207.25306809996255,207.25306809996255,207.25306809996255,207.5871710999636,z,0.6309464999940246,None,207.58760480000637,207.60330959991552,208.60351579997223,208.58768369990867,,,,,,,,,,,,,,,,,,,,,,,,,,,,,,,,,,,,,,,,,,,,,,,,,,,,,,,,,,,,,,,,,,,,,,,,,,,,,A_12,001,2024-11-29_17h18.18.706,untitled,2024.1.5,None,2024-11-29 17h18.36.594259 +0530,
triangle.png,you,1,M,,,,,,,,,5,0,20,1,,,,,,,,,208.60351579997223,,,,,,,,,,,,,,,,,,,,,,,,,,,,,,,,,,,,,,,,,,,,,,,,,,,,,,,,,,,,208.58804269996472,208.60351579997223,209.0873384999577,209.0873384999577,209.0873384999577,209.0873384999577,209.1040093000047,209.38713389995974,209.38713389995974,209.38713389995974,209.50486599991564,m,0.41285940003581345,None,209.50529649993405,209.52061999996658,210.52124429994728,210.50482249993365,,,,,,,,,,,,,,,,,,,,,,,,,,,,,,,,,,,,,,,,,,,,,,,,,,,,,,,,,,,,,,,,,,,,,,,,,,,,,A_12,001,2024-11-29_17h18.18.706,untitled,2024.1.5,None,2024-11-29 17h18.36.594259 +0530,
square.png,you,0,Z,,,,,,,,,5,1,21,2,,,,,,,,,210.52124429994728,,,,,,,,,,,,,,,,,,,,,,,,,,,,,,,,,,,,,,,,,,,,,,,,,,,,,,,,,,,,210.50518370000646,210.52124429994728,211.0049312999472,211.0049312999472,211.0049312999472,211.0049312999472,211.02150799997617,211.30491710000206,211.30491710000206,211.30491710000206,211.72252109996043,m,0.7160192000446841,None,211.72295460000169,211.73864649992902,212.7392083000159,212.72279139992315,,,,,,,,,,,,,,,,,,,,,,,,,,,,,,,,,,,,,,,,,,,,,,,,,,,,,,,,,,,,,,,,,,,,,,,,,,,,,A_12,001,2024-11-29_17h18.18.706,untitled,2024.1.5,None,2024-11-29 17h18.36.594259 +0530,
triangle.png,stranger,0,Z,,,,,,,,,5,2,22,3,,,,,,,,,212.7392083000159,,,,,,,,,,,,,,,,,,,,,,,,,,,,,,,,,,,,,,,,,,,,,,,,,,,,,,,,,,,,212.72314559994265,212.7392083000159,213.2230627000099,213.2230627000099,213.2230627000099,213.2230627000099,213.2392977999989,213.52264340000693,213.52264340000693,213.52264340000693,214.15703479992226,z,0.918188099982217,None,214.15747239999473,214.17308500001673,215.17341099993791,215.15748659998644,,,,,,,,,,,,,,,,,,,,,,,,,,,,,,,,,,,,,,,,,,,,,,,,,,,,,,,,,,,,,,,,,,,,,,,,,,,,,A_12,001,2024-11-29_17h18.18.706,untitled,2024.1.5,None,2024-11-29 17h18.36.594259 +0530,
square.png,stranger,1,M,,,,,,,,,5,3,23,0,,,,,,,,,215.17341099993791,,,,,,,,,,,,,,,,,,,,,,,,,,,,,,,,,,,,,,,,,,,,,,,,,,,,,,,,,,,,215.15784180001356,215.17341099993791,215.65732300002128,215.65732300002128,215.65732300002128,215.65732300002128,215.67392059997655,215.95740989991464,215.95740989991464,215.95740989991464,216.74155839998275,None,,,216.74175119993743,216.75779479998164,217.7583063999191,217.74208649992943,216.75779479998164,,,,,,,,,,,,,,,,,,,,,,,,,,,,,,,,,,,,,,,,,,,,,,,,,,,,,,,,,,,,,,,,,,,,,,,,,,,,A_12,001,2024-11-29_17h18.18.706,untitled,2024.1.5,None,2024-11-29 17h18.36.594259 +0530,
triangle.png,you,1,M,,,,,,,,,6,0,24,1,,,,,,,,,217.7583063999191,,,,,,,,,,,,,,,,,,,,,,,,,,,,,,,,,,,,,,,,,,,,,,,,,,,,,,,,,,,,217.74244429997634,217.7583063999191,218.25883830001112,218.25883830001112,218.25883830001112,218.25883830001112,218.25883830001112,218.55860909994226,218.55860909994226,218.55860909994226,218.6598881999962,m,0.39836449990980327,None,218.6603313999949,218.6754585999297,219.67608609993476,219.65975200000685,,,,,,,,,,,,,,,,,,,,,,,,,,,,,,,,,,,,,,,,,,,,,,,,,,,,,,,,,,,,,,,,,,,,,,,,,,,,,A_12,001,2024-11-29_17h18.18.706,untitled,2024.1.5,None,2024-11-29 17h18.36.594259 +0530,
square.png,you,0,Z,,,,,,,,,6,1,25,2,,,,,,,,,219.67608609993476,,,,,,,,,,,,,,,,,,,,,,,,,,,,,,,,,,,,,,,,,,,,,,,,,,,,,,,,,,,,219.66011359996628,219.67608609993476,220.15978979994543,220.15978979994543,220.15978979994543,220.15978979994543,220.17612580000423,220.45982270000968,220.45982270000968,220.45982270000968,220.59392549993936,m,0.43218160001561046,None,220.5943602999905,220.6098939999938,221.61011170002166,221.59401599992998,,,,,,,,,,,,,,,,,,,,,,,,,,,,,,,,,,,,,,,,,,,,,,,,,,,,,,,,,,,,,,,,,,,,,,,,,,,,,A_12,001,2024-11-29_17h18.18.706,untitled,2024.1.5,None,2024-11-29 17h18.36.594259 +0530,
triangle.png,stranger,0,Z,,,,,,,,,6,2,26,3,,,,,,,,,221.61011170002166,,,,,,,,,,,,,,,,,,,,,,,,,,,,,,,,,,,,,,,,,,,,,,,,,,,,,,,,,,,,221.59437989990693,221.61011170002166,222.0939266999485,222.0939266999485,222.0939266999485,222.0939266999485,222.11051539995242,222.3938816000009,222.3938816000009,222.3938816000009,222.92848279990721,z,0.8232391000492498,None,222.92894679994788,222.94419890001882,223.94511759991292,223.928458499955,,,,,,,,,,,,,,,,,,,,,,,,,,,,,,,,,,,,,,,,,,,,,,,,,,,,,,,,,,,,,,,,,,,,,,,,,,,,,A_12,001,2024-11-29_17h18.18.706,untitled,2024.1.5,None,2024-11-29 17h18.36.594259 +0530,
square.png,stranger,1,M,,,,,,,,,6,3,27,0,,,,,,,,,223.94511759991292,,,,,,,,,,,,,,,,,,,,,,,,,,,,,,,,,,,,,,,,,,,,,,,,,,,,,,,,,,,,223.9288187000202,223.94511759991292,224.4285113000078,224.4285113000078,224.4285113000078,224.4285113000078,224.44484719994944,224.72865199996158,224.72865199996158,224.72865199996158,225.04614270001184,z,0.6043403999647126,None,225.0465740999207,225.06227379990742,226.06267599994317,226.04642319993582,,,,,,,,,,,,,,,,,,,,,,,,,,,,,,,,,,,,,,,,,,,,,,,,,,,,,,,,,,,,,,,,,,,,,,,,,,,,,A_12,001,2024-11-29_17h18.18.706,untitled,2024.1.5,None,2024-11-29 17h18.36.594259 +0530,
square.png,you,0,Z,,,,,,,,,7,0,28,2,,,,,,,,,226.06267599994317,,,,,,,,,,,,,,,,,,,,,,,,,,,,,,,,,,,,,,,,,,,,,,,,,,,,,,,,,,,,226.04677959997207,226.06267599994317,226.5463820999721,226.5463820999721,226.5463820999721,226.5463820999721,226.56282039999496,226.84640259994194,226.84640259994194,226.84640259994194,227.08071579993702,m,0.5265987999737263,None,227.08116329996847,227.09650529990904,228.09663929999806,228.08027829998173,,,,,,,,,,,,,,,,,,,,,,,,,,,,,,,,,,,,,,,,,,,,,,,,,,,,,,,,,,,,,,,,,,,,,,,,,,,,,A_12,001,2024-11-29_17h18.18.706,untitled,2024.1.5,None,2024-11-29 17h18.36.594259 +0530,
triangle.png,stranger,0,Z,,,,,,,,,7,1,29,3,,,,,,,,,228.09663929999806,,,,,,,,,,,,,,,,,,,,,,,,,,,,,,,,,,,,,,,,,,,,,,,,,,,,,,,,,,,,228.0806229999289,228.09663929999806,228.58088799996767,228.58088799996767,228.58088799996767,228.58088799996767,228.59720419999212,228.88059189997148,228.88059189997148,228.88059189997148,229.66477389994543,None,,,229.66496480000205,229.68117659993004,230.68165879999287,230.66536509990692,229.68117659993004,,,,,,,,,,,,,,,,,,,,,,,,,,,,,,,,,,,,,,,,,,,,,,,,,,,,,,,,,,,,,,,,,,,,,,,,,,,,A_12,001,2024-11-29_17h18.18.706,untitled,2024.1.5,None,2024-11-29 17h18.36.594259 +0530,
square.png,stranger,1,M,,,,,,,,,7,2,30,0,,,,,,,,,230.68165879999287,,,,,,,,,,,,,,,,,,,,,,,,,,,,,,,,,,,,,,,,,,,,,,,,,,,,,,,,,,,,230.66572289995383,230.68165879999287,231.1819137999555,231.1819137999555,231.1819137999555,231.1819137999555,231.1819137999555,231.4821105999872,231.4821105999872,231.4821105999872,231.8330510999076,z,0.6347861000103876,None,231.83348609996028,231.84889769996516,232.84929409995675,232.83308419992682,,,,,,,,,,,,,,,,,,,,,,,,,,,,,,,,,,,,,,,,,,,,,,,,,,,,,,,,,,,,,,,,,,,,,,,,,,,,,A_12,001,2024-11-29_17h18.18.706,untitled,2024.1.5,None,2024-11-29 17h18.36.594259 +0530,
triangle.png,you,1,M,,,,,,,,,7,3,31,1,,,,,,,,,232.84929409995675,,,,,,,,,,,,,,,,,,,,,,,,,,,,,,,,,,,,,,,,,,,,,,,,,,,,,,,,,,,,232.83344610000495,232.84929409995675,233.3331020999467,233.3331020999467,233.3331020999467,233.3331020999467,233.34953879995737,233.63314379996154,233.63314379996154,233.63314379996154,233.96737440000288,m,0.6230740000028163,None,233.9678089999361,233.98348970001098,234.98368379997555,234.96772479999345,,,,,,,,,,,,,,,,,,,,,,,,,,,,,,,,,,,,,,,,,,,,,,,,,,,,,,,,,,,,,,,,,,,,,,,,,,,,,A_12,001,2024-11-29_17h18.18.706,untitled,2024.1.5,None,2024-11-29 17h18.36.594259 +0530,
square.png,you,0,Z,,,,,,,,,8,0,32,2,,,,,,,,,234.98368379997555,,,,,,,,,,,,,,,,,,,,,,,,,,,,,,,,,,,,,,,,,,,,,,,,,,,,,,,,,,,,234.96808229992166,234.98368379997555,235.46744719997514,235.46744719997514,235.46744719997514,235.46744719997514,235.48423910001293,235.76759139995556,235.76759139995556,235.76759139995556,236.1017409999622,z,0.6295205999631435,None,236.10217019997071,236.11767399997916,237.11830679990817,237.1022250999231,,,,,,,,,,,,,,,,,,,,,,,,,,,,,,,,,,,,,,,,,,,,,,,,,,,,,,,,,,,,,,,,,,,,,,,,,,,,,A_12,001,2024-11-29_17h18.18.706,untitled,2024.1.5,None,2024-11-29 17h18.36.594259 +0530,
square.png,stranger,1,M,,,,,,,,,8,1,33,0,,,,,,,,,237.11830679990817,,,,,,,,,,,,,,,,,,,,,,,,,,,,,,,,,,,,,,,,,,,,,,,,,,,,,,,,,,,,237.10258309997153,237.11830679990817,237.60200810001697,237.60200810001697,237.60200810001697,237.60200810001697,237.61873659992125,237.902078300016,237.902078300016,237.902078300016,238.35302079992834,m,0.7390131999272853,None,238.35345279995818,238.36902480002027,239.36922799993772,239.35307870001998,,,,,,,,,,,,,,,,,,,,,,,,,,,,,,,,,,,,,,,,,,,,,,,,,,,,,,,,,,,,,,,,,,,,,,,,,,,,,A_12,001,2024-11-29_17h18.18.706,untitled,2024.1.5,None,2024-11-29 17h18.36.594259 +0530,
triangle.png,stranger,0,Z,,,,,,,,,8,2,34,3,,,,,,,,,239.36922799993772,,,,,,,,,,,,,,,,,,,,,,,,,,,,,,,,,,,,,,,,,,,,,,,,,,,,,,,,,,,,239.35344129998703,239.36922799993772,239.85300909995567,239.85300909995567,239.85300909995567,239.85300909995567,239.86991199990734,240.15306909999344,240.15306909999344,240.15306909999344,240.5873300000094,z,0.7187956999987364,None,240.58777260000352,240.60333919990808,241.60399390000384,241.58765319990925,,,,,,,,,,,,,,,,,,,,,,,,,,,,,,,,,,,,,,,,,,,,,,,,,,,,,,,,,,,,,,,,,,,,,,,,,,,,,A_12,001,2024-11-29_17h18.18.706,untitled,2024.1.5,None,2024-11-29 17h18.36.594259 +0530,
triangle.png,you,1,M,,,,,,,,,8,3,35,1,,,,,,,,,241.60399390000384,,,,,,,,,,,,,,,,,,,,,,,,,,,,,,,,,,,,,,,,,,,,,,,,,,,,,,,,,,,,241.58800559991505,241.60399390000384,242.08754969993606,242.08754969993606,242.08754969993606,242.08754969993606,242.10427609994076,242.38771879998967,242.38771879998967,242.38771879998967,242.52180719992612,m,0.4291520999977365,None,242.52225259994157,242.53772879997268,243.53818759997375,243.52204239997081,,,,,,,,,,,,,,,,,,,,,,,,,,,,,,,,,,,,,,,,,,,,,,,,,,,,,,,,,,,,,,,,,,,,,,,,,,,,,A_12,001,2024-11-29_17h18.18.706,untitled,2024.1.5,None,2024-11-29 17h18.36.594259 +0530,
triangle.png,you,1,M,,,,,,,,,9,0,36,1,,,,,,,,,243.53818759997375,,,,,,,,,,,,,,,,,,,,,,,,,,,,,,,,,,,,,,,,,,,,,,,,,,,,,,,,,,,,243.52239779999945,243.53818759997375,244.0220739999786,244.0220739999786,244.0220739999786,244.0220739999786,244.03866229997948,244.32185199996457,244.32185199996457,244.32185199996457,244.60615609993692,z,0.5749757000012323,None,244.60658679995686,244.6220213000197,245.62252119998448,245.60636839992367,,,,,,,,,,,,,,,,,,,,,,,,,,,,,,,,,,,,,,,,,,,,,,,,,,,,,,,,,,,,,,,,,,,,,,,,,,,,,A_12,001,2024-11-29_17h18.18.706,untitled,2024.1.5,None,2024-11-29 17h18.36.594259 +0530,
square.png,stranger,1,M,,,,,,,,,9,1,37,0,,,,,,,,,245.62252119998448,,,,,,,,,,,,,,,,,,,,,,,,,,,,,,,,,,,,,,,,,,,,,,,,,,,,,,,,,,,,245.60673559992574,245.62252119998448,246.10638439992908,246.10638439992908,246.10638439992908,246.10638439992908,246.12304939993192,246.40642839996144,246.40642839996144,246.40642839996144,247.19050799997058,None,,,247.19069899991155,247.2066555999918,248.20745649992023,248.191054899944,247.2066555999918,,,,,,,,,,,,,,,,,,,,,,,,,,,,,,,,,,,,,,,,,,,,,,,,,,,,,,,,,,,,,,,,,,,,,,,,,,,,A_12,001,2024-11-29_17h18.18.706,untitled,2024.1.5,None,2024-11-29 17h18.36.594259 +0530,
triangle.png,stranger,0,Z,,,,,,,,,9,2,38,3,,,,,,,,,248.20745649992023,,,,,,,,,,,,,,,,,,,,,,,,,,,,,,,,,,,,,,,,,,,,,,,,,,,,,,,,,,,,248.19140809995588,248.20745649992023,248.707698800019,248.707698800019,248.707698800019,248.707698800019,248.707698800019,249.00779689999763,249.00779689999763,249.00779689999763,249.3251295000082,z,0.6129011999582872,None,249.3255689999787,249.34120919997804,250.34172949998174,250.32550059992354,,,,,,,,,,,,,,,,,,,,,,,,,,,,,,,,,,,,,,,,,,,,,,,,,,,,,,,,,,,,,,,,,,,,,,,,,,,,,A_12,001,2024-11-29_17h18.18.706,untitled,2024.1.5,None,2024-11-29 17h18.36.594259 +0530,
square.png,you,0,Z,,,,,,,,,9,3,39,2,,,,,,,,,250.34172949998174,,,,,,,,,,,,,,,,,,,,,,,,,,,,,,,,,,,,,,,,,,,,,,,,,,,,,,,,,,,,250.32586099999025,250.34172949998174,250.82555209996644,250.82555209996644,250.82555209996644,250.82555209996644,250.84192609996535,251.12550650001504,251.12550650001504,251.12550650001504,251.3427573000081,m,0.5151410000398755,None,251.34320619993377,251.35873199999332,252.35957759991288,252.34323150001,,,,,,,,,,,,,,,,,,,,,,,,,,,,,,,,,,,,,,,,,,,,,,,,,,,,,,,,,,,,,,,,,,,,,,,,,,,,,A_12,001,2024-11-29_17h18.18.706,untitled,2024.1.5,None,2024-11-29 17h18.36.594259 +0530,
triangle.png,you,1,M,,,,,,,,,10,0,40,1,,,,,,,,,252.35957759991288,,,,,,,,,,,,,,,,,,,,,,,,,,,,,,,,,,,,,,,,,,,,,,,,,,,,,,,,,,,,252.3435879999306,252.35957759991288,252.84329430002254,252.84329430002254,252.84329430002254,252.84329430002254,252.85964759998024,253.14300089993048,253.14300089993048,253.14300089993048,253.4940893999301,m,0.6453799000009894,None,253.4945395999821,253.51003499992657,254.51076099998318,254.49418269994203,,,,,,,,,,,,,,,,,,,,,,,,,,,,,,,,,,,,,,,,,,,,,,,,,,,,,,,,,,,,,,,,,,,,,,,,,,,,,A_12,001,2024-11-29_17h18.18.706,untitled,2024.1.5,None,2024-11-29 17h18.36.594259 +0530,
square.png,you,0,Z,,,,,,,,,10,1,41,2,,,,,,,,,254.51076099998318,,,,,,,,,,,,,,,,,,,,,,,,,,,,,,,,,,,,,,,,,,,,,,,,,,,,,,,,,,,,254.4945374999661,254.51076099998318,254.99400389997754,254.99400389997754,254.99400389997754,254.99400389997754,255.01065109996125,255.29428989998996,255.29428989998996,255.29428989998996,255.6282521999674,z,0.6306962999515235,None,255.6286989999935,255.6442566999467,256.64484109997284,256.628894799971,,,,,,,,,,,,,,,,,,,,,,,,,,,,,,,,,,,,,,,,,,,,,,,,,,,,,,,,,,,,,,,,,,,,,,,,,,,,,A_12,001,2024-11-29_17h18.18.706,untitled,2024.1.5,None,2024-11-29 17h18.36.594259 +0530,
triangle.png,stranger,0,Z,,,,,,,,,10,2,42,3,,,,,,,,,256.64484109997284,,,,,,,,,,,,,,,,,,,,,,,,,,,,,,,,,,,,,,,,,,,,,,,,,,,,,,,,,,,,256.62924709997606,256.64484109997284,257.128798599937,257.128798599937,257.128798599937,257.128798599937,257.14542740001343,257.42878049996216,257.42878049996216,257.42878049996216,257.79637649992947,z,0.6514750000787899,None,257.7968117999844,257.8121754999738,258.81260780000594,258.7965863000136,,,,,,,,,,,,,,,,,,,,,,,,,,,,,,,,,,,,,,,,,,,,,,,,,,,,,,,,,,,,,,,,,,,,,,,,,,,,,A_12,001,2024-11-29_17h18.18.706,untitled,2024.1.5,None,2024-11-29 17h18.36.594259 +0530,
square.png,stranger,1,M,,,,,,,,,10,3,43,0,,,,,,,,,258.81260780000594,,,,,,,,,,,,,,,,,,,,,,,,,,,,,,,,,,,,,,,,,,,,,,,,,,,,,,,,,,,,258.79693979991134,258.81260780000594,259.29682279995177,259.29682279995177,259.29682279995177,259.29682279995177,259.31339499994647,259.59657619998325,259.59657619998325,259.59657619998325,259.91391379991546,z,0.6114731999114156,None,259.9143438999308,259.92992719996255,260.93038539995905,260.9143006999511,,,,,,,,,,,,,,,,,,,,,,,,,,,,,,,,,,,,,,,,,,,,,,,,,,,,,,,,,,,,,,,,,,,,,,,,,,,,,A_12,001,2024-11-29_17h18.18.706,untitled,2024.1.5,None,2024-11-29 17h18.36.594259 +0530,
triangle.png,stranger,0,Z,,,,,,,,,11,0,44,3,,,,,,,,,260.93038539995905,,,,,,,,,,,,,,,,,,,,,,,,,,,,,,,,,,,,,,,,,,,,,,,,,,,,,,,,,,,,260.9146536999615,260.93038539995905,261.41426260001026,261.41426260001026,261.41426260001026,261.41426260001026,261.43074759992305,261.7142079999903,261.7142079999903,261.7142079999903,262.0985204000026,z,0.6740649999119341,None,262.0989502000157,262.11427329992875,263.115117099951,263.09865249996074,,,,,,,,,,,,,,,,,,,,,,,,,,,,,,,,,,,,,,,,,,,,,,,,,,,,,,,,,,,,,,,,,,,,,,,,,,,,,A_12,001,2024-11-29_17h18.18.706,untitled,2024.1.5,None,2024-11-29 17h18.36.594259 +0530,
square.png,stranger,1,M,,,,,,,,,11,1,45,0,,,,,,,,,263.115117099951,,,,,,,,,,,,,,,,,,,,,,,,,,,,,,,,,,,,,,,,,,,,,,,,,,,,,,,,,,,,263.09900639997795,263.115117099951,263.59847660001833,263.59847660001833,263.59847660001833,263.59847660001833,263.6152868999634,263.89861019991804,263.89861019991804,263.89861019991804,264.332911400008,m,0.7299174999352545,None,264.3333509999793,264.3488352999557,265.3493078999454,265.3330862999428,,,,,,,,,,,,,,,,,,,,,,,,,,,,,,,,,,,,,,,,,,,,,,,,,,,,,,,,,,,,,,,,,,,,,,,,,,,,,A_12,001,2024-11-29_17h18.18.706,untitled,2024.1.5,None,2024-11-29 17h18.36.594259 +0530,
square.png,you,0,Z,,,,,,,,,11,2,46,2,,,,,,,,,265.3493078999454,,,,,,,,,,,,,,,,,,,,,,,,,,,,,,,,,,,,,,,,,,,,,,,,,,,,,,,,,,,,265.3334409999661,265.3493078999454,265.83298870001454,265.83298870001454,265.83298870001454,265.83298870001454,265.84977769991383,266.13318619993515,266.13318619993515,266.13318619993515,266.31737189996056,z,0.4760670999530703,None,266.31780989991967,266.3333802999696,267.3338461999083,267.31759240000974,,,,,,,,,,,,,,,,,,,,,,,,,,,,,,,,,,,,,,,,,,,,,,,,,,,,,,,,,,,,,,,,,,,,,,,,,,,,,A_12,001,2024-11-29_17h18.18.706,untitled,2024.1.5,None,2024-11-29 17h18.36.594259 +0530,
triangle.png,you,1,M,,,,,,,,,11,3,47,1,,,,,,,,,267.3338461999083,,,,,,,,,,,,,,,,,,,,,,,,,,,,,,,,,,,,,,,,,,,,,,,,,,,,,,,,,,,,267.31794560002163,267.3338461999083,267.8176535000093,267.8176535000093,267.8176535000093,267.8176535000093,267.83424659993034,268.11760320002213,268.11760320002213,268.11760320002213,268.251519799931,m,0.4266636000247672,None,268.25195119995624,268.26774619997013,269.2680458999239,269.2518978000153,,,,,,,,,,,,,,,,,,,,,,,,,,,,,,,,,,,,,,,,,,,,,,,,,,,,,,,,,,,,,,,,,,,,,,,,,,,,,A_12,001,2024-11-29_17h18.18.706,untitled,2024.1.5,None,2024-11-29 17h18.36.594259 +0530,
triangle.png,you,1,M,,,,,,,,,12,0,48,1,,,,,,,,,269.2680458999239,,,,,,,,,,,,,,,,,,,,,,,,,,,,,,,,,,,,,,,,,,,,,,,,,,,,,,,,,,,,269.2523577999091,269.2680458999239,269.75203709991183,269.75203709991183,269.75203709991183,269.75203709991183,269.7680981999729,270.05170549999457,270.05170549999457,270.05170549999457,270.28587219992187,m,0.5201642999891192,None,270.2863072999753,270.30210319999605,271.30256510002073,271.28616229991894,,,,,,,,,,,,,,,,,,,,,,,,,,,,,,,,,,,,,,,,,,,,,,,,,,,,,,,,,,,,,,,,,,,,,,,,,,,,,A_12,001,2024-11-29_17h18.18.706,untitled,2024.1.5,None,2024-11-29 17h18.36.594259 +0530,
square.png,you,0,Z,,,,,,,,,12,1,49,2,,,,,,,,,271.30256510002073,,,,,,,,,,,,,,,,,,,,,,,,,,,,,,,,,,,,,,,,,,,,,,,,,,,,,,,,,,,,271.2865165999392,271.30256510002073,271.78613979998045,271.78613979998045,271.78613979998045,271.78613979998045,271.80268459999934,272.0862615000224,272.0862615000224,272.0862615000224,272.53721520002,z,0.7381650999886915,None,272.5376627999358,272.5531297000125,273.5535347999539,273.5373371000169,,,,,,,,,,,,,,,,,,,,,,,,,,,,,,,,,,,,,,,,,,,,,,,,,,,,,,,,,,,,,,,,,,,,,,,,,,,,,A_12,001,2024-11-29_17h18.18.706,untitled,2024.1.5,None,2024-11-29 17h18.36.594259 +0530,
square.png,stranger,1,M,,,,,,,,,12,2,50,0,,,,,,,,,273.5535347999539,,,,,,,,,,,,,,,,,,,,,,,,,,,,,,,,,,,,,,,,,,,,,,,,,,,,,,,,,,,,273.5376961999573,273.5535347999539,274.03758120001294,274.03758120001294,274.03758120001294,274.03758120001294,274.0541390000144,274.3373152000131,274.3373152000131,274.3373152000131,274.8717158000218,z,0.8190292000072077,None,274.8721519999672,274.8875406999141,275.88829419994727,275.87199599994346,,,,,,,,,,,,,,,,,,,,,,,,,,,,,,,,,,,,,,,,,,,,,,,,,,,,,,,,,,,,,,,,,,,,,,,,,,,,,A_12,001,2024-11-29_17h18.18.706,untitled,2024.1.5,None,2024-11-29 17h18.36.594259 +0530,
triangle.png,stranger,0,Z,,,,,,,,,12,3,51,3,,,,,,,,,275.88829419994727,,,,,,,,,,,,,,,,,,,,,,,,,,,,,,,,,,,,,,,,,,,,,,,,,,,,,,,,,,,,275.87236419995315,275.88829419994727,276.3719299000222,276.3719299000222,276.3719299000222,276.3719299000222,276.38867919996846,276.6720129000023,276.6720129000023,276.6720129000023,277.20635150000453,m,0.8323199999285862,None,277.20678299991414,277.2221769000171,278.2228657999076,278.20639149995986,,,,,,,,,,,,,,,,,,,,,,,,,,,,,,,,,,,,,,,,,,,,,,,,,,,,,,,,,,,,,,,,,,,,,,,,,,,,,A_12,001,2024-11-29_17h18.18.706,untitled,2024.1.5,None,2024-11-29 17h18.36.594259 +0530,
triangle.png,stranger,0,Z,,,,,,,,,13,0,52,3,,,,,,,,,278.2228657999076,,,,,,,,,,,,,,,,,,,,,,,,,,,,,,,,,,,,,,,,,,,,,,,,,,,,,,,,,,,,278.20674519997556,278.2228657999076,278.70656510000117,278.70656510000117,278.70656510000117,278.70656510000117,278.7231045999797,279.00639709993266,279.00639709993266,279.00639709993266,279.32400379993487,z,0.6048928999807686,None,279.3244336999487,279.34005699993577,280.3403766999254,280.32433169998694,,,,,,,,,,,,,,,,,,,,,,,,,,,,,,,,,,,,,,,,,,,,,,,,,,,,,,,,,,,,,,,,,,,,,,,,,,,,,A_12,001,2024-11-29_17h18.18.706,untitled,2024.1.5,None,2024-11-29 17h18.36.594259 +0530,
triangle.png,you,1,M,,,,,,,,,13,1,53,1,,,,,,,,,280.3403766999254,,,,,,,,,,,,,,,,,,,,,,,,,,,,,,,,,,,,,,,,,,,,,,,,,,,,,,,,,,,,280.32470170001034,280.3403766999254,280.82438160001766,280.82438160001766,280.82438160001766,280.82438160001766,280.84074139990844,281.12413829995785,281.12413829995785,281.12413829995785,281.30846989993006,m,0.47642929991707206,None,281.30890589999035,281.3245038000168,282.3248078000033,282.30856049992144,,,,,,,,,,,,,,,,,,,,,,,,,,,,,,,,,,,,,,,,,,,,,,,,,,,,,,,,,,,,,,,,,,,,,,,,,,,,,A_12,001,2024-11-29_17h18.18.706,untitled,2024.1.5,None,2024-11-29 17h18.36.594259 +0530,
square.png,you,0,Z,,,,,,,,,13,2,54,2,,,,,,,,,282.3248078000033,,,,,,,,,,,,,,,,,,,,,,,,,,,,,,,,,,,,,,,,,,,,,,,,,,,,,,,,,,,,282.3089170999592,282.3248078000033,282.8087983999867,282.8087983999867,282.8087983999867,282.8087983999867,282.8252229000209,283.1086591000203,283.1086591000203,283.1086591000203,283.3928249999881,z,0.5714399999706075,None,283.393253199989,283.40881930000614,284.40934599994216,284.39293919992633,,,,,,,,,,,,,,,,,,,,,,,,,,,,,,,,,,,,,,,,,,,,,,,,,,,,,,,,,,,,,,,,,,,,,,,,,,,,,A_12,001,2024-11-29_17h18.18.706,untitled,2024.1.5,None,2024-11-29 17h18.36.594259 +0530,
square.png,stranger,1,M,,,,,,,,,13,3,55,0,,,,,,,,,284.40934599994216,,,,,,,,,,,,,,,,,,,,,,,,,,,,,,,,,,,,,,,,,,,,,,,,,,,,,,,,,,,,284.393361800001,284.40934599994216,284.89293779991567,284.89293779991567,284.89293779991567,284.89293779991567,284.9096495999256,285.1930817000102,285.1930817000102,285.1930817000102,285.47702989995014,z,0.5706127999583259,None,285.4774710999336,285.4929939999711,286.49368830001913,286.47742829995696,,,,,,,,,,,,,,,,,,,,,,,,,,,,,,,,,,,,,,,,,,,,,,,,,,,,,,,,,,,,,,,,,,,,,,,,,,,,,A_12,001,2024-11-29_17h18.18.706,untitled,2024.1.5,None,2024-11-29 17h18.36.594259 +0530,
square.png,you,0,Z,,,,,,,,,14,0,56,2,,,,,,,,,286.49368830001913,,,,,,,,,,,,,,,,,,,,,,,,,,,,,,,,,,,,,,,,,,,,,,,,,,,,,,,,,,,,286.47778249997646,286.49368830001913,286.9774673000211,286.9774673000211,286.9774673000211,286.9774673000211,286.993842799915,287.2772231999552,287.2772231999552,287.2772231999552,288.06178489991,None,,,288.06199999991804,288.07783119997475,289.078145199921,289.0622947999509,288.07783119997475,,,,,,,,,,,,,,,,,,,,,,,,,,,,,,,,,,,,,,,,,,,,,,,,,,,,,,,,,,,,,,,,,,,,,,,,,,,,A_12,001,2024-11-29_17h18.18.706,untitled,2024.1.5,None,2024-11-29 17h18.36.594259 +0530,
triangle.png,you,1,M,,,,,,,,,14,1,57,1,,,,,,,,,289.078145199921,,,,,,,,,,,,,,,,,,,,,,,,,,,,,,,,,,,,,,,,,,,,,,,,,,,,,,,,,,,,289.06268229999114,289.078145199921,289.57873830001336,289.57873830001336,289.57873830001336,289.57873830001336,289.57873830001336,289.8785507999128,289.8785507999128,289.8785507999128,290.06287399993744,m,0.478020399925299,None,290.0633261000039,290.0786161000142,291.07935100002214,291.0631097999867,,,,,,,,,,,,,,,,,,,,,,,,,,,,,,,,,,,,,,,,,,,,,,,,,,,,,,,,,,,,,,,,,,,,,,,,,,,,,A_12,001,2024-11-29_17h18.18.706,untitled,2024.1.5,None,2024-11-29 17h18.36.594259 +0530,
triangle.png,stranger,0,Z,,,,,,,,,14,2,58,3,,,,,,,,,291.07935100002214,,,,,,,,,,,,,,,,,,,,,,,,,,,,,,,,,,,,,,,,,,,,,,,,,,,,,,,,,,,,291.06348219991196,291.07935100002214,291.56300670001656,291.56300670001656,291.56300670001656,291.56300670001656,291.5796465999447,291.8630785999121,291.8630785999121,291.8630785999121,292.18059749994427,z,0.6100007999921218,None,292.1810408999445,292.1964425999904,293.197066099965,293.1810355000198,,,,,,,,,,,,,,,,,,,,,,,,,,,,,,,,,,,,,,,,,,,,,,,,,,,,,,,,,,,,,,,,,,,,,,,,,,,,,A_12,001,2024-11-29_17h18.18.706,untitled,2024.1.5,None,2024-11-29 17h18.36.594259 +0530,
square.png,stranger,1,M,,,,,,,,,14,3,59,0,,,,,,,,,293.197066099965,,,,,,,,,,,,,,,,,,,,,,,,,,,,,,,,,,,,,,,,,,,,,,,,,,,,,,,,,,,,293.18139359995257,293.197066099965,293.6806793999858,293.6806793999858,293.6806793999858,293.6806793999858,293.69727999996394,293.9807796999812,293.9807796999812,293.9807796999812,294.4149542999221,m,0.7310229999711737,None,294.4154039999703,294.43120320001617,295.43168239993975,295.4152710000053,,,,,,,,,,,,,,,,,,,,,,,,,,,,,,,,,,,,,,,,,,,,,,,,,,,,,,,,,,,,,,,,,,,,,,,,,,,,,A_12,001,2024-11-29_17h18.18.706,untitled,2024.1.5,None,2024-11-29 17h18.36.594259 +0530,
square.png,you,0,Z,,,,,,,,,15,0,60,2,,,,,,,,,295.43168239993975,,,,,,,,,,,,,,,,,,,,,,,,,,,,,,,,,,,,,,,,,,,,,,,,,,,,,,,,,,,,295.41563259996474,295.43168239993975,295.9152197999647,295.9152197999647,295.9152197999647,295.9152197999647,295.93187520001084,296.2153826999711,296.2153826999711,296.2153826999711,296.6494858999504,z,0.7324452999746427,None,296.64995140000246,296.66547110001557,297.6658597999485,297.64982749999035,,,,,,,,,,,,,,,,,,,,,,,,,,,,,,,,,,,,,,,,,,,,,,,,,,,,,,,,,,,,,,,,,,,,,,,,,,,,,A_12,001,2024-11-29_17h18.18.706,untitled,2024.1.5,None,2024-11-29 17h18.36.594259 +0530,
triangle.png,stranger,0,Z,,,,,,,,,15,1,61,3,,,,,,,,,297.6658597999485,,,,,,,,,,,,,,,,,,,,,,,,,,,,,,,,,,,,,,,,,,,,,,,,,,,,,,,,,,,,297.6501933999825,297.6658597999485,298.14969549991656,298.14969549991656,298.14969549991656,298.14969549991656,298.16622040001675,298.44955229992047,298.44955229992047,298.44955229992047,298.61720340000466,m,0.45191150007303804,None,298.6176422999706,298.6331820000196,299.63362560002133,299.6172942999983,,,,,,,,,,,,,,,,,,,,,,,,,,,,,,,,,,,,,,,,,,,,,,,,,,,,,,,,,,,,,,,,,,,,,,,,,,,,,A_12,001,2024-11-29_17h18.18.706,untitled,2024.1.5,None,2024-11-29 17h18.36.594259 +0530,
square.png,stranger,1,M,,,,,,,,,15,2,62,0,,,,,,,,,299.63362560002133,,,,,,,,,,,,,,,,,,,,,,,,,,,,,,,,,,,,,,,,,,,,,,,,,,,,,,,,,,,,299.61766009998973,299.63362560002133,300.11762669996824,300.11762669996824,300.11762669996824,300.11762669996824,300.13421539997216,300.4175366999116,300.4175366999116,300.4175366999116,300.60166269994806,z,0.4786507999524474,None,300.60209900001064,300.6176873999648,301.6181287999498,301.6017865999602,,,,,,,,,,,,,,,,,,,,,,,,,,,,,,,,,,,,,,,,,,,,,,,,,,,,,,,,,,,,,,,,,,,,,,,,,,,,,A_12,001,2024-11-29_17h18.18.706,untitled,2024.1.5,None,2024-11-29 17h18.36.594259 +0530,
triangle.png,you,1,M,,,,,,,,,15,3,63,1,,,,,,,,,301.6181287999498,,,,,,,,,,,,,,,,,,,,,,,,,,,,,,,,,,,,,,,,,,,,,,,,,,,,,,,,,,,,301.6021452000132,301.6181287999498,302.10164080001414,302.10164080001414,302.10164080001414,302.10164080001414,302.11852419993374,302.401711500017,302.401711500017,302.401711500017,302.58612290001474,m,0.48246570001356304,None,302.5865549999289,302.6019957999233,303.6025235999841,303.5861273999326,,,,,,,,,,,,,,,,,,,,,,,,,,,,,,,,,,,,,,,,,,,,,,,,,,,,,,,,,,,,,,,,,,,,,,,,,,,,,A_12,001,2024-11-29_17h18.18.706,untitled,2024.1.5,None,2024-11-29 17h18.36.594259 +0530,
triangle.png,you,1,M,,,,,,,,,16,0,64,1,,,,,,,,,303.6025235999841,,,,,,,,,,,,,,,,,,,,,,,,,,,,,,,,,,,,,,,,,,,,,,,,,,,,,,,,,,,,303.58649469993543,303.6025235999841,304.0860675999429,304.0860675999429,304.0860675999429,304.0860675999429,304.10270719998516,304.38610519992653,304.38610519992653,304.38610519992653,304.77053809992503,m,0.6746127000078559,None,304.77097529999446,304.7863325999351,305.7870226999512,305.7706114000175,,,,,,,,,,,,,,,,,,,,,,,,,,,,,,,,,,,,,,,,,,,,,,,,,,,,,,,,,,,,,,,,,,,,,,,,,,,,,A_12,001,2024-11-29_17h18.18.706,untitled,2024.1.5,None,2024-11-29 17h18.36.594259 +0530,
square.png,stranger,1,M,,,,,,,,,16,1,65,0,,,,,,,,,305.7870226999512,,,,,,,,,,,,,,,,,,,,,,,,,,,,,,,,,,,,,,,,,,,,,,,,,,,,,,,,,,,,305.7709630000172,305.7870226999512,306.27052689995617,306.27052689995617,306.27052689995617,306.27052689995617,306.2872789999237,306.57064789999276,306.57064789999276,306.57064789999276,306.88806289993227,z,0.609777000034228,None,306.8885126999812,306.9041811999632,307.9046082999557,307.88821070000995,,,,,,,,,,,,,,,,,,,,,,,,,,,,,,,,,,,,,,,,,,,,,,,,,,,,,,,,,,,,,,,,,,,,,,,,,,,,,A_12,001,2024-11-29_17h18.18.706,untitled,2024.1.5,None,2024-11-29 17h18.36.594259 +0530,
square.png,you,0,Z,,,,,,,,,16,2,66,2,,,,,,,,,307.9046082999557,,,,,,,,,,,,,,,,,,,,,,,,,,,,,,,,,,,,,,,,,,,,,,,,,,,,,,,,,,,,307.8885737999808,307.9046082999557,308.388635899988,308.388635899988,308.388635899988,308.388635899988,308.4048825999489,308.688489299966,308.688489299966,308.688489299966,309.17283209995367,z,0.7719218999845907,None,309.1732682000147,309.188476899988,310.18896890000906,310.17293539992534,,,,,,,,,,,,,,,,,,,,,,,,,,,,,,,,,,,,,,,,,,,,,,,,,,,,,,,,,,,,,,,,,,,,,,,,,,,,,A_12,001,2024-11-29_17h18.18.706,untitled,2024.1.5,None,2024-11-29 17h18.36.594259 +0530,
triangle.png,stranger,0,Z,,,,,,,,,16,3,67,3,,,,,,,,,310.18896890000906,,,,,,,,,,,,,,,,,,,,,,,,,,,,,,,,,,,,,,,,,,,,,,,,,,,,,,,,,,,,310.1732922999654,310.18896890000906,310.6730422999244,310.6730422999244,310.6730422999244,310.6730422999244,310.68929439992644,310.9730222999351,310.9730222999351,310.9730222999351,310.9901975999819,m,0.3079450000077486,None,310.99063239991665,311.00638289994095,312.00674819992855,311.9904500999255,,,,,,,,,,,,,,,,,,,,,,,,,,,,,,,,,,,,,,,,,,,,,,,,,,,,,,,,,,,,,,,,,,,,,,,,,,,,,A_12,001,2024-11-29_17h18.18.706,untitled,2024.1.5,None,2024-11-29 17h18.36.594259 +0530,
square.png,you,0,Z,,,,,,,,,17,0,68,2,,,,,,,,,312.00674819992855,,,,,,,,,,,,,,,,,,,,,,,,,,,,,,,,,,,,,,,,,,,,,,,,,,,,,,,,,,,,311.990808499977,312.00674819992855,312.49034829996526,312.49034829996526,312.49034829996526,312.49034829996526,312.5072488000151,312.79060149996076,312.79060149996076,312.79060149996076,313.1246134999674,z,0.629083100007847,None,313.1250526999356,313.1406926999334,314.1413255999796,314.12510229996406,,,,,,,,,,,,,,,,,,,,,,,,,,,,,,,,,,,,,,,,,,,,,,,,,,,,,,,,,,,,,,,,,,,,,,,,,,,,,A_12,001,2024-11-29_17h18.18.706,untitled,2024.1.5,None,2024-11-29 17h18.36.594259 +0530,
triangle.png,you,1,M,,,,,,,,,17,1,69,1,,,,,,,,,314.1413255999796,,,,,,,,,,,,,,,,,,,,,,,,,,,,,,,,,,,,,,,,,,,,,,,,,,,,,,,,,,,,314.1254563999828,314.1413255999796,314.6250351999188,314.6250351999188,314.6250351999188,314.6250351999188,314.6413450000109,314.92480879998766,314.92480879998766,314.92480879998766,314.99249470001087,m,0.35089199990034103,None,314.99293269996997,315.0083136999747,316.008797199931,315.9928331999108,,,,,,,,,,,,,,,,,,,,,,,,,,,,,,,,,,,,,,,,,,,,,,,,,,,,,,,,,,,,,,,,,,,,,,,,,,,,,A_12,001,2024-11-29_17h18.18.706,untitled,2024.1.5,None,2024-11-29 17h18.36.594259 +0530,
triangle.png,stranger,0,Z,,,,,,,,,17,2,70,3,,,,,,,,,316.008797199931,,,,,,,,,,,,,,,,,,,,,,,,,,,,,,,,,,,,,,,,,,,,,,,,,,,,,,,,,,,,315.99319219996687,316.008797199931,316.4924304999877,316.4924304999877,316.4924304999877,316.4924304999877,316.5090887999395,316.79249819996767,316.79249819996767,316.79249819996767,317.2436205999693,z,0.743757399963215,None,317.24405099998694,317.25960200000554,318.26005499996245,318.2438285999233,,,,,,,,,,,,,,,,,,,,,,,,,,,,,,,,,,,,,,,,,,,,,,,,,,,,,,,,,,,,,,,,,,,,,,,,,,,,,A_12,001,2024-11-29_17h18.18.706,untitled,2024.1.5,None,2024-11-29 17h18.36.594259 +0530,
square.png,stranger,1,M,,,,,,,,,17,3,71,0,,,,,,,,,318.26005499996245,,,,,,,,,,,,,,,,,,,,,,,,,,,,,,,,,,,,,,,,,,,,,,,,,,,,,,,,,,,,318.2441835999489,318.26005499996245,318.7435625999933,318.7435625999933,318.7435625999933,318.7435625999933,318.7602105999831,319.0437645999482,319.0437645999482,319.0437645999482,319.51132589997724,z,0.7519841999746859,None,319.5117706999881,319.52712270000484,320.5278271000134,320.51162959996145,,,,,,,,,,,,,,,,,,,,,,,,,,,,,,,,,,,,,,,,,,,,,,,,,,,,,,,,,,,,,,,,,,,,,,,,,,,,,A_12,001,2024-11-29_17h18.18.706,untitled,2024.1.5,None,2024-11-29 17h18.36.594259 +0530,
square.png,you,0,Z,,,,,,,,,18,0,72,2,,,,,,,,,320.5278271000134,,,,,,,,,,,,,,,,,,,,,,,,,,,,,,,,,,,,,,,,,,,,,,,,,,,,,,,,,,,,320.51199159992393,320.5278271000134,321.01132529997267,321.01132529997267,321.01132529997267,321.01132529997267,321.02822540001944,321.31163229991216,321.31163229991216,321.31163229991216,321.729186499957,z,0.7054711999371648,None,321.72963209997397,321.745073899976,322.7456581000006,322.72953559993766,,,,,,,,,,,,,,,,,,,,,,,,,,,,,,,,,,,,,,,,,,,,,,,,,,,,,,,,,,,,,,,,,,,,,,,,,,,,,A_12,001,2024-11-29_17h18.18.706,untitled,2024.1.5,None,2024-11-29 17h18.36.594259 +0530,
triangle.png,you,1,M,,,,,,,,,18,1,73,1,,,,,,,,,322.7456581000006,,,,,,,,,,,,,,,,,,,,,,,,,,,,,,,,,,,,,,,,,,,,,,,,,,,,,,,,,,,,322.72989279998,322.7456581000006,323.22926219995134,323.22926219995134,323.22926219995134,323.22926219995134,323.24601190001704,323.52931819995865,323.52931819995865,323.52931819995865,323.5967368999263,m,0.3637838000431657,None,323.5971711999737,323.61291269992944,324.6132260999875,324.5969010000117,,,,,,,,,,,,,,,,,,,,,,,,,,,,,,,,,,,,,,,,,,,,,,,,,,,,,,,,,,,,,,,,,,,,,,,,,,,,,A_12,001,2024-11-29_17h18.18.706,untitled,2024.1.5,None,2024-11-29 17h18.36.594259 +0530,
square.png,stranger,1,M,,,,,,,,,18,2,74,0,,,,,,,,,324.6132260999875,,,,,,,,,,,,,,,,,,,,,,,,,,,,,,,,,,,,,,,,,,,,,,,,,,,,,,,,,,,,324.5972564999247,324.6132260999875,325.0969265999738,325.0969265999738,325.0969265999738,325.0969265999738,325.11354579997715,325.3969103000127,325.3969103000127,325.3969103000127,326.0480519999983,m,0.9396529999794438,None,326.0484997999156,326.06391399994027,327.0645109999459,327.048165999935,,,,,,,,,,,,,,,,,,,,,,,,,,,,,,,,,,,,,,,,,,,,,,,,,,,,,,,,,,,,,,,,,,,,,,,,,,,,,A_12,001,2024-11-29_17h18.18.706,untitled,2024.1.5,None,2024-11-29 17h18.36.594259 +0530,
triangle.png,stranger,0,Z,,,,,,,,,18,3,75,3,,,,,,,,,327.0645109999459,,,,,,,,,,,,,,,,,,,,,,,,,,,,,,,,,,,,,,,,,,,,,,,,,,,,,,,,,,,,327.04851979995146,327.0645109999459,327.5483374999603,327.5483374999603,327.5483374999603,327.5483374999603,327.56495749996975,327.848202599911,327.848202599911,327.848202599911,328.18258949997835,z,0.6245752000249922,None,328.1830219000112,328.1983837999869,329.19890820002183,329.18263089994434,,,,,,,,,,,,,,,,,,,,,,,,,,,,,,,,,,,,,,,,,,,,,,,,,,,,,,,,,,,,,,,,,,,,,,,,,,,,,A_12,001,2024-11-29_17h18.18.706,untitled,2024.1.5,None,2024-11-29 17h18.36.594259 +0530,
square.png,you,0,Z,,,,,,,,,19,0,76,2,,,,,,,,,329.19890820002183,,,,,,,,,,,,,,,,,,,,,,,,,,,,,,,,,,,,,,,,,,,,,,,,,,,,,,,,,,,,329.1829818999395,329.19890820002183,329.68279029999394,329.68279029999394,329.68279029999394,329.68279029999394,329.6992589000147,329.982702099951,329.982702099951,329.982702099951,330.43359069991857,m,0.7378744999878109,None,330.43402829999104,330.4495278999675,331.45025689993054,331.4337747999234,,,,,,,,,,,,,,,,,,,,,,,,,,,,,,,,,,,,,,,,,,,,,,,,,,,,,,,,,,,,,,,,,,,,,,,,,,,,,A_12,001,2024-11-29_17h18.18.706,untitled,2024.1.5,None,2024-11-29 17h18.36.594259 +0530,
triangle.png,you,1,M,,,,,,,,,19,1,77,1,,,,,,,,,331.45025689993054,,,,,,,,,,,,,,,,,,,,,,,,,,,,,,,,,,,,,,,,,,,,,,,,,,,,,,,,,,,,331.4341316999635,331.45025689993054,331.934004599927,331.934004599927,331.934004599927,331.934004599927,331.9505783999339,332.23387320002075,332.23387320002075,332.23387320002075,332.36782459996175,m,0.41808460000902414,None,332.3682608999079,332.3838005999569,333.38444749999326,333.3681807999965,,,,,,,,,,,,,,,,,,,,,,,,,,,,,,,,,,,,,,,,,,,,,,,,,,,,,,,,,,,,,,,,,,,,,,,,,,,,,A_12,001,2024-11-29_17h18.18.706,untitled,2024.1.5,None,2024-11-29 17h18.36.594259 +0530,
square.png,stranger,1,M,,,,,,,,,19,2,78,0,,,,,,,,,333.38444749999326,,,,,,,,,,,,,,,,,,,,,,,,,,,,,,,,,,,,,,,,,,,,,,,,,,,,,,,,,,,,333.36854900000617,333.38444749999326,333.8680270999903,333.8680270999903,333.8680270999903,333.8680270999903,333.88461229996756,334.1681855999632,334.1681855999632,334.1681855999632,334.5358342999825,m,0.656724700005725,None,334.536269199918,334.5517043999862,335.55232749995776,335.53597319999244,,,,,,,,,,,,,,,,,,,,,,,,,,,,,,,,,,,,,,,,,,,,,,,,,,,,,,,,,,,,,,,,,,,,,,,,,,,,,A_12,001,2024-11-29_17h18.18.706,untitled,2024.1.5,None,2024-11-29 17h18.36.594259 +0530,
triangle.png,stranger,0,Z,,,,,,,,,19,3,79,3,,,,,,,,,335.55232749995776,,,,,,,,,,,,,,,,,,,,,,,,,,,,,,,,,,,,,,,,,,,,,,,,,,,,,,,,,,,,335.53632919990923,335.55232749995776,336.0360475999769,336.0360475999769,336.0360475999769,336.0360475999769,336.0524276000215,336.3361312999623,336.3361312999623,336.3361312999623,336.6869612999726,z,0.6356412000022829,None,336.68739590002224,336.70279809995554,337.70335229998454,337.68697769998107,,,,,,,,,,,,,,,,,,,,,,,,,,,,,,,,,,,,,,,,,,,,,,,,,,,,,,,,,,,,,,,,,,,,,,,,,,,,,A_12,001,2024-11-29_17h18.18.706,untitled,2024.1.5,None,2024-11-29 17h18.36.594259 +0530,
triangle.png,stranger,0,Z,,,,,,,,,20,0,80,3,,,,,,,,,337.70335229998454,,,,,,,,,,,,,,,,,,,,,,,,,,,,,,,,,,,,,,,,,,,,,,,,,,,,,,,,,,,,337.68733380001504,337.70335229998454,338.18689729995094,338.18689729995094,338.18689729995094,338.18689729995094,338.2035412999103,338.4869983999524,338.4869983999524,338.4869983999524,338.8876029999228,z,0.685406900011003,None,338.888069299981,338.9036758999573,339.9045406000223,339.8880487999413,,,,,,,,,,,,,,,,,,,,,,,,,,,,,,,,,,,,,,,,,,,,,,,,,,,,,,,,,,,,,,,,,,,,,,,,,,,,,A_12,001,2024-11-29_17h18.18.706,untitled,2024.1.5,None,2024-11-29 17h18.36.594259 +0530,
square.png,stranger,1,M,,,,,,,,,20,1,81,0,,,,,,,,,339.9045406000223,,,,,,,,,,,,,,,,,,,,,,,,,,,,,,,,,,,,,,,,,,,,,,,,,,,,,,,,,,,,339.8884058999829,339.9045406000223,340.3880247999914,340.3880247999914,340.3880247999914,340.3880247999914,340.404639699962,340.688141599996,340.688141599996,340.688141599996,341.00589859997854,z,0.6036531999707222,None,341.00633859995287,341.0217281000223,342.02203969995026,342.0060139999259,,,,,,,,,,,,,,,,,,,,,,,,,,,,,,,,,,,,,,,,,,,,,,,,,,,,,,,,,,,,,,,,,,,,,,,,,,,,,A_12,001,2024-11-29_17h18.18.706,untitled,2024.1.5,None,2024-11-29 17h18.36.594259 +0530,
square.png,you,0,Z,,,,,,,,,20,2,82,2,,,,,,,,,342.02203969995026,,,,,,,,,,,,,,,,,,,,,,,,,,,,,,,,,,,,,,,,,,,,,,,,,,,,,,,,,,,,342.0063758000033,342.02203969995026,342.50618369993754,342.50618369993754,342.50618369993754,342.50618369993754,342.5223911999492,342.8057810999453,342.8057810999453,342.8057810999453,342.97338719991967,m,0.4587760000722483,None,342.9738280000165,342.9893099999754,343.9898674999131,343.97375469992403,,,,,,,,,,,,,,,,,,,,,,,,,,,,,,,,,,,,,,,,,,,,,,,,,,,,,,,,,,,,,,,,,,,,,,,,,,,,,A_12,001,2024-11-29_17h18.18.706,untitled,2024.1.5,None,2024-11-29 17h18.36.594259 +0530,
triangle.png,you,1,M,,,,,,,,,20,3,83,1,,,,,,,,,343.9898674999131,,,,,,,,,,,,,,,,,,,,,,,,,,,,,,,,,,,,,,,,,,,,,,,,,,,,,,,,,,,,343.97411900002044,343.9898674999131,344.4735537999077,344.4735537999077,344.4735537999077,344.4735537999077,344.489923599991,344.7737041999353,344.7737041999353,344.7737041999353,344.89089319994673,m,0.4140791998943314,None,344.8913279999979,344.90713449998293,345.9074780999217,345.8911884999834,,,,,,,,,,,,,,,,,,,,,,,,,,,,,,,,,,,,,,,,,,,,,,,,,,,,,,,,,,,,,,,,,,,,,,,,,,,,,A_12,001,2024-11-29_17h18.18.706,untitled,2024.1.5,None,2024-11-29 17h18.36.594259 +0530,
square.png,stranger,1,M,,,,,,,,,21,0,84,0,,,,,,,,,345.9074780999217,,,,,,,,,,,,,,,,,,,,,,,,,,,,,,,,,,,,,,,,,,,,,,,,,,,,,,,,,,,,345.8915437000105,345.9074780999217,346.39114979992155,346.39114979992155,346.39114979992155,346.39114979992155,346.4077430999605,346.69135520001873,346.69135520001873,346.69135520001873,347.15869720000774,m,0.753351700026542,None,347.15912789991125,347.1747508000117,348.1754212999949,348.15924129995983,,,,,,,,,,,,,,,,,,,,,,,,,,,,,,,,,,,,,,,,,,,,,,,,,,,,,,,,,,,,,,,,,,,,,,,,,,,,,A_12,001,2024-11-29_17h18.18.706,untitled,2024.1.5,None,2024-11-29 17h18.36.594259 +0530,
square.png,you,0,Z,,,,,,,,,21,1,85,2,,,,,,,,,348.1754212999949,,,,,,,,,,,,,,,,,,,,,,,,,,,,,,,,,,,,,,,,,,,,,,,,,,,,,,,,,,,,348.1595970999915,348.1754212999949,348.65897320001386,348.65897320001386,348.65897320001386,348.65897320001386,348.67558839998674,348.9589415999362,348.9589415999362,348.9589415999362,349.1766509999288,z,0.5061085999477655,None,349.1770856999792,349.1925847999519,350.19313749996945,350.17690889991354,,,,,,,,,,,,,,,,,,,,,,,,,,,,,,,,,,,,,,,,,,,,,,,,,,,,,,,,,,,,,,,,,,,,,,,,,,,,,A_12,001,2024-11-29_17h18.18.706,untitled,2024.1.5,None,2024-11-29 17h18.36.594259 +0530,
triangle.png,stranger,0,Z,,,,,,,,,21,2,86,3,,,,,,,,,350.19313749996945,,,,,,,,,,,,,,,,,,,,,,,,,,,,,,,,,,,,,,,,,,,,,,,,,,,,,,,,,,,,350.1772628999315,350.19313749996945,350.6768917000154,350.6768917000154,350.6768917000154,350.6768917000154,350.69363629992586,350.97682929993607,350.97682929993607,350.97682929993607,351.0442508999258,z,0.3553025999572128,None,351.04468940000515,351.06029079994187,352.0605593000073,352.0445719999261,,,,,,,,,,,,,,,,,,,,,,,,,,,,,,,,,,,,,,,,,,,,,,,,,,,,,,,,,,,,,,,,,,,,,,,,,,,,,A_12,001,2024-11-29_17h18.18.706,untitled,2024.1.5,None,2024-11-29 17h18.36.594259 +0530,
triangle.png,you,1,M,,,,,,,,,21,3,87,1,,,,,,,,,352.0605593000073,,,,,,,,,,,,,,,,,,,,,,,,,,,,,,,,,,,,,,,,,,,,,,,,,,,,,,,,,,,,352.04492509993725,352.0605593000073,352.54427389998455,352.54427389998455,352.54427389998455,352.54427389998455,352.5608169999905,352.8443082999438,352.8443082999438,352.8443082999438,352.92846510000527,m,0.3726228999439627,None,352.92890189995524,352.9444868999999,353.944862299948,353.9287079999922,,,,,,,,,,,,,,,,,,,,,,,,,,,,,,,,,,,,,,,,,,,,,,,,,,,,,,,,,,,,,,,,,,,,,,,,,,,,,A_12,001,2024-11-29_17h18.18.706,untitled,2024.1.5,None,2024-11-29 17h18.36.594259 +0530,
square.png,stranger,1,M,,,,,,,,,22,0,88,0,,,,,,,,,353.944862299948,,,,,,,,,,,,,,,,,,,,,,,,,,,,,,,,,,,,,,,,,,,,,,,,,,,,,,,,,,,,353.9290750999935,353.944862299948,354.4286022000015,354.4286022000015,354.4286022000015,354.4286022000015,354.44540109997615,354.7289343000157,354.7289343000157,354.7289343000157,354.79597729991656,m,0.35494270001072437,None,354.79642469994724,354.81218629993964,355.8127048999304,355.7964612999931,,,,,,,,,,,,,,,,,,,,,,,,,,,,,,,,,,,,,,,,,,,,,,,,,,,,,,,,,,,,,,,,,,,,,,,,,,,,,A_12,001,2024-11-29_17h18.18.706,untitled,2024.1.5,None,2024-11-29 17h18.36.594259 +0530,
square.png,you,0,Z,,,,,,,,,22,1,89,2,,,,,,,,,355.8127048999304,,,,,,,,,,,,,,,,,,,,,,,,,,,,,,,,,,,,,,,,,,,,,,,,,,,,,,,,,,,,355.79682859999593,355.8127048999304,356.29632349999156,356.29632349999156,356.29632349999156,356.29632349999156,356.3127971999347,,,,356.5638558999635,m,0.2519118000054732,None,356.5642981999554,356.5794775999384,357.580080499989,357.5639889999293,,,,,,,,,,,,,,,,,,,,,,,,,,,,,,,,,,,,,,,,,,,,,,,,,,,,,,,,,,,,,,,,,,,,,,,,,,,,,A_12,001,2024-11-29_17h18.18.706,untitled,2024.1.5,None,2024-11-29 17h18.36.594259 +0530,
triangle.png,you,1,M,,,,,,,,,22,2,90,1,,,,,,,,,357.580080499989,,,,,,,,,,,,,,,,,,,,,,,,,,,,,,,,,,,,,,,,,,,,,,,,,,,,,,,,,,,,357.5643488999922,357.580080499989,358.0640336999204,358.0640336999204,358.0640336999204,358.0640336999204,358.0805888000177,358.3638195999665,358.3638195999665,358.3638195999665,358.5146896999795,m,0.4354745999444276,None,358.5151278999401,358.5307273999788,359.5310687000165,359.5149189999793,,,,,,,,,,,,,,,,,,,,,,,,,,,,,,,,,,,,,,,,,,,,,,,,,,,,,,,,,,,,,,,,,,,,,,,,,,,,,A_12,001,2024-11-29_17h18.18.706,untitled,2024.1.5,None,2024-11-29 17h18.36.594259 +0530,
triangle.png,stranger,0,Z,,,,,,,,,22,3,91,3,,,,,,,,,359.5310687000165,,,,,,,,,,,,,,,,,,,,,,,,,,,,,,,,,,,,,,,,,,,,,,,,,,,,,,,,,,,,359.51527329999954,359.5310687000165,360.01480259990785,360.01480259990785,360.01480259990785,360.01480259990785,360.0314605999738,360.3149444999872,360.3149444999872,360.3149444999872,360.3321413999656,m,0.31413970002904534,None,360.33257680002134,360.3484942999203,361.3486657999456,361.33268959994894,,,,,,,,,,,,,,,,,,,,,,,,,,,,,,,,,,,,,,,,,,,,,,,,,,,,,,,,,,,,,,,,,,,,,,,,,,,,,A_12,001,2024-11-29_17h18.18.706,untitled,2024.1.5,None,2024-11-29 17h18.36.594259 +0530,
square.png,stranger,1,M,,,,,,,,,23,0,92,0,,,,,,,,,361.3486657999456,,,,,,,,,,,,,,,,,,,,,,,,,,,,,,,,,,,,,,,,,,,,,,,,,,,,,,,,,,,,361.3330466999905,361.3486657999456,361.8323540999554,361.8323540999554,361.8323540999554,361.8323540999554,361.8492232999997,362.13246929994784,362.13246929994784,362.13246929994784,362.9167377999984,None,,,362.9169309999561,362.9330164999701,363.93344980000984,363.91721619991586,362.9330164999701,,,,,,,,,,,,,,,,,,,,,,,,,,,,,,,,,,,,,,,,,,,,,,,,,,,,,,,,,,,,,,,,,,,,,,,,,,,,A_12,001,2024-11-29_17h18.18.706,untitled,2024.1.5,None,2024-11-29 17h18.36.594259 +0530,
square.png,you,0,Z,,,,,,,,,23,1,93,2,,,,,,,,,363.93344980000984,,,,,,,,,,,,,,,,,,,,,,,,,,,,,,,,,,,,,,,,,,,,,,,,,,,,,,,,,,,,363.9175785999978,363.93344980000984,364.4341684000101,364.4341684000101,364.4341684000101,364.4341684000101,364.4341684000101,364.7336357999593,364.7336357999593,364.7336357999593,365.36808619997464,z,0.9184913999633864,None,365.36852239992004,365.38426540000364,366.38487780001014,366.3685800000094,,,,,,,,,,,,,,,,,,,,,,,,,,,,,,,,,,,,,,,,,,,,,,,,,,,,,,,,,,,,,,,,,,,,,,,,,,,,,A_12,001,2024-11-29_17h18.18.706,untitled,2024.1.5,None,2024-11-29 17h18.36.594259 +0530,
triangle.png,you,1,M,,,,,,,,,23,2,94,1,,,,,,,,,366.38487780001014,,,,,,,,,,,,,,,,,,,,,,,,,,,,,,,,,,,,,,,,,,,,,,,,,,,,,,,,,,,,366.36893479991704,366.38487780001014,366.8683255999349,366.8683255999349,366.8683255999349,366.8683255999349,366.8849176999647,367.1684074999066,367.1684074999066,367.1684074999066,367.3526734999614,m,0.4687841000268236,None,367.35310139996,367.3685808000155,368.36923209996894,368.35296669998206,,,,,,,,,,,,,,,,,,,,,,,,,,,,,,,,,,,,,,,,,,,,,,,,,,,,,,,,,,,,,,,,,,,,,,,,,,,,,A_12,001,2024-11-29_17h18.18.706,untitled,2024.1.5,None,2024-11-29 17h18.36.594259 +0530,
triangle.png,stranger,0,Z,,,,,,,,,23,3,95,3,,,,,,,,,368.36923209996894,,,,,,,,,,,,,,,,,,,,,,,,,,,,,,,,,,,,,,,,,,,,,,,,,,,,,,,,,,,,368.3533246999141,368.36923209996894,368.8526344000129,368.8526344000129,368.8526344000129,368.8526344000129,368.8693692999659,369.152932099998,369.152932099998,369.152932099998,369.5037661999231,z,0.6405356000177562,None,369.5042046000017,369.5195379999932,370.5201212000102,370.50405200000387,,,,,,,,,,,,,,,,,,,,,,,,,,,,,,,,,,,,,,,,,,,,,,,,,,,,,,,,,,,,,,,,,,,,,,,,,,,,,A_12,001,2024-11-29_17h18.18.706,untitled,2024.1.5,None,2024-11-29 17h18.36.594259 +0530,
triangle.png,you,1,M,,,,,,,,,24,0,96,1,,,,,,,,,370.5201212000102,,,,,,,,,,,,,,,,,,,,,,,,,,,,,,,,,,,,,,,,,,,,,,,,,,,,,,,,,,,,370.50440259999596,370.5201212000102,371.0036163999466,371.0036163999466,371.0036163999466,371.0036163999466,371.0203551999293,371.30371969996486,371.30371969996486,371.30371969996486,371.3712323999498,m,0.35704619996249676,None,371.37166309996974,371.3874373999424,372.3879403999308,372.3714025999652,,,,,,,,,,,,,,,,,,,,,,,,,,,,,,,,,,,,,,,,,,,,,,,,,,,,,,,,,,,,,,,,,,,,,,,,,,,,,A_12,001,2024-11-29_17h18.18.706,untitled,2024.1.5,None,2024-11-29 17h18.36.594259 +0530,
square.png,stranger,1,M,,,,,,,,,24,1,97,0,,,,,,,,,372.3879403999308,,,,,,,,,,,,,,,,,,,,,,,,,,,,,,,,,,,,,,,,,,,,,,,,,,,,,,,,,,,,372.3717537999619,372.3879403999308,372.8713845999446,372.8713845999446,372.8713845999446,372.8713845999446,372.8882248000009,373.1716792000225,373.1716792000225,373.1716792000225,373.42237389995717,z,0.544054500060156,None,373.4229212999344,373.4382163999835,374.43887680000626,374.4228187999688,,,,,,,,,,,,,,,,,,,,,,,,,,,,,,,,,,,,,,,,,,,,,,,,,,,,,,,,,,,,,,,,,,,,,,,,,,,,,A_12,001,2024-11-29_17h18.18.706,untitled,2024.1.5,None,2024-11-29 17h18.36.594259 +0530,
triangle.png,stranger,0,Z,,,,,,,,,24,2,98,3,,,,,,,,,374.43887680000626,,,,,,,,,,,,,,,,,,,,,,,,,,,,,,,,,,,,,,,,,,,,,,,,,,,,,,,,,,,,374.42321709997486,374.43887680000626,374.9226869000122,374.9226869000122,374.9226869000122,374.9226869000122,374.9393006999744,375.2226690999232,375.2226690999232,375.2226690999232,375.3733787999954,m,0.438161899917759,None,375.37380689999554,375.38945050002076,376.3899925999576,376.3735401999438,,,,,,,,,,,,,,,,,,,,,,,,,,,,,,,,,,,,,,,,,,,,,,,,,,,,,,,,,,,,,,,,,,,,,,,,,,,,,A_12,001,2024-11-29_17h18.18.706,untitled,2024.1.5,None,2024-11-29 17h18.36.594259 +0530,
square.png,you,0,Z,,,,,,,,,24,3,99,2,,,,,,,,,376.3899925999576,,,,,,,,,,,,,,,,,,,,,,,,,,,,,,,,,,,,,,,,,,,,,,,,,,,,,,,,,,,,376.3739523999393,376.3899925999576,376.87351950001903,376.87351950001903,376.87351950001903,376.87351950001903,376.89023419993464,377.1735382999759,377.1735382999759,377.1735382999759,377.45792369998526,z,0.5756753000896424,None,377.45835400000215,377.4736114999978,378.474181599915,378.4578854999272,,,,,,,,,,,,,,,,,,,,,,,,,,,,,,,,,,,,,,,,,,,,,,,,,,,,,,,,,,,,,,,,,,,,,,,,,,,,,A_12,001,2024-11-29_17h18.18.706,untitled,2024.1.5,None,2024-11-29 17h18.36.594259 +0530,
square.png,stranger,1,M,,,,,,,,,25,0,100,0,,,,,,,,,378.474181599915,,,,,,,,,,,,,,,,,,,,,,,,,,,,,,,,,,,,,,,,,,,,,,,,,,,,,,,,,,,,378.45823939994443,378.474181599915,378.95805129990913,378.95805129990913,378.95805129990913,378.95805129990913,378.9747096999781,379.2578768999083,379.2578768999083,379.2578768999083,379.6922638999531,z,0.7295360999414697,None,379.6926959999837,379.7083639999619,380.70871979999356,380.6925965999253,,,,,,,,,,,,,,,,,,,,,,,,,,,,,,,,,,,,,,,,,,,,,,,,,,,,,,,,,,,,,,,,,,,,,,,,,,,,,A_12,001,2024-11-29_17h18.18.706,untitled,2024.1.5,None,2024-11-29 17h18.36.594259 +0530,
square.png,you,0,Z,,,,,,,,,25,1,101,2,,,,,,,,,380.70871979999356,,,,,,,,,,,,,,,,,,,,,,,,,,,,,,,,,,,,,,,,,,,,,,,,,,,,,,,,,,,,380.6929536999669,380.70871979999356,381.1925630000187,381.1925630000187,381.1925630000187,381.1925630000187,381.2091235999251,381.49243189999834,381.49243189999834,381.49243189999834,381.5765402999241,m,0.375780800008215,None,381.5769766999874,381.59255589998793,382.5931059999857,382.57671509997454,,,,,,,,,,,,,,,,,,,,,,,,,,,,,,,,,,,,,,,,,,,,,,,,,,,,,,,,,,,,,,,,,,,,,,,,,,,,,A_12,001,2024-11-29_17h18.18.706,untitled,2024.1.5,None,2024-11-29 17h18.36.594259 +0530,
triangle.png,you,1,M,,,,,,,,,25,2,102,1,,,,,,,,,382.5931059999857,,,,,,,,,,,,,,,,,,,,,,,,,,,,,,,,,,,,,,,,,,,,,,,,,,,,,,,,,,,,382.577074999921,382.5931059999857,383.0768608999206,383.0768608999206,383.0768608999206,383.0768608999206,383.0932152000023,383.3768845999148,383.3768845999148,383.3768845999148,383.46097639994696,m,0.37859890004619956,None,383.4614178999327,383.4765994999325,384.4773889000062,384.46110580000095,,,,,,,,,,,,,,,,,,,,,,,,,,,,,,,,,,,,,,,,,,,,,,,,,,,,,,,,,,,,,,,,,,,,,,,,,,,,,A_12,001,2024-11-29_17h18.18.706,untitled,2024.1.5,None,2024-11-29 17h18.36.594259 +0530,
triangle.png,stranger,0,Z,,,,,,,,,25,3,103,3,,,,,,,,,384.4773889000062,,,,,,,,,,,,,,,,,,,,,,,,,,,,,,,,,,,,,,,,,,,,,,,,,,,,,,,,,,,,384.46146829996724,384.4773889000062,384.9609470999567,384.9609470999567,384.9609470999567,384.9609470999567,384.977924900013,385.2612164999591,385.2612164999591,385.2612164999591,385.5951644999441,z,0.6225720000220463,None,385.5955980999861,385.61137479997706,386.61144110001624,386.595105699962,,,,,,,,,,,,,,,,,,,,,,,,,,,,,,,,,,,,,,,,,,,,,,,,,,,,,,,,,,,,,,,,,,,,,,,,,,,,,A_12,001,2024-11-29_17h18.18.706,untitled,2024.1.5,None,2024-11-29 17h18.36.594259 +0530,
square.png,stranger,1,M,,,,,,,,,26,0,104,0,,,,,,,,,386.61144110001624,,,,,,,,,,,,,,,,,,,,,,,,,,,,,,,,,,,,,,,,,,,,,,,,,,,,,,,,,,,,386.59544109995477,386.61144110001624,387.09554080001544,387.09554080001544,387.09554080001544,387.09554080001544,387.11174429999664,387.3954442999093,387.3954442999093,387.3954442999093,387.7129141999176,z,0.6008969999384135,None,387.7133564999094,387.7289983999217,388.7296909999568,388.71313189994544,,,,,,,,,,,,,,,,,,,,,,,,,,,,,,,,,,,,,,,,,,,,,,,,,,,,,,,,,,,,,,,,,,,,,,,,,,,,,A_12,001,2024-11-29_17h18.18.706,untitled,2024.1.5,None,2024-11-29 17h18.36.594259 +0530,
triangle.png,you,1,M,,,,,,,,,26,1,105,1,,,,,,,,,388.7296909999568,,,,,,,,,,,,,,,,,,,,,,,,,,,,,,,,,,,,,,,,,,,,,,,,,,,,,,,,,,,,388.7134858999634,388.7296909999568,389.2133290999336,389.2133290999336,389.2133290999336,389.2133290999336,389.22995509998873,389.51332759996876,389.51332759996876,389.51332759996876,389.5306031999644,m,0.31160510005429387,None,389.5310370000079,389.5467259999132,390.54708359995857,390.5308427999262,,,,,,,,,,,,,,,,,,,,,,,,,,,,,,,,,,,,,,,,,,,,,,,,,,,,,,,,,,,,,,,,,,,,,,,,,,,,,A_12,001,2024-11-29_17h18.18.706,untitled,2024.1.5,None,2024-11-29 17h18.36.594259 +0530,
triangle.png,stranger,0,Z,,,,,,,,,26,2,106,3,,,,,,,,,390.54708359995857,,,,,,,,,,,,,,,,,,,,,,,,,,,,,,,,,,,,,,,,,,,,,,,,,,,,,,,,,,,,390.5312036999967,390.54708359995857,391.030720599927,391.030720599927,391.030720599927,391.030720599927,391.047459699912,391.331038699951,391.331038699951,391.331038699951,391.9154018999543,z,0.881898200022988,None,391.91583700000774,391.9313627999509,392.93164409999736,392.9155707999598,,,,,,,,,,,,,,,,,,,,,,,,,,,,,,,,,,,,,,,,,,,,,,,,,,,,,,,,,,,,,,,,,,,,,,,,,,,,,A_12,001,2024-11-29_17h18.18.706,untitled,2024.1.5,None,2024-11-29 17h18.36.594259 +0530,
square.png,you,0,Z,,,,,,,,,26,3,107,2,,,,,,,,,392.93164409999736,,,,,,,,,,,,,,,,,,,,,,,,,,,,,,,,,,,,,,,,,,,,,,,,,,,,,,,,,,,,392.9159255999839,392.93164409999736,393.41541499993764,393.41541499993764,393.41541499993764,393.41541499993764,393.4318979999516,393.71546460001264,393.71546460001264,393.71546460001264,394.34979369991925,z,0.9257766000228003,None,394.3502382999286,394.36568549997173,395.3663002999965,395.3499241999816,,,,,,,,,,,,,,,,,,,,,,,,,,,,,,,,,,,,,,,,,,,,,,,,,,,,,,,,,,,,,,,,,,,,,,,,,,,,,A_12,001,2024-11-29_17h18.18.706,untitled,2024.1.5,None,2024-11-29 17h18.36.594259 +0530,
triangle.png,you,1,M,,,,,,,,,27,0,108,1,,,,,,,,,395.3663002999965,,,,,,,,,,,,,,,,,,,,,,,,,,,,,,,,,,,,,,,,,,,,,,,,,,,,,,,,,,,,395.35028060001787,395.3663002999965,395.8500933999894,395.8500933999894,395.8500933999894,395.8500933999894,395.86672859999817,396.150105800014,396.150105800014,396.150105800014,396.38435750000644,m,0.5262050000019372,None,396.38480479991995,396.4002699999837,397.4007405999582,397.38439139991533,,,,,,,,,,,,,,,,,,,,,,,,,,,,,,,,,,,,,,,,,,,,,,,,,,,,,,,,,,,,,,,,,,,,,,,,,,,,,A_12,001,2024-11-29_17h18.18.706,untitled,2024.1.5,None,2024-11-29 17h18.36.594259 +0530,
triangle.png,stranger,0,Z,,,,,,,,,27,1,109,3,,,,,,,,,397.4007405999582,,,,,,,,,,,,,,,,,,,,,,,,,,,,,,,,,,,,,,,,,,,,,,,,,,,,,,,,,,,,397.38474919996224,397.4007405999582,397.8844630999956,397.8844630999956,397.8844630999956,397.8844630999956,397.90086029993836,398.18436279997695,398.18436279997695,398.18436279997695,398.6188569999067,z,0.7270824000006542,None,398.6192898999434,398.634503499954,399.6352235999657,399.61901529994793,,,,,,,,,,,,,,,,,,,,,,,,,,,,,,,,,,,,,,,,,,,,,,,,,,,,,,,,,,,,,,,,,,,,,,,,,,,,,A_12,001,2024-11-29_17h18.18.706,untitled,2024.1.5,None,2024-11-29 17h18.36.594259 +0530,
square.png,you,0,Z,,,,,,,,,27,2,110,2,,,,,,,,,399.6352235999657,,,,,,,,,,,,,,,,,,,,,,,,,,,,,,,,,,,,,,,,,,,,,,,,,,,,,,,,,,,,399.61938579997513,399.6352235999657,400.1186174999457,400.1186174999457,400.1186174999457,400.1186174999457,400.13521079998463,400.41884649998974,400.41884649998974,400.41884649998974,400.9197195000015,z,0.7859991000732407,None,400.920166399912,400.93557799991686,401.9362780000083,401.92016779992264,,,,,,,,,,,,,,,,,,,,,,,,,,,,,,,,,,,,,,,,,,,,,,,,,,,,,,,,,,,,,,,,,,,,,,,,,,,,,A_12,001,2024-11-29_17h18.18.706,untitled,2024.1.5,None,2024-11-29 17h18.36.594259 +0530,
square.png,stranger,1,M,,,,,,,,,27,3,111,0,,,,,,,,,401.9362780000083,,,,,,,,,,,,,,,,,,,,,,,,,,,,,,,,,,,,,,,,,,,,,,,,,,,,,,,,,,,,401.92052399995737,401.9362780000083,402.420115099987,402.420115099987,402.420115099987,402.420115099987,402.43671699997503,402.7199062999571,402.7199062999571,402.7199062999571,402.8206552999327,z,0.39143369998782873,None,402.8210863999557,402.8367524999194,403.8373485999182,403.8210170000093,,,,,,,,,,,,,,,,,,,,,,,,,,,,,,,,,,,,,,,,,,,,,,,,,,,,,,,,,,,,,,,,,,,,,,,,,,,,,A_12,001,2024-11-29_17h18.18.706,untitled,2024.1.5,None,2024-11-29 17h18.36.594259 +0530,
square.png,you,0,Z,,,,,,,,,28,0,112,2,,,,,,,,,403.8373485999182,,,,,,,,,,,,,,,,,,,,,,,,,,,,,,,,,,,,,,,,,,,,,,,,,,,,,,,,,,,,403.8213752999436,403.8373485999182,404.32127479999326,404.32127479999326,404.32127479999326,404.32127479999326,404.33784910000395,404.62080309994053,404.62080309994053,404.62080309994053,404.93856399995275,m,0.6117142000002787,None,404.93901699990965,404.954205899965,405.9552307999693,405.93880309991073,,,,,,,,,,,,,,,,,,,,,,,,,,,,,,,,,,,,,,,,,,,,,,,,,,,,,,,,,,,,,,,,,,,,,,,,,,,,,A_12,001,2024-11-29_17h18.18.706,untitled,2024.1.5,None,2024-11-29 17h18.36.594259 +0530,
triangle.png,you,1,M,,,,,,,,,28,1,113,1,,,,,,,,,405.9552307999693,,,,,,,,,,,,,,,,,,,,,,,,,,,,,,,,,,,,,,,,,,,,,,,,,,,,,,,,,,,,405.9391646999866,405.9552307999693,406.43855630001053,406.43855630001053,406.43855630001053,406.43855630001053,406.45539149991237,406.73875329992734,406.73875329992734,406.73875329992734,406.80623380001634,m,0.3531533000059426,None,406.8066676999442,406.82227090001106,407.8225829999428,407.8065395000158,,,,,,,,,,,,,,,,,,,,,,,,,,,,,,,,,,,,,,,,,,,,,,,,,,,,,,,,,,,,,,,,,,,,,,,,,,,,,A_12,001,2024-11-29_17h18.18.706,untitled,2024.1.5,None,2024-11-29 17h18.36.594259 +0530,
square.png,stranger,1,M,,,,,,,,,28,2,114,0,,,,,,,,,407.8225829999428,,,,,,,,,,,,,,,,,,,,,,,,,,,,,,,,,,,,,,,,,,,,,,,,,,,,,,,,,,,,407.8068943999242,407.8225829999428,408.30627649999224,408.30627649999224,408.30627649999224,408.30627649999224,408.32310499995947,408.60646759998053,408.60646759998053,408.60646759998053,409.12412349996157,z,0.8025757999857888,None,409.1245538999792,409.1402189999353,410.1404177999357,410.12395489995833,,,,,,,,,,,,,,,,,,,,,,,,,,,,,,,,,,,,,,,,,,,,,,,,,,,,,,,,,,,,,,,,,,,,,,,,,,,,,A_12,001,2024-11-29_17h18.18.706,untitled,2024.1.5,None,2024-11-29 17h18.36.594259 +0530,
triangle.png,stranger,0,Z,,,,,,,,,28,3,115,3,,,,,,,,,410.1404177999357,,,,,,,,,,,,,,,,,,,,,,,,,,,,,,,,,,,,,,,,,,,,,,,,,,,,,,,,,,,,410.1243181999307,410.1404177999357,410.6243944999296,410.6243944999296,410.6243944999296,410.6243944999296,410.6411196999252,410.9241419999162,410.9241419999162,410.9241419999162,411.1749776999932,z,0.539906800026074,None,411.1754057999933,411.1911942999577,412.19160299992654,412.1754106999142,,,,,,,,,,,,,,,,,,,,,,,,,,,,,,,,,,,,,,,,,,,,,,,,,,,,,,,,,,,,,,,,,,,,,,,,,,,,,A_12,001,2024-11-29_17h18.18.706,untitled,2024.1.5,None,2024-11-29 17h18.36.594259 +0530,
triangle.png,stranger,0,Z,,,,,,,,,29,0,116,3,,,,,,,,,412.19160299992654,,,,,,,,,,,,,,,,,,,,,,,,,,,,,,,,,,,,,,,,,,,,,,,,,,,,,,,,,,,,412.1757654999383,412.19160299992654,412.6754101999104,412.6754101999104,412.6754101999104,412.6754101999104,412.6920524999732,412.97531369992066,412.97531369992066,412.97531369992066,412.99260989995673,z,0.3016137999948114,None,412.99304430000484,413.0087541999528,414.00910419994034,413.99297279992606,,,,,,,,,,,,,,,,,,,,,,,,,,,,,,,,,,,,,,,,,,,,,,,,,,,,,,,,,,,,,,,,,,,,,,,,,,,,,A_12,001,2024-11-29_17h18.18.706,untitled,2024.1.5,None,2024-11-29 17h18.36.594259 +0530,
triangle.png,you,1,M,,,,,,,,,29,1,117,1,,,,,,,,,414.00910419994034,,,,,,,,,,,,,,,,,,,,,,,,,,,,,,,,,,,,,,,,,,,,,,,,,,,,,,,,,,,,413.9933302999707,414.00910419994034,414.49271489994135,414.49271489994135,414.49271489994135,414.49271489994135,414.5093779999297,414.7930742999306,414.7930742999306,414.7930742999306,414.9603183999425,m,0.45176500000525266,None,414.96075779991224,414.97639450000133,415.9769454000052,415.9603793999413,,,,,,,,,,,,,,,,,,,,,,,,,,,,,,,,,,,,,,,,,,,,,,,,,,,,,,,,,,,,,,,,,,,,,,,,,,,,,A_12,001,2024-11-29_17h18.18.706,untitled,2024.1.5,None,2024-11-29 17h18.36.594259 +0530,
square.png,you,0,Z,,,,,,,,,29,2,118,2,,,,,,,,,415.9769454000052,,,,,,,,,,,,,,,,,,,,,,,,,,,,,,,,,,,,,,,,,,,,,,,,,,,,,,,,,,,,415.9607446999289,415.9769454000052,416.4604570999509,416.4604570999509,416.4604570999509,416.4604570999509,416.47717480000574,416.76045369997155,416.76045369997155,416.76045369997155,416.794700199971,m,0.327121099922806,None,416.7951306999894,416.81072159996256,417.81107399996836,417.7949676999124,,,,,,,,,,,,,,,,,,,,,,,,,,,,,,,,,,,,,,,,,,,,,,,,,,,,,,,,,,,,,,,,,,,,,,,,,,,,,A_12,001,2024-11-29_17h18.18.706,untitled,2024.1.5,None,2024-11-29 17h18.36.594259 +0530,
square.png,stranger,1,M,,,,,,,,,29,3,119,0,,,,,,,,,417.81107399996836,,,,,,,,,,,,,,,,,,,,,,,,,,,,,,,,,,,,,,,,,,,,,,,,,,,,,,,,,,,,417.7953267999692,417.81107399996836,418.2949528999161,418.2949528999161,418.2949528999161,418.2949528999161,418.3112906999886,418.5948476999765,418.5948476999765,418.5948476999765,419.22915269993246,m,0.9294152000220492,None,419.2295924000209,419.245098699932,420.2455893999431,420.22945769992657,,,,,,,,,,,,,,,,,,,,,,,,,,,,,,,,,,,,,,,,,,,,,,,,,,,,,,,,,,,,,,,,,,,,,,,,,,,,,A_12,001,2024-11-29_17h18.18.706,untitled,2024.1.5,None,2024-11-29 17h18.36.594259 +0530,
square.png,stranger,1,M,,,,,,,,,30,0,120,0,,,,,,,,,420.2455893999431,,,,,,,,,,,,,,,,,,,,,,,,,,,,,,,,,,,,,,,,,,,,,,,,,,,,,,,,,,,,420.2298204000108,420.2455893999431,420.72924119990785,420.72924119990785,420.72924119990785,420.72924119990785,420.7458607999142,421.0293232999975,421.0293232999975,421.0293232999975,421.26370279991534,z,0.5191266000038013,None,421.2641387999756,421.2798171999166,422.2799897999503,422.2637301000068,,,,,,,,,,,,,,,,,,,,,,,,,,,,,,,,,,,,,,,,,,,,,,,,,,,,,,,,,,,,,,,,,,,,,,,,,,,,,A_12,001,2024-11-29_17h18.18.706,untitled,2024.1.5,None,2024-11-29 17h18.36.594259 +0530,
triangle.png,you,1,M,,,,,,,,,30,1,121,1,,,,,,,,,422.2799897999503,,,,,,,,,,,,,,,,,,,,,,,,,,,,,,,,,,,,,,,,,,,,,,,,,,,,,,,,,,,,422.2640891999472,422.2799897999503,422.76369709998835,422.76369709998835,422.76369709998835,422.76369709998835,422.7805550999474,423.06398420000914,423.06398420000914,423.06398420000914,423.1811957999598,m,0.40164589998312294,None,423.18163170001935,423.1972045999719,424.1975151000079,424.18142549996264,,,,,,,,,,,,,,,,,,,,,,,,,,,,,,,,,,,,,,,,,,,,,,,,,,,,,,,,,,,,,,,,,,,,,,,,,,,,,A_12,001,2024-11-29_17h18.18.706,untitled,2024.1.5,None,2024-11-29 17h18.36.594259 +0530,
square.png,you,0,Z,,,,,,,,,30,2,122,2,,,,,,,,,424.1975151000079,,,,,,,,,,,,,,,,,,,,,,,,,,,,,,,,,,,,,,,,,,,,,,,,,,,,,,,,,,,,424.1817900999449,424.1975151000079,424.68141409999225,424.68141409999225,424.68141409999225,424.68141409999225,424.69795289996546,424.98129779996816,424.98129779996816,424.98129779996816,425.0655752000166,m,0.3755760999629274,None,425.0660039000213,425.081706799916,426.08219340001233,426.0659327999456,,,,,,,,,,,,,,,,,,,,,,,,,,,,,,,,,,,,,,,,,,,,,,,,,,,,,,,,,,,,,,,,,,,,,,,,,,,,,A_12,001,2024-11-29_17h18.18.706,untitled,2024.1.5,None,2024-11-29 17h18.36.594259 +0530,
triangle.png,stranger,0,Z,,,,,,,,,30,3,123,3,,,,,,,,,426.08219340001233,,,,,,,,,,,,,,,,,,,,,,,,,,,,,,,,,,,,,,,,,,,,,,,,,,,,,,,,,,,,426.06629069999326,426.08219340001233,426.56594499992207,426.56594499992207,426.56594499992207,426.56594499992207,426.58229940000456,426.8657186999917,426.8657186999917,426.8657186999917,427.6500557999825,None,,,427.6502497999463,427.6661162999226,428.6668100999668,428.65045879990794,427.6661162999226,,,,,,,,,,,,,,,,,,,,,,,,,,,,,,,,,,,,,,,,,,,,,,,,,,,,,,,,,,,,,,,,,,,,,,,,,,,,A_12,001,2024-11-29_17h18.18.706,untitled,2024.1.5,None,2024-11-29 17h18.36.594259 +0530,
triangle.png,stranger,0,Z,,,,,,,,,31,0,124,3,,,,,,,,,428.6668100999668,,,,,,,,,,,,,,,,,,,,,,,,,,,,,,,,,,,,,,,,,,,,,,,,,,,,,,,,,,,,428.65081609995104,428.6668100999668,429.16695649991743,429.16695649991743,429.16695649991743,429.16695649991743,429.16695649991743,429.46718139993027,429.46718139993027,429.46718139993027,429.7514441999374,m,0.5815578000620008,None,429.75187199993525,429.7673778999597,430.7676843999652,430.7515877999831,,,,,,,,,,,,,,,,,,,,,,,,,,,,,,,,,,,,,,,,,,,,,,,,,,,,,,,,,,,,,,,,,,,,,,,,,,,,,A_12,001,2024-11-29_17h18.18.706,untitled,2024.1.5,None,2024-11-29 17h18.36.594259 +0530,
square.png,stranger,1,M,,,,,,,,,31,1,125,0,,,,,,,,,430.7676843999652,,,,,,,,,,,,,,,,,,,,,,,,,,,,,,,,,,,,,,,,,,,,,,,,,,,,,,,,,,,,430.7519465999212,430.7676843999652,431.2513649999164,431.2513649999164,431.2513649999164,431.2513649999164,431.2680731000146,431.5514641000191,431.5514641000191,431.5514641000191,431.9026113,z,0.6378267999971285,None,431.90304529992864,431.9183065999532,432.9188147999812,432.90253069996834,,,,,,,,,,,,,,,,,,,,,,,,,,,,,,,,,,,,,,,,,,,,,,,,,,,,,,,,,,,,,,,,,,,,,,,,,,,,,A_12,001,2024-11-29_17h18.18.706,untitled,2024.1.5,None,2024-11-29 17h18.36.594259 +0530,
square.png,you,0,Z,,,,,,,,,31,2,126,2,,,,,,,,,432.9188147999812,,,,,,,,,,,,,,,,,,,,,,,,,,,,,,,,,,,,,,,,,,,,,,,,,,,,,,,,,,,,432.9028857999947,432.9188147999812,433.4027186000021,433.4027186000021,433.4027186000021,433.4027186000021,433.41931939998176,433.702462599962,433.702462599962,433.702462599962,434.0368037999142,z,0.6298946000169963,None,434.0372469999129,434.0526470999466,435.0531886999961,435.0371518000029,,,,,,,,,,,,,,,,,,,,,,,,,,,,,,,,,,,,,,,,,,,,,,,,,,,,,,,,,,,,,,,,,,,,,,,,,,,,,A_12,001,2024-11-29_17h18.18.706,untitled,2024.1.5,None,2024-11-29 17h18.36.594259 +0530,
triangle.png,you,1,M,,,,,,,,,31,3,127,1,,,,,,,,,435.0531886999961,,,,,,,,,,,,,,,,,,,,,,,,,,,,,,,,,,,,,,,,,,,,,,,,,,,,,,,,,,,,435.03751599998213,435.0531886999961,435.5370340999216,435.5370340999216,435.5370340999216,435.5370340999216,435.55356599995866,435.83696549991146,435.83696549991146,435.83696549991146,436.1046022999799,m,0.5601695000659674,None,436.10503679991234,436.120705600013,437.12104339990765,437.1047874999931,,,,,,,,,,,,,,,,,,,,,,,,,,,,,,,,,,,,,,,,,,,,,,,,,,,,,,,,,,,,,,,,,,,,,,,,,,,,,A_12,001,2024-11-29_17h18.18.706,untitled,2024.1.5,None,2024-11-29 17h18.36.594259 +0530,
square.png,stranger,1,M,,,,,,,,,32,0,128,0,,,,,,,,,437.12104339990765,,,,,,,,,,,,,,,,,,,,,,,,,,,,,,,,,,,,,,,,,,,,,,,,,,,,,,,,,,,,437.10514929995406,437.12104339990765,437.6050705999369,437.6050705999369,437.6050705999369,437.6050705999369,437.62128720001783,437.9048649999313,437.9048649999313,437.9048649999313,438.30584669997916,z,0.6916690000798553,None,438.3062879999634,438.3216228999663,439.3225051999325,439.3059718000004,,,,,,,,,,,,,,,,,,,,,,,,,,,,,,,,,,,,,,,,,,,,,,,,,,,,,,,,,,,,,,,,,,,,,,,,,,,,,A_12,001,2024-11-29_17h18.18.706,untitled,2024.1.5,None,2024-11-29 17h18.36.594259 +0530,
square.png,you,0,Z,,,,,,,,,32,1,129,2,,,,,,,,,439.3225051999325,,,,,,,,,,,,,,,,,,,,,,,,,,,,,,,,,,,,,,,,,,,,,,,,,,,,,,,,,,,,439.3063263000222,439.3225051999325,439.8057699999772,439.8057699999772,439.8057699999772,439.8057699999772,439.82258499995805,440.1057771999622,440.1057771999622,440.1057771999622,440.8901633999776,None,,,440.89035399991553,440.9062320999801,441.9067117999075,441.8907465999946,440.9062320999801,,,,,,,,,,,,,,,,,,,,,,,,,,,,,,,,,,,,,,,,,,,,,,,,,,,,,,,,,,,,,,,,,,,,,,,,,,,,A_12,001,2024-11-29_17h18.18.706,untitled,2024.1.5,None,2024-11-29 17h18.36.594259 +0530,
triangle.png,stranger,0,Z,,,,,,,,,32,2,130,3,,,,,,,,,441.9067117999075,,,,,,,,,,,,,,,,,,,,,,,,,,,,,,,,,,,,,,,,,,,,,,,,,,,,,,,,,,,,441.89110219990835,441.9067117999075,442.40716339997016,442.40716339997016,442.40716339997016,442.40716339997016,442.40716339997016,442.7070746999234,442.7070746999234,442.7070746999234,442.95818760001566,m,0.5489275000290945,None,442.9586273999885,442.9741478000069,443.9746844000183,443.958189799916,,,,,,,,,,,,,,,,,,,,,,,,,,,,,,,,,,,,,,,,,,,,,,,,,,,,,,,,,,,,,,,,,,,,,,,,,,,,,A_12,001,2024-11-29_17h18.18.706,untitled,2024.1.5,None,2024-11-29 17h18.36.594259 +0530,
triangle.png,you,1,M,,,,,,,,,32,3,131,1,,,,,,,,,443.9746844000183,,,,,,,,,,,,,,,,,,,,,,,,,,,,,,,,,,,,,,,,,,,,,,,,,,,,,,,,,,,,443.95854129991494,443.9746844000183,444.45827740000095,444.45827740000095,444.45827740000095,444.45827740000095,444.47498539998196,,,,444.52580339997075,z,0.05799599993042648,None,444.5262377000181,444.5416810999159,445.54197869997006,445.5257098999573,,,,,,,,,,,,,,,,,,,,,,,,,,,,,,,,,,,,,,,,,,,,,,,,,,,,,,,,,,,,,,,,,,,,,,,,,,,,,A_12,001,2024-11-29_17h18.18.706,untitled,2024.1.5,None,2024-11-29 17h18.36.594259 +0530,
square.png,you,0,Z,,,,,,,,,33,0,132,2,,,,,,,,,445.54197869997006,,,,,,,,,,,,,,,,,,,,,,,,,,,,,,,,,,,,,,,,,,,,,,,,,,,,,,,,,,,,445.5260603999486,445.54197869997006,446.02551649999805,446.02551649999805,446.02551649999805,446.02551649999805,446.04234589997213,446.32580250001047,446.32580250001047,446.32580250001047,447.1097971999552,None,,,447.10998649999965,447.12636379990727,448.1267382999649,448.1106129999971,447.12636379990727,,,,,,,,,,,,,,,,,,,,,,,,,,,,,,,,,,,,,,,,,,,,,,,,,,,,,,,,,,,,,,,,,,,,,,,,,,,,A_12,001,2024-11-29_17h18.18.706,untitled,2024.1.5,None,2024-11-29 17h18.36.594259 +0530,
triangle.png,stranger,0,Z,,,,,,,,,33,1,133,3,,,,,,,,,448.1267382999649,,,,,,,,,,,,,,,,,,,,,,,,,,,,,,,,,,,,,,,,,,,,,,,,,,,,,,,,,,,,448.1109683999093,448.1267382999649,448.6269841999747,448.6269841999747,448.6269841999747,448.6269841999747,448.6269841999747,,,,448.7278152999934,m,None,None,448.7283704999136,448.7435133999679,449.7442124999361,449.7277520999778,,,,,,,,,,,,,,,,,,,,,,,,,,,,,,,,,,,,,,,,,,,,,,,,,,,,,,,,,,,,,,,,,,,,,,,,,,,,,A_12,001,2024-11-29_17h18.18.706,untitled,2024.1.5,None,2024-11-29 17h18.36.594259 +0530,
square.png,stranger,1,M,,,,,,,,,33,2,134,0,,,,,,,,,449.7442124999361,,,,,,,,,,,,,,,,,,,,,,,,,,,,,,,,,,,,,,,,,,,,,,,,,,,,,,,,,,,,449.7281139999395,449.7442124999361,450.2278610999929,450.2278610999929,450.2278610999929,450.2278610999929,450.24470319994725,450.5279079999309,450.5279079999309,450.5279079999309,451.3119507000083,None,,,451.31214379996527,451.32842729997355,452.32868059992325,452.31249859998934,451.32842729997355,,,,,,,,,,,,,,,,,,,,,,,,,,,,,,,,,,,,,,,,,,,,,,,,,,,,,,,,,,,,,,,,,,,,,,,,,,,,A_12,001,2024-11-29_17h18.18.706,untitled,2024.1.5,None,2024-11-29 17h18.36.594259 +0530,
triangle.png,you,1,M,,,,,,,,,33,3,135,1,,,,,,,,,452.32868059992325,,,,,,,,,,,,,,,,,,,,,,,,,,,,,,,,,,,,,,,,,,,,,,,,,,,,,,,,,,,,452.3128569999244,452.32868059992325,452.82940009993035,452.82940009993035,452.82940009993035,452.82940009993035,452.82940009993035,453.1292051000055,453.1292051000055,453.1292051000055,453.1300034999149,m,0.2955921000102535,None,453.1304217999568,453.14595279993955,454.14652969990857,454.13033139996696,,,,,,,,,,,,,,,,,,,,,,,,,,,,,,,,,,,,,,,,,,,,,,,,,,,,,,,,,,,,,,,,,,,,,,,,,,,,,A_12,001,2024-11-29_17h18.18.706,untitled,2024.1.5,None,2024-11-29 17h18.36.594259 +0530,
triangle.png,stranger,0,Z,,,,,,,,,34,0,136,3,,,,,,,,,454.14652969990857,,,,,,,,,,,,,,,,,,,,,,,,,,,,,,,,,,,,,,,,,,,,,,,,,,,,,,,,,,,,454.1306899000192,454.14652969990857,454.6301558999112,454.6301558999112,454.6301558999112,454.6301558999112,454.64690859999973,454.9302894999273,454.9302894999273,454.9302894999273,455.3308971999213,z,0.6950045999838039,None,455.3313034999883,455.34720309998374,456.34757589991204,456.33124410000164,,,,,,,,,,,,,,,,,,,,,,,,,,,,,,,,,,,,,,,,,,,,,,,,,,,,,,,,,,,,,,,,,,,,,,,,,,,,,A_12,001,2024-11-29_17h18.18.706,untitled,2024.1.5,None,2024-11-29 17h18.36.594259 +0530,
triangle.png,you,1,M,,,,,,,,,34,1,137,1,,,,,,,,,456.34757589991204,,,,,,,,,,,,,,,,,,,,,,,,,,,,,,,,,,,,,,,,,,,,,,,,,,,,,,,,,,,,456.33160449995194,456.34757589991204,456.8315003999742,456.8315003999742,456.8315003999742,456.8315003999742,456.8478163999971,457.13127189991064,457.13127189991064,457.13127189991064,457.34903669997584,m,0.5040449999505654,None,457.349441499915,457.36489199998323,458.3652184999082,458.3492005999433,,,,,,,,,,,,,,,,,,,,,,,,,,,,,,,,,,,,,,,,,,,,,,,,,,,,,,,,,,,,,,,,,,,,,,,,,,,,,A_12,001,2024-11-29_17h18.18.706,untitled,2024.1.5,None,2024-11-29 17h18.36.594259 +0530,
square.png,you,0,Z,,,,,,,,,34,2,138,2,,,,,,,,,458.3652184999082,,,,,,,,,,,,,,,,,,,,,,,,,,,,,,,,,,,,,,,,,,,,,,,,,,,,,,,,,,,,458.3495591999963,458.3652184999082,458.8488149999175,458.8488149999175,458.8488149999175,458.8488149999175,458.8654329999117,459.14902779995464,459.14902779995464,459.14902779995464,459.9332482999889,None,,,459.9334443999687,459.9495568999555,460.9499997999519,460.93399569997564,459.9495568999555,,,,,,,,,,,,,,,,,,,,,,,,,,,,,,,,,,,,,,,,,,,,,,,,,,,,,,,,,,,,,,,,,,,,,,,,,,,,A_12,001,2024-11-29_17h18.18.706,untitled,2024.1.5,None,2024-11-29 17h18.36.594259 +0530,
