stimulus,label,is_match,shouldpress,stimulus_2,label_2,is_match_2,shouldpress_2,p_trials.thisRepN,p_trials.thisTrialN,p_trials.thisN,p_trials.thisIndex,trials.thisRepN,trials.thisTrialN,trials.thisN,trials.thisIndex,p_trials_2.thisRepN,p_trials_2.thisTrialN,p_trials_2.thisN,p_trials_2.thisIndex,trials_2.thisRepN,trials_2.thisTrialN,trials_2.thisN,trials_2.thisIndex,thisRow.t,notes,Intruduction.started,text_3.started,key_resp_2.started,Intruduction.stopped,key_resp_2.keys,key_resp_2.rt,key_resp_2.duration,self_other_instructions.started,text_4.started,key_resp_3.started,self_other_instructions.stopped,key_resp_3.keys,key_resp_3.rt,key_resp_3.duration,self_other_info.started,square_image.started,triangle_image.started,self_label.started,other_label.started,key_resp_4.started,text_5.started,self_other_info.stopped,key_resp_4.keys,key_resp_4.rt,key_resp_4.duration,self_other_starting_2.started,text_6.started,key_resp_5.started,self_other_starting_2.stopped,key_resp_5.keys,key_resp_5.rt,key_resp_5.duration,practice1.started,p_fication.started,p_fixation_3.started,p_text.started,key_resp_p.started,p_image.started,p_fication.stopped,p_fixation_3.stopped,p_text.stopped,p_image.stopped,practice1.stopped,key_resp_p.keys,key_resp_p.rt,key_resp_p.duration,p_feedback.started,text_15.started,text_15.stopped,p_feedback.stopped,key_resp_p.stopped,start2.started,start_2.started,key_resp_11.started,start2.stopped,key_resp_11.keys,key_resp_11.rt,key_resp_11.duration,trial.started,fixation.started,fixation_3.started,text.started,key_resp.started,image.started,fixation.stopped,fixation_3.stopped,text.stopped,image.stopped,key_resp.stopped,trial.stopped,key_resp.keys,feedback.started,text_2.started,text_2.stopped,feedback.stopped,key_resp.rt,key_resp.duration,break_3.started,text_13.started,text_14.started,key_resp_10.started,text_13.stopped,break_3.stopped,key_resp_10.keys,key_resp_10.rt,key_resp_10.duration,self_other_instructions_2.started,text_10.started,key_resp_7.started,self_other_instructions_2.stopped,key_resp_7.keys,key_resp_7.rt,key_resp_7.duration,self_other_intro_2.started,circle_image.started,diamond_image.started,Disgusting_self_lable.started,Desirable_self_lable.started,key_resp_8.started,text_11.started,self_other_intro_2.stopped,key_resp_8.keys,key_resp_8.rt,key_resp_8.duration,self_other_starting_3.started,text_12.started,key_resp_9.started,self_other_starting_3.stopped,key_resp_9.keys,key_resp_9.rt,key_resp_9.duration,practice2.started,p_fixation_2.started,p_fixation_4.started,p_text_8.started,key_resp_6_p.started,p_image_2.started,p_fixation_2.stopped,p_fixation_4.stopped,p_text_8.stopped,p_image_2.stopped,practice2.stopped,key_resp_6_p.keys,key_resp_6_p.rt,key_resp_6_p.duration,feedback_2_p.started,text_16.started,text_16.stopped,feedback_2_p.stopped,key_resp_6_p.stopped,trial_2.started,fixation_2.started,fixation_4.started,text_8.started,key_resp_6.started,image_2.started,fixation_2.stopped,fixation_4.stopped,text_8.stopped,image_2.stopped,trial_2.stopped,key_resp_6.keys,key_resp_6.rt,key_resp_6.duration,feedback_2.started,text_9.started,text_9.stopped,feedback_2.stopped,key_resp_6.stopped,Thank_you.started,text_7.started,text_7.stopped,Thank_you.stopped,participant,session,date,expName,psychopyVersion,frameRate,expStart,
,,,,,,,,,,,,,,,,,,,,,,,,,,0.0027018999971915036,0.006427000000257976,0.006427000000257976,5.734734999998182,space,5.724772399997164,None,,,,,,,,,,,,,,,,,,,,,,,,,,,,,,,,,,,,,,,,,,,,,,,,,,,,,,,,,,,,,,,,,,,,,,,,,,,,,,,,,,,,,,,,,,,,,,,,,,,,,,,,,,,,,,,,,,,,,,,,,,,,,,,,,,,,,,,,,,,,,,,,,,,A_13,001,2024-11-30_10h16.16.809,untitled,2024.1.5,None,2024-11-30 10h16.31.354464 +0530,
,,,,,,,,,,,,,,,,,,,,,,,,,,,,,,,,,5.734760399995139,5.7485722999990685,5.7485722999990685,18.62260189999506,space,12.870774900002289,None,,,,,,,,,,,,,,,,,,,,,,,,,,,,,,,,,,,,,,,,,,,,,,,,,,,,,,,,,,,,,,,,,,,,,,,,,,,,,,,,,,,,,,,,,,,,,,,,,,,,,,,,,,,,,,,,,,,,,,,,,,,,,,,,,,,,,,,,,,,,A_13,001,2024-11-30_10h16.16.809,untitled,2024.1.5,None,2024-11-30 10h16.31.354464 +0530,
,,,,,,,,,,,,,,,,,,,,,,,,,,,,,,,,,,,,,,,,18.622628299999633,18.655388200000743,18.655388200000743,18.655388200000743,18.655388200000743,18.655388200000743,18.655388200000743,70.84834440000122,space,52.179307600003085,None,,,,,,,,,,,,,,,,,,,,,,,,,,,,,,,,,,,,,,,,,,,,,,,,,,,,,,,,,,,,,,,,,,,,,,,,,,,,,,,,,,,,,,,,,,,,,,,,,,,,,,,,,,,,,,,,,,,,,,,,,,,,,,,,,A_13,001,2024-11-30_10h16.16.809,untitled,2024.1.5,None,2024-11-30 10h16.31.354464 +0530,
,,,,,,,,,,,,,,,,,,,,,,,,,,,,,,,,,,,,,,,,,,,,,,,,,,,70.84837339999649,70.86429819999466,70.86429819999466,92.65980570000102,space,21.779567999998108,None,,,,,,,,,,,,,,,,,,,,,,,,,,,,,,,,,,,,,,,,,,,,,,,,,,,,,,,,,,,,,,,,,,,,,,,,,,,,,,,,,,,,,,,,,,,,,,,,,,,,,,,,,,,,,,,,,,,,,,,,,,A_13,001,2024-11-30_10h16.16.809,untitled,2024.1.5,None,2024-11-30 10h16.31.354464 +0530,
triangle.png,you,1,M,,,,,0,0,0,1,,,,,,,,,,,,,92.6766392999998,,,,,,,,,,,,,,,,,,,,,,,,,,,,,,,,,,92.66606689999753,92.6766392999998,93.17562769999495,93.17562769999495,93.17562769999495,93.17562769999495,93.19206639999902,93.47536069999478,93.47536069999478,93.47536069999478,94.04335909999645,z,0.8548368999981903,None,94.0437552000003,94.05935209999734,95.05976069999451,95.04350349999731,,,,,,,,,,,,,,,,,,,,,,,,,,,,,,,,,,,,,,,,,,,,,,,,,,,,,,,,,,,,,,,,,,,,,,,,,,,,,,,,,,,,,,,,,,,,,,,,,,,,,,,,A_13,001,2024-11-30_10h16.16.809,untitled,2024.1.5,None,2024-11-30 10h16.31.354464 +0530,
square.png,stranger,1,M,,,,,0,1,1,0,,,,,,,,,,,,,95.05976069999451,,,,,,,,,,,,,,,,,,,,,,,,,,,,,,,,,,95.04374679999455,95.05976069999451,95.54330299999856,95.54330299999856,95.54330299999856,95.54330299999856,95.56017349999456,95.84351159999642,95.84351159999642,95.84351159999642,96.6276646999977,None,,,96.62779449999653,96.64388969999709,97.64446479999606,97.62814439999784,96.64388969999709,,,,,,,,,,,,,,,,,,,,,,,,,,,,,,,,,,,,,,,,,,,,,,,,,,,,,,,,,,,,,,,,,,,,,,,,,,,,,,,,,,,,,,,,,,,,,,,,,,,,,,,A_13,001,2024-11-30_10h16.16.809,untitled,2024.1.5,None,2024-11-30 10h16.31.354464 +0530,
triangle.png,stranger,0,Z,,,,,0,2,2,3,,,,,,,,,,,,,97.64446479999606,,,,,,,,,,,,,,,,,,,,,,,,,,,,,,,,,,97.62838219999685,97.64446479999606,98.14485609999974,98.14485609999974,98.14485609999974,98.14485609999974,98.14485609999974,98.44480179999664,98.44480179999664,98.44480179999664,98.51233990000037,z,0.36252950000198325,None,98.51258869999583,98.52822739999829,99.52873199999885,99.51242970000021,,,,,,,,,,,,,,,,,,,,,,,,,,,,,,,,,,,,,,,,,,,,,,,,,,,,,,,,,,,,,,,,,,,,,,,,,,,,,,,,,,,,,,,,,,,,,,,,,,,,,,,,A_13,001,2024-11-30_10h16.16.809,untitled,2024.1.5,None,2024-11-30 10h16.31.354464 +0530,
square.png,you,0,Z,,,,,0,3,3,2,,,,,,,,,,,,,99.52873199999885,,,,,,,,,,,,,,,,,,,,,,,,,,,,,,,,,,99.51266079999914,99.52873199999885,100.01247589999548,100.01247589999548,100.01247589999548,100.01247589999548,100.0290165999977,100.31227419999777,100.31227419999777,100.31227419999777,100.41297569999733,m,0.39915800000017043,None,100.41321700000117,100.42927100000088,101.4297074999995,101.41349719999562,,,,,,,,,,,,,,,,,,,,,,,,,,,,,,,,,,,,,,,,,,,,,,,,,,,,,,,,,,,,,,,,,,,,,,,,,,,,,,,,,,,,,,,,,,,,,,,,,,,,,,,,A_13,001,2024-11-30_10h16.16.809,untitled,2024.1.5,None,2024-11-30 10h16.31.354464 +0530,
square.png,you,0,Z,,,,,1,0,4,2,,,,,,,,,,,,,101.4297074999995,,,,,,,,,,,,,,,,,,,,,,,,,,,,,,,,,,101.41372669999691,101.4297074999995,101.91333389999636,101.91333389999636,101.91333389999636,101.91333389999636,101.92993919999572,102.21348469999793,102.21348469999793,102.21348469999793,102.46413490000123,z,0.5449971000052756,None,102.46437739999965,102.48022889999993,103.48051799999666,103.46453330000077,,,,,,,,,,,,,,,,,,,,,,,,,,,,,,,,,,,,,,,,,,,,,,,,,,,,,,,,,,,,,,,,,,,,,,,,,,,,,,,,,,,,,,,,,,,,,,,,,,,,,,,,A_13,001,2024-11-30_10h16.16.809,untitled,2024.1.5,None,2024-11-30 10h16.31.354464 +0530,
triangle.png,stranger,0,Z,,,,,1,1,5,3,,,,,,,,,,,,,103.48051799999666,,,,,,,,,,,,,,,,,,,,,,,,,,,,,,,,,,103.46481749999657,103.48051799999666,103.96425520000048,103.96425520000048,103.96425520000048,103.96425520000048,103.98109139999724,104.26449009999487,104.26449009999487,104.26449009999487,104.24873909999587,m,0.2718304000009084,None,104.2489815999943,104.26449009999487,105.26486830000067,105.24860780000017,,,,,,,,,,,,,,,,,,,,,,,,,,,,,,,,,,,,,,,,,,,,,,,,,,,,,,,,,,,,,,,,,,,,,,,,,,,,,,,,,,,,,,,,,,,,,,,,,,,,,,,,A_13,001,2024-11-30_10h16.16.809,untitled,2024.1.5,None,2024-11-30 10h16.31.354464 +0530,
triangle.png,you,1,M,,,,,1,2,6,1,,,,,,,,,,,,,105.26486830000067,,,,,,,,,,,,,,,,,,,,,,,,,,,,,,,,,,105.24883979999868,105.26486830000067,105.7485572000005,105.7485572000005,105.7485572000005,105.7485572000005,105.76520239999809,106.0487204999954,106.0487204999954,106.0487204999954,106.1328136000011,m,0.38304880000214325,None,106.1330633999969,106.14856479999435,107.14936129999842,107.13288819999434,,,,,,,,,,,,,,,,,,,,,,,,,,,,,,,,,,,,,,,,,,,,,,,,,,,,,,,,,,,,,,,,,,,,,,,,,,,,,,,,,,,,,,,,,,,,,,,,,,,,,,,,A_13,001,2024-11-30_10h16.16.809,untitled,2024.1.5,None,2024-11-30 10h16.31.354464 +0530,
square.png,stranger,1,M,,,,,1,3,7,0,,,,,,,,,,,,,107.14936129999842,,,,,,,,,,,,,,,,,,,,,,,,,,,,,,,,,,107.13312020000012,107.14936129999842,107.63283180000144,107.63283180000144,107.63283180000144,107.63283180000144,107.64967400000023,107.9328949999981,107.9328949999981,107.9328949999981,108.05052839999553,z,0.41495230000145966,None,108.05077209999581,108.06643329999497,109.06696559999546,109.05061529999512,,,,,,,,,,,,,,,,,,,,,,,,,,,,,,,,,,,,,,,,,,,,,,,,,,,,,,,,,,,,,,,,,,,,,,,,,,,,,,,,,,,,,,,,,,,,,,,,,,,,,,,,A_13,001,2024-11-30_10h16.16.809,untitled,2024.1.5,None,2024-11-30 10h16.31.354464 +0530,
triangle.png,you,1,M,,,,,2,0,8,1,,,,,,,,,,,,,109.06696559999546,,,,,,,,,,,,,,,,,,,,,,,,,,,,,,,,,,109.05084669999633,109.06696559999546,109.55073089999496,109.55073089999496,109.55073089999496,109.55073089999496,109.56733399999939,109.8504804999975,109.8504804999975,109.8504804999975,110.00157829999807,z,0.4403124000018579,None,110.00182099999802,110.01757779999753,111.01793799999723,111.0016953000013,,,,,,,,,,,,,,,,,,,,,,,,,,,,,,,,,,,,,,,,,,,,,,,,,,,,,,,,,,,,,,,,,,,,,,,,,,,,,,,,,,,,,,,,,,,,,,,,,,,,,,,,A_13,001,2024-11-30_10h16.16.809,untitled,2024.1.5,None,2024-11-30 10h16.31.354464 +0530,
square.png,you,0,Z,,,,,2,1,9,2,,,,,,,,,,,,,111.01793799999723,,,,,,,,,,,,,,,,,,,,,,,,,,,,,,,,,,111.00192249999964,111.01793799999723,111.50182320000022,111.50182320000022,111.50182320000022,111.50182320000022,111.51857029999519,111.80165059999854,111.80165059999854,111.80165059999854,111.91909009999654,m,0.4046392999953241,None,111.91933140000037,111.93506920000073,112.93566329999885,112.91928869999538,,,,,,,,,,,,,,,,,,,,,,,,,,,,,,,,,,,,,,,,,,,,,,,,,,,,,,,,,,,,,,,,,,,,,,,,,,,,,,,,,,,,,,,,,,,,,,,,,,,,,,,,A_13,001,2024-11-30_10h16.16.809,untitled,2024.1.5,None,2024-11-30 10h16.31.354464 +0530,
square.png,stranger,1,M,,,,,2,2,10,0,,,,,,,,,,,,,112.93566329999885,,,,,,,,,,,,,,,,,,,,,,,,,,,,,,,,,,112.91951529999642,112.93566329999885,113.4193787999975,113.4193787999975,113.4193787999975,113.4193787999975,113.43573340000148,113.71906859999581,113.71906859999581,113.71906859999581,113.90361709999706,m,0.46769680000579683,None,113.90389289999439,113.91934709999623,114.9199867999996,114.90364099999715,,,,,,,,,,,,,,,,,,,,,,,,,,,,,,,,,,,,,,,,,,,,,,,,,,,,,,,,,,,,,,,,,,,,,,,,,,,,,,,,,,,,,,,,,,,,,,,,,,,,,,,,A_13,001,2024-11-30_10h16.16.809,untitled,2024.1.5,None,2024-11-30 10h16.31.354464 +0530,
triangle.png,stranger,0,Z,,,,,2,3,11,3,,,,,,,,,,,,,114.9199867999996,,,,,,,,,,,,,,,,,,,,,,,,,,,,,,,,,,114.90386949999811,114.9199867999996,115.4036616999947,115.4036616999947,115.4036616999947,115.4036616999947,115.42025779999676,,,,115.67095999999583,z,0.2601393000004464,None,115.67120040000009,115.68705399999453,116.68754009999975,116.67135659999622,,,,,,,,,,,,,,,,,,,,,,,,,,,,,,,,,,,,,,,,,,,,,,,,,,,,,,,,,,,,,,,,,,,,,,,,,,,,,,,,,,,,,,,,,,,,,,,,,,,,,,,,A_13,001,2024-11-30_10h16.16.809,untitled,2024.1.5,None,2024-11-30 10h16.31.354464 +0530,
triangle.png,you,1,M,,,,,3,0,12,1,,,,,,,,,,,,,116.68754009999975,,,,,,,,,,,,,,,,,,,,,,,,,,,,,,,,,,116.67158550000022,116.68754009999975,117.17138290000003,117.17138290000003,117.17138290000003,117.17138290000003,117.18797590000031,117.47103159999824,117.47103159999824,117.47103159999824,117.52200710000034,m,0.3431895000030636,None,117.52225129999715,117.53800609999598,118.53855969999859,118.52208529999916,,,,,,,,,,,,,,,,,,,,,,,,,,,,,,,,,,,,,,,,,,,,,,,,,,,,,,,,,,,,,,,,,,,,,,,,,,,,,,,,,,,,,,,,,,,,,,,,,,,,,,,,A_13,001,2024-11-30_10h16.16.809,untitled,2024.1.5,None,2024-11-30 10h16.31.354464 +0530,
triangle.png,stranger,0,Z,,,,,3,1,13,3,,,,,,,,,,,,,118.53855969999859,,,,,,,,,,,,,,,,,,,,,,,,,,,,,,,,,,118.52231860000029,118.53855969999859,119.02221589999681,119.02221589999681,119.02221589999681,119.02221589999681,119.0386925999992,119.32212729999446,119.32212729999446,119.32212729999446,119.50644319999992,m,0.4770920000009937,None,119.50668600000063,119.52225869999529,120.52276729999721,120.50668500000029,,,,,,,,,,,,,,,,,,,,,,,,,,,,,,,,,,,,,,,,,,,,,,,,,,,,,,,,,,,,,,,,,,,,,,,,,,,,,,,,,,,,,,,,,,,,,,,,,,,,,,,,A_13,001,2024-11-30_10h16.16.809,untitled,2024.1.5,None,2024-11-30 10h16.31.354464 +0530,
square.png,stranger,1,M,,,,,3,2,14,0,,,,,,,,,,,,,120.52276729999721,,,,,,,,,,,,,,,,,,,,,,,,,,,,,,,,,,120.50691669999651,120.52276729999721,121.00657359999605,121.00657359999605,121.00657359999605,121.00657359999605,121.02314149999438,,,,121.19051659999968,z,0.18058619999646908,None,121.1907590999981,121.20657819999906,122.20686839999689,122.19073819999903,,,,,,,,,,,,,,,,,,,,,,,,,,,,,,,,,,,,,,,,,,,,,,,,,,,,,,,,,,,,,,,,,,,,,,,,,,,,,,,,,,,,,,,,,,,,,,,,,,,,,,,,A_13,001,2024-11-30_10h16.16.809,untitled,2024.1.5,None,2024-11-30 10h16.31.354464 +0530,
square.png,you,0,Z,,,,,3,3,15,2,,,,,,,,,,,,,122.20686839999689,,,,,,,,,,,,,,,,,,,,,,,,,,,,,,,,,,122.19096649999847,122.20686839999689,122.69074569999793,122.69074569999793,122.69074569999793,122.69074569999793,122.70724139999948,,,,122.90814839999803,m,0.2049639000033494,None,122.90839910000068,122.92387379999855,123.9244841999971,123.90810309999506,,,,,,,,,,,,,,,,,,,,,,,,,,,,,,,,,,,,,,,,,,,,,,,,,,,,,,,,,,,,,,,,,,,,,,,,,,,,,,,,,,,,,,,,,,,,,,,,,,,,,,,,A_13,001,2024-11-30_10h16.16.809,untitled,2024.1.5,None,2024-11-30 10h16.31.354464 +0530,
triangle.png,you,1,M,,,,,4,0,16,1,,,,,,,,,,,,,123.9244841999971,,,,,,,,,,,,,,,,,,,,,,,,,,,,,,,,,,123.90833489999932,123.9244841999971,124.40831179999805,124.40831179999805,124.40831179999805,124.40831179999805,124.42474679999577,124.70812559999467,124.70812559999467,124.70812559999467,124.69220819999464,m,0.27097630000207573,None,124.69245089999458,124.70812559999467,125.70867809999618,125.69235900000058,,,,,,,,,,,,,,,,,,,,,,,,,,,,,,,,,,,,,,,,,,,,,,,,,,,,,,,,,,,,,,,,,,,,,,,,,,,,,,,,,,,,,,,,,,,,,,,,,,,,,,,,A_13,001,2024-11-30_10h16.16.809,untitled,2024.1.5,None,2024-11-30 10h16.31.354464 +0530,
triangle.png,stranger,0,Z,,,,,4,1,17,3,,,,,,,,,,,,,125.70867809999618,,,,,,,,,,,,,,,,,,,,,,,,,,,,,,,,,,125.69258550000086,125.70867809999618,126.19241119999788,126.19241119999788,126.19241119999788,126.19241119999788,126.20904399999563,126.4924017999947,126.4924017999947,126.4924017999947,126.54325589999644,z,0.3460960000011255,None,126.54349730000104,126.55900579999434,127.5597981999963,127.54347330000019,,,,,,,,,,,,,,,,,,,,,,,,,,,,,,,,,,,,,,,,,,,,,,,,,,,,,,,,,,,,,,,,,,,,,,,,,,,,,,,,,,,,,,,,,,,,,,,,,,,,,,,,A_13,001,2024-11-30_10h16.16.809,untitled,2024.1.5,None,2024-11-30 10h16.31.354464 +0530,
square.png,you,0,Z,,,,,4,2,18,2,,,,,,,,,,,,,127.5597981999963,,,,,,,,,,,,,,,,,,,,,,,,,,,,,,,,,,127.54369869999937,127.5597981999963,128.04333129999577,128.04333129999577,128.04333129999577,128.04333129999577,128.0599465999985,128.34345939999912,128.34345939999912,128.34345939999912,128.42740229999617,z,0.3710145000004559,None,128.42764499999612,128.44357899999886,129.4440848000013,129.42765510000027,,,,,,,,,,,,,,,,,,,,,,,,,,,,,,,,,,,,,,,,,,,,,,,,,,,,,,,,,,,,,,,,,,,,,,,,,,,,,,,,,,,,,,,,,,,,,,,,,,,,,,,,A_13,001,2024-11-30_10h16.16.809,untitled,2024.1.5,None,2024-11-30 10h16.31.354464 +0530,
square.png,stranger,1,M,,,,,4,3,19,0,,,,,,,,,,,,,129.4440848000013,,,,,,,,,,,,,,,,,,,,,,,,,,,,,,,,,,129.42788469999505,129.4440848000013,129.92783919999783,129.92783919999783,129.92783919999783,129.92783919999783,129.94441319999896,130.22778299999482,130.22778299999482,130.22778299999482,130.31162490000133,z,0.3675684000045294,None,130.31187159999536,130.32783070000005,131.32824260000052,131.3119818999985,,,,,,,,,,,,,,,,,,,,,,,,,,,,,,,,,,,,,,,,,,,,,,,,,,,,,,,,,,,,,,,,,,,,,,,,,,,,,,,,,,,,,,,,,,,,,,,,,,,,,,,,A_13,001,2024-11-30_10h16.16.809,untitled,2024.1.5,None,2024-11-30 10h16.31.354464 +0530,
,,,,,,,,,,,,,,,,,,,,,,,,,,,,,,,,,,,,,,,,,,,,,,,,,,,,,,,,,,,,,,,,,,,,,,,,,,,,,131.31203109999478,131.32824260000052,131.32824260000052,132.2796645999988,space,0.946207000000868,None,,,,,,,,,,,,,,,,,,,,,,,,,,,,,,,,,,,,,,,,,,,,,,,,,,,,,,,,,,,,,,,,,,,,,,,,,,,,,,,,,,,,,,,,,,,,,,,,A_13,001,2024-11-30_10h16.16.809,untitled,2024.1.5,None,2024-11-30 10h16.31.354464 +0530,
triangle.png,you,1,M,,,,,,,,,0,0,0,1,,,,,,,,,132.29546629999822,,,,,,,,,,,,,,,,,,,,,,,,,,,,,,,,,,,,,,,,,,,,,,,,,,,,,,,,,,,,132.2847213999994,132.29546629999822,132.77914600000076,132.77914600000076,132.77914600000076,132.77914600000076,132.79587689999607,133.07924379999895,133.07924379999895,133.07924379999895,133.8794917999985,133.86328339999454,None,133.86360639999475,133.8794917999985,134.88016760000028,134.86369320000085,,,,,,,,,,,,,,,,,,,,,,,,,,,,,,,,,,,,,,,,,,,,,,,,,,,,,,,,,,,,,,,,,,,,,,,,,,,,,,,A_13,001,2024-11-30_10h16.16.809,untitled,2024.1.5,None,2024-11-30 10h16.31.354464 +0530,
square.png,stranger,1,M,,,,,,,,,0,1,1,0,,,,,,,,,134.88016760000028,,,,,,,,,,,,,,,,,,,,,,,,,,,,,,,,,,,,,,,,,,,,,,,,,,,,,,,,,,,,134.86405289999675,134.88016760000028,135.38058069999533,135.38058069999533,135.38058069999533,135.38058069999533,135.38058069999533,135.68032069999754,135.68032069999754,135.68032069999754,,135.69792079999752,m,135.69850949999818,135.71385429999646,136.7142223999981,136.69823570000153,0.30246339999575866,None,,,,,,,,,,,,,,,,,,,,,,,,,,,,,,,,,,,,,,,,,,,,,,,,,,,,,,,,,,,,,,,,,,,,,,,,,,,,,A_13,001,2024-11-30_10h16.16.809,untitled,2024.1.5,None,2024-11-30 10h16.31.354464 +0530,
square.png,you,0,Z,,,,,,,,,0,2,2,2,,,,,,,,,136.7142223999981,,,,,,,,,,,,,,,,,,,,,,,,,,,,,,,,,,,,,,,,,,,,,,,,,,,,,,,,,,,,136.69858229999954,136.7142223999981,137.19812969999475,137.19812969999475,137.19812969999475,137.19812969999475,137.21484449999843,,,,,137.29894239999703,z,137.29935739999928,137.31470360000094,138.31532129999687,138.29876230000082,0.09771080000064103,None,,,,,,,,,,,,,,,,,,,,,,,,,,,,,,,,,,,,,,,,,,,,,,,,,,,,,,,,,,,,,,,,,,,,,,,,,,,,,A_13,001,2024-11-30_10h16.16.809,untitled,2024.1.5,None,2024-11-30 10h16.31.354464 +0530,
triangle.png,stranger,0,Z,,,,,,,,,0,3,3,3,,,,,,,,,138.31532129999687,,,,,,,,,,,,,,,,,,,,,,,,,,,,,,,,,,,,,,,,,,,,,,,,,,,,,,,,,,,,138.2991025999945,138.31532129999687,138.79868529999658,138.79868529999658,138.79868529999658,138.79868529999658,138.81537959999696,,,,,139.01640409999527,m,139.01682430000074,139.0322673999981,140.032546800001,140.01636479999434,0.21295679999457207,None,,,,,,,,,,,,,,,,,,,,,,,,,,,,,,,,,,,,,,,,,,,,,,,,,,,,,,,,,,,,,,,,,,,,,,,,,,,,,A_13,001,2024-11-30_10h16.16.809,untitled,2024.1.5,None,2024-11-30 10h16.31.354464 +0530,
square.png,stranger,1,M,,,,,,,,,1,0,4,0,,,,,,,,,140.032546800001,,,,,,,,,,,,,,,,,,,,,,,,,,,,,,,,,,,,,,,,,,,,,,,,,,,,,,,,,,,,140.01671889999852,140.032546800001,140.51650379999774,140.51650379999774,140.51650379999774,140.51650379999774,140.5329012000002,,,,,140.7670644999962,z,140.76748719999887,140.78321329999744,141.78349909999815,141.7674476999964,0.2344440000015311,None,,,,,,,,,,,,,,,,,,,,,,,,,,,,,,,,,,,,,,,,,,,,,,,,,,,,,,,,,,,,,,,,,,,,,,,,,,,,,A_13,001,2024-11-30_10h16.16.809,untitled,2024.1.5,None,2024-11-30 10h16.31.354464 +0530,
triangle.png,stranger,0,Z,,,,,,,,,1,1,5,3,,,,,,,,,141.78349909999815,,,,,,,,,,,,,,,,,,,,,,,,,,,,,,,,,,,,,,,,,,,,,,,,,,,,,,,,,,,,141.7677898999973,141.78349909999815,142.2674721000003,142.2674721000003,142.2674721000003,142.2674721000003,142.2840425999966,,,,,142.53466819999448,z,142.53509949999716,142.55075149999902,143.5513581999985,143.5350638999953,0.2599938999992446,None,,,,,,,,,,,,,,,,,,,,,,,,,,,,,,,,,,,,,,,,,,,,,,,,,,,,,,,,,,,,,,,,,,,,,,,,,,,,,A_13,001,2024-11-30_10h16.16.809,untitled,2024.1.5,None,2024-11-30 10h16.31.354464 +0530,
triangle.png,you,1,M,,,,,,,,,1,2,6,1,,,,,,,,,143.5513581999985,,,,,,,,,,,,,,,,,,,,,,,,,,,,,,,,,,,,,,,,,,,,,,,,,,,,,,,,,,,,143.5354120999982,143.5513581999985,144.03478570000152,144.03478570000152,144.03478570000152,144.03478570000152,144.05166279999685,144.3350055999981,144.3350055999981,144.3350055999981,,144.3189190999983,m,144.3193581999949,144.3350055999981,145.33550119999563,145.31922099999792,0.2730558999974164,None,,,,,,,,,,,,,,,,,,,,,,,,,,,,,,,,,,,,,,,,,,,,,,,,,,,,,,,,,,,,,,,,,,,,,,,,,,,,,A_13,001,2024-11-30_10h16.16.809,untitled,2024.1.5,None,2024-11-30 10h16.31.354464 +0530,
square.png,you,0,Z,,,,,,,,,1,3,7,2,,,,,,,,,145.33550119999563,,,,,,,,,,,,,,,,,,,,,,,,,,,,,,,,,,,,,,,,,,,,,,,,,,,,,,,,,,,,145.3195631999988,145.33550119999563,145.81916149999597,145.81916149999597,145.81916149999597,145.81916149999597,145.83587329999864,146.119226099996,146.119226099996,146.119226099996,,146.1865592999966,m,146.1869771999991,146.20238289999543,147.20329769999807,147.1867884999956,0.3567793000038364,None,,,,,,,,,,,,,,,,,,,,,,,,,,,,,,,,,,,,,,,,,,,,,,,,,,,,,,,,,,,,,,,,,,,,,,,,,,,,,A_13,001,2024-11-30_10h16.16.809,untitled,2024.1.5,None,2024-11-30 10h16.31.354464 +0530,
triangle.png,you,1,M,,,,,,,,,2,0,8,1,,,,,,,,,147.20329769999807,,,,,,,,,,,,,,,,,,,,,,,,,,,,,,,,,,,,,,,,,,,,,,,,,,,,,,,,,,,,147.18713469999784,147.20329769999807,147.6866669999945,147.6866669999945,147.6866669999945,147.6866669999945,147.70337079999445,,,,,147.9543049999993,z,147.95472660000087,147.97013019999576,148.97052409999742,148.95448169999872,0.26447840000037104,None,,,,,,,,,,,,,,,,,,,,,,,,,,,,,,,,,,,,,,,,,,,,,,,,,,,,,,,,,,,,,,,,,,,,,,,,,,,,,A_13,001,2024-11-30_10h16.16.809,untitled,2024.1.5,None,2024-11-30 10h16.31.354464 +0530,
triangle.png,stranger,0,Z,,,,,,,,,2,1,9,3,,,,,,,,,148.97052409999742,,,,,,,,,,,,,,,,,,,,,,,,,,,,,,,,,,,,,,,,,,,,,,,,,,,,,,,,,,,,148.95482379999885,148.97052409999742,149.45423039999878,149.45423039999878,149.45423039999878,149.45423039999878,149.47107089999918,149.754402999999,149.754402999999,149.754402999999,,149.7385402,z,149.7389656000014,149.754402999999,150.7547412999993,150.73863459999848,0.26838169999973616,None,,,,,,,,,,,,,,,,,,,,,,,,,,,,,,,,,,,,,,,,,,,,,,,,,,,,,,,,,,,,,,,,,,,,,,,,,,,,,A_13,001,2024-11-30_10h16.16.809,untitled,2024.1.5,None,2024-11-30 10h16.31.354464 +0530,
square.png,you,0,Z,,,,,,,,,2,2,10,2,,,,,,,,,150.7547412999993,,,,,,,,,,,,,,,,,,,,,,,,,,,,,,,,,,,,,,,,,,,,,,,,,,,,,,,,,,,,150.7389880999981,150.7547412999993,151.2386722999945,151.2386722999945,151.2386722999945,151.2386722999945,151.25503110000136,151.53853729999537,151.53853729999537,151.53853729999537,,151.5228986000002,m,151.52331469999626,151.53853729999537,152.53902399999788,152.52288839999528,0.2764707000023918,None,,,,,,,,,,,,,,,,,,,,,,,,,,,,,,,,,,,,,,,,,,,,,,,,,,,,,,,,,,,,,,,,,,,,,,,,,,,,,A_13,001,2024-11-30_10h16.16.809,untitled,2024.1.5,None,2024-11-30 10h16.31.354464 +0530,
square.png,stranger,1,M,,,,,,,,,2,3,11,0,,,,,,,,,152.53902399999788,,,,,,,,,,,,,,,,,,,,,,,,,,,,,,,,,,,,,,,,,,,,,,,,,,,,,,,,,,,,152.52323559999786,152.53902399999788,153.02295059999597,153.02295059999597,153.02295059999597,153.02295059999597,153.03940929999953,153.32276869999623,153.32276869999623,153.32276869999623,,153.32355349999852,m,153.32397079999646,153.33960439999646,154.34013589999813,154.3237364000015,0.29698049999569776,None,,,,,,,,,,,,,,,,,,,,,,,,,,,,,,,,,,,,,,,,,,,,,,,,,,,,,,,,,,,,,,,,,,,,,,,,,,,,,A_13,001,2024-11-30_10h16.16.809,untitled,2024.1.5,None,2024-11-30 10h16.31.354464 +0530,
square.png,you,0,Z,,,,,,,,,3,0,12,2,,,,,,,,,154.34013589999813,,,,,,,,,,,,,,,,,,,,,,,,,,,,,,,,,,,,,,,,,,,,,,,,,,,,,,,,,,,,154.32409629999893,154.34013589999813,154.82360530000005,154.82360530000005,154.82360530000005,154.82360530000005,154.8404784000013,,,,,155.04134679999697,z,155.0417662999971,155.05707949999487,156.0577196000013,156.04123560000153,0.21549800000502728,None,,,,,,,,,,,,,,,,,,,,,,,,,,,,,,,,,,,,,,,,,,,,,,,,,,,,,,,,,,,,,,,,,,,,,,,,,,,,,A_13,001,2024-11-30_10h16.16.809,untitled,2024.1.5,None,2024-11-30 10h16.31.354464 +0530,
triangle.png,stranger,0,Z,,,,,,,,,3,1,13,3,,,,,,,,,156.0577196000013,,,,,,,,,,,,,,,,,,,,,,,,,,,,,,,,,,,,,,,,,,,,,,,,,,,,,,,,,,,,156.04158089999692,156.0577196000013,156.54133580000052,156.54133580000052,156.54133580000052,156.54133580000052,156.5577989999947,,,,,156.80866389999574,z,156.8090888000006,156.82478569999512,157.8250704999955,157.80882579999889,0.2659122000040952,None,,,,,,,,,,,,,,,,,,,,,,,,,,,,,,,,,,,,,,,,,,,,,,,,,,,,,,,,,,,,,,,,,,,,,,,,,,,,,A_13,001,2024-11-30_10h16.16.809,untitled,2024.1.5,None,2024-11-30 10h16.31.354464 +0530,
square.png,stranger,1,M,,,,,,,,,3,2,14,0,,,,,,,,,157.8250704999955,,,,,,,,,,,,,,,,,,,,,,,,,,,,,,,,,,,,,,,,,,,,,,,,,,,,,,,,,,,,157.8091753999979,157.8250704999955,158.30893559999822,158.30893559999822,158.30893559999822,158.30893559999822,158.32559059999767,,,,,158.57639629999903,m,158.57681869999942,158.59222099999897,159.59278659999836,159.57643670000107,0.26202500000363216,None,,,,,,,,,,,,,,,,,,,,,,,,,,,,,,,,,,,,,,,,,,,,,,,,,,,,,,,,,,,,,,,,,,,,,,,,,,,,,A_13,001,2024-11-30_10h16.16.809,untitled,2024.1.5,None,2024-11-30 10h16.31.354464 +0530,
triangle.png,you,1,M,,,,,,,,,3,3,15,1,,,,,,,,,159.59278659999836,,,,,,,,,,,,,,,,,,,,,,,,,,,,,,,,,,,,,,,,,,,,,,,,,,,,,,,,,,,,159.57677980000153,159.59278659999836,160.076593400001,160.076593400001,160.076593400001,160.076593400001,160.0929571000015,160.37626810000074,160.37626810000074,160.37626810000074,,160.41072770000028,m,160.41114859999652,160.4264675999948,161.42699189999985,161.41088689999742,0.3310457000043243,None,,,,,,,,,,,,,,,,,,,,,,,,,,,,,,,,,,,,,,,,,,,,,,,,,,,,,,,,,,,,,,,,,,,,,,,,,,,,,A_13,001,2024-11-30_10h16.16.809,untitled,2024.1.5,None,2024-11-30 10h16.31.354464 +0530,
triangle.png,you,1,M,,,,,,,,,4,0,16,1,,,,,,,,,161.42699189999985,,,,,,,,,,,,,,,,,,,,,,,,,,,,,,,,,,,,,,,,,,,,,,,,,,,,,,,,,,,,161.41123539999535,161.42699189999985,161.91092599999683,161.91092599999683,161.91092599999683,161.91092599999683,161.92747139999847,,,,,162.09487779999472,z,162.0953096000012,162.11065199999575,163.11130319999938,163.09502809999685,0.18085620000056224,None,,,,,,,,,,,,,,,,,,,,,,,,,,,,,,,,,,,,,,,,,,,,,,,,,,,,,,,,,,,,,,,,,,,,,,,,,,,,,A_13,001,2024-11-30_10h16.16.809,untitled,2024.1.5,None,2024-11-30 10h16.31.354464 +0530,
triangle.png,stranger,0,Z,,,,,,,,,4,1,17,3,,,,,,,,,163.11130319999938,,,,,,,,,,,,,,,,,,,,,,,,,,,,,,,,,,,,,,,,,,,,,,,,,,,,,,,,,,,,163.09537279999495,163.11130319999938,163.59486179999658,163.59486179999658,163.59486179999658,163.59486179999658,163.6113439999972,163.8949066999994,163.8949066999994,163.8949066999994,,164.11242029999994,z,164.11284119999618,164.12855529999797,165.128873499998,165.11269809999794,0.5048031000042101,None,,,,,,,,,,,,,,,,,,,,,,,,,,,,,,,,,,,,,,,,,,,,,,,,,,,,,,,,,,,,,,,,,,,,,,,,,,,,,A_13,001,2024-11-30_10h16.16.809,untitled,2024.1.5,None,2024-11-30 10h16.31.354464 +0530,
square.png,stranger,1,M,,,,,,,,,4,2,18,0,,,,,,,,,165.128873499998,,,,,,,,,,,,,,,,,,,,,,,,,,,,,,,,,,,,,,,,,,,,,,,,,,,,,,,,,,,,165.11304920000111,165.128873499998,165.6125533999948,165.6125533999948,165.6125533999948,165.6125533999948,165.6291854999945,,,,,165.86334549999447,m,165.86380110000027,165.87927140000102,166.87989459999517,166.86366650000127,0.23768440000276314,None,,,,,,,,,,,,,,,,,,,,,,,,,,,,,,,,,,,,,,,,,,,,,,,,,,,,,,,,,,,,,,,,,,,,,,,,,,,,,A_13,001,2024-11-30_10h16.16.809,untitled,2024.1.5,None,2024-11-30 10h16.31.354464 +0530,
square.png,you,0,Z,,,,,,,,,4,3,19,2,,,,,,,,,166.87989459999517,,,,,,,,,,,,,,,,,,,,,,,,,,,,,,,,,,,,,,,,,,,,,,,,,,,,,,,,,,,,166.86401289999776,166.87989459999517,167.36357090000092,167.36357090000092,167.36357090000092,167.36357090000092,167.38022079999791,,,,,167.56409039999562,z,167.56450359999872,167.58013489999576,168.58064239999658,168.56432510000013,0.19584759999997914,None,,,,,,,,,,,,,,,,,,,,,,,,,,,,,,,,,,,,,,,,,,,,,,,,,,,,,,,,,,,,,,,,,,,,,,,,,,,,,A_13,001,2024-11-30_10h16.16.809,untitled,2024.1.5,None,2024-11-30 10h16.31.354464 +0530,
square.png,you,0,Z,,,,,,,,,5,0,20,2,,,,,,,,,168.58064239999658,,,,,,,,,,,,,,,,,,,,,,,,,,,,,,,,,,,,,,,,,,,,,,,,,,,,,,,,,,,,168.56466699999874,168.58064239999658,169.0642485999997,169.0642485999997,169.0642485999997,169.0642485999997,169.08085969999956,,,,,169.28174189999845,m,169.28220470000088,169.2977316999968,170.29802660000132,170.28180440000142,0.21147089999431046,None,,,,,,,,,,,,,,,,,,,,,,,,,,,,,,,,,,,,,,,,,,,,,,,,,,,,,,,,,,,,,,,,,,,,,,,,,,,,,A_13,001,2024-11-30_10h16.16.809,untitled,2024.1.5,None,2024-11-30 10h16.31.354464 +0530,
triangle.png,stranger,0,Z,,,,,,,,,5,1,21,3,,,,,,,,,170.29802660000132,,,,,,,,,,,,,,,,,,,,,,,,,,,,,,,,,,,,,,,,,,,,,,,,,,,,,,,,,,,,170.28214949999528,170.29802660000132,170.78178859999753,170.78178859999753,170.78178859999753,170.78178859999753,170.79843099999562,,,,,170.94917809999606,m,170.94961079999484,170.96534399999655,171.96578890000092,171.94943239999702,0.15285559999756515,None,,,,,,,,,,,,,,,,,,,,,,,,,,,,,,,,,,,,,,,,,,,,,,,,,,,,,,,,,,,,,,,,,,,,,,,,,,,,,A_13,001,2024-11-30_10h16.16.809,untitled,2024.1.5,None,2024-11-30 10h16.31.354464 +0530,
triangle.png,you,1,M,,,,,,,,,5,2,22,1,,,,,,,,,171.96578890000092,,,,,,,,,,,,,,,,,,,,,,,,,,,,,,,,,,,,,,,,,,,,,,,,,,,,,,,,,,,,171.94977980000112,171.96578890000092,172.44935049999913,172.44935049999913,172.44935049999913,172.44935049999913,172.4660317999951,,,,,172.53362479999487,m,172.53405529999873,172.54949520000082,173.54979649999586,173.5336524999948,0.0821211999937077,None,,,,,,,,,,,,,,,,,,,,,,,,,,,,,,,,,,,,,,,,,,,,,,,,,,,,,,,,,,,,,,,,,,,,,,,,,,,,,A_13,001,2024-11-30_10h16.16.809,untitled,2024.1.5,None,2024-11-30 10h16.31.354464 +0530,
square.png,stranger,1,M,,,,,,,,,5,3,23,0,,,,,,,,,173.54979649999586,,,,,,,,,,,,,,,,,,,,,,,,,,,,,,,,,,,,,,,,,,,,,,,,,,,,,,,,,,,,173.53399920000084,173.54979649999586,174.03363869999885,174.03363869999885,174.03363869999885,174.03363869999885,174.0500647999943,,,,,174.2678941999984,z,174.2683126999982,174.2836068999968,175.28414239999984,175.26787260000128,0.2260969999988447,None,,,,,,,,,,,,,,,,,,,,,,,,,,,,,,,,,,,,,,,,,,,,,,,,,,,,,,,,,,,,,,,,,,,,,,,,,,,,,A_13,001,2024-11-30_10h16.16.809,untitled,2024.1.5,None,2024-11-30 10h16.31.354464 +0530,
square.png,stranger,1,M,,,,,,,,,6,0,24,0,,,,,,,,,175.28414239999984,,,,,,,,,,,,,,,,,,,,,,,,,,,,,,,,,,,,,,,,,,,,,,,,,,,,,,,,,,,,175.26822069999616,175.28414239999984,175.7675801000005,175.7675801000005,175.7675801000005,175.7675801000005,175.78453389999777,,,,,176.03514609999547,z,176.035566999999,176.05113909999636,177.0514387000003,177.03528119999828,0.25943050000205403,None,,,,,,,,,,,,,,,,,,,,,,,,,,,,,,,,,,,,,,,,,,,,,,,,,,,,,,,,,,,,,,,,,,,,,,,,,,,,,A_13,001,2024-11-30_10h16.16.809,untitled,2024.1.5,None,2024-11-30 10h16.31.354464 +0530,
triangle.png,stranger,0,Z,,,,,,,,,6,1,25,3,,,,,,,,,177.0514387000003,,,,,,,,,,,,,,,,,,,,,,,,,,,,,,,,,,,,,,,,,,,,,,,,,,,,,,,,,,,,177.03563199999917,177.0514387000003,177.53543399999762,177.53543399999762,177.53543399999762,177.53543399999762,177.55184689999442,177.83523169999535,177.83523169999535,177.83523169999535,,177.8359960999951,m,177.83642189999955,177.85183409999445,178.85269359999802,178.83611709999968,0.29936520000046585,None,,,,,,,,,,,,,,,,,,,,,,,,,,,,,,,,,,,,,,,,,,,,,,,,,,,,,,,,,,,,,,,,,,,,,,,,,,,,,A_13,001,2024-11-30_10h16.16.809,untitled,2024.1.5,None,2024-11-30 10h16.31.354464 +0530,
square.png,you,0,Z,,,,,,,,,6,2,26,2,,,,,,,,,178.85269359999802,,,,,,,,,,,,,,,,,,,,,,,,,,,,,,,,,,,,,,,,,,,,,,,,,,,,,,,,,,,,178.83646469999803,178.85269359999802,179.3361575999952,179.3361575999952,179.3361575999952,179.3361575999952,179.35295129999577,,,,,179.5869113000008,m,179.58733219999704,179.60307479999756,180.60333099999843,180.58718789999693,0.23966759999893839,None,,,,,,,,,,,,,,,,,,,,,,,,,,,,,,,,,,,,,,,,,,,,,,,,,,,,,,,,,,,,,,,,,,,,,,,,,,,,,A_13,001,2024-11-30_10h16.16.809,untitled,2024.1.5,None,2024-11-30 10h16.31.354464 +0530,
triangle.png,you,1,M,,,,,,,,,6,3,27,1,,,,,,,,,180.60333099999843,,,,,,,,,,,,,,,,,,,,,,,,,,,,,,,,,,,,,,,,,,,,,,,,,,,,,,,,,,,,180.5875509999969,180.60333099999843,181.08711229999608,181.08711229999608,181.08711229999608,181.08711229999608,181.1038058999984,181.38731329999428,181.38731329999428,181.38731329999428,,181.43805129999964,m,181.4384693999964,181.45390570000018,182.45423779999692,182.43805119999888,0.34810709999874234,None,,,,,,,,,,,,,,,,,,,,,,,,,,,,,,,,,,,,,,,,,,,,,,,,,,,,,,,,,,,,,,,,,,,,,,,,,,,,,A_13,001,2024-11-30_10h16.16.809,untitled,2024.1.5,None,2024-11-30 10h16.31.354464 +0530,
square.png,stranger,1,M,,,,,,,,,7,0,28,0,,,,,,,,,182.45423779999692,,,,,,,,,,,,,,,,,,,,,,,,,,,,,,,,,,,,,,,,,,,,,,,,,,,,,,,,,,,,182.4384011000002,182.45423779999692,182.9382256999961,182.9382256999961,182.9382256999961,182.9382256999961,182.95467169999756,183.2382329999964,183.2382329999964,183.2382329999964,184.03848460000154,184.02206119999755,None,184.0222528000013,184.03848460000154,185.0391354999956,185.02280059999612,,,,,,,,,,,,,,,,,,,,,,,,,,,,,,,,,,,,,,,,,,,,,,,,,,,,,,,,,,,,,,,,,,,,,,,,,,,,,,,A_13,001,2024-11-30_10h16.16.809,untitled,2024.1.5,None,2024-11-30 10h16.31.354464 +0530,
triangle.png,you,1,M,,,,,,,,,7,1,29,1,,,,,,,,,185.0391354999956,,,,,,,,,,,,,,,,,,,,,,,,,,,,,,,,,,,,,,,,,,,,,,,,,,,,,,,,,,,,185.02315619999717,185.0391354999956,185.53941179999674,185.53941179999674,185.53941179999674,185.53941179999674,185.53941179999674,185.8393930999955,185.8393930999955,185.8393930999955,,185.85675069999706,m,185.85717920000025,185.8726342000009,186.87344229999871,186.85696800000005,0.3161197000008542,None,,,,,,,,,,,,,,,,,,,,,,,,,,,,,,,,,,,,,,,,,,,,,,,,,,,,,,,,,,,,,,,,,,,,,,,,,,,,,A_13,001,2024-11-30_10h16.16.809,untitled,2024.1.5,None,2024-11-30 10h16.31.354464 +0530,
triangle.png,stranger,0,Z,,,,,,,,,7,2,30,3,,,,,,,,,186.87344229999871,,,,,,,,,,,,,,,,,,,,,,,,,,,,,,,,,,,,,,,,,,,,,,,,,,,,,,,,,,,,186.85732260000077,186.87344229999871,187.35714860000007,187.35714860000007,187.35714860000007,187.35714860000007,187.3738183999958,,,,,187.6080709999951,m,187.6084875000015,187.62356339999678,188.62410899999668,188.6079161999951,0.2497395000027609,None,,,,,,,,,,,,,,,,,,,,,,,,,,,,,,,,,,,,,,,,,,,,,,,,,,,,,,,,,,,,,,,,,,,,,,,,,,,,,A_13,001,2024-11-30_10h16.16.809,untitled,2024.1.5,None,2024-11-30 10h16.31.354464 +0530,
square.png,you,0,Z,,,,,,,,,7,3,31,2,,,,,,,,,188.62410899999668,,,,,,,,,,,,,,,,,,,,,,,,,,,,,,,,,,,,,,,,,,,,,,,,,,,,,,,,,,,,188.60826989999623,188.62410899999668,189.10788389999652,189.10788389999652,189.10788389999652,189.10788389999652,189.1246398000003,189.40802179999446,189.40802179999446,189.40802179999446,,189.3925126999966,m,189.39293660000112,189.40802179999446,190.40812110000115,190.39188399999694,0.27592650000588037,None,,,,,,,,,,,,,,,,,,,,,,,,,,,,,,,,,,,,,,,,,,,,,,,,,,,,,,,,,,,,,,,,,,,,,,,,,,,,,A_13,001,2024-11-30_10h16.16.809,untitled,2024.1.5,None,2024-11-30 10h16.31.354464 +0530,
triangle.png,you,1,M,,,,,,,,,8,0,32,1,,,,,,,,,190.40812110000115,,,,,,,,,,,,,,,,,,,,,,,,,,,,,,,,,,,,,,,,,,,,,,,,,,,,,,,,,,,,190.39223879999918,190.40812110000115,190.89208659999713,190.89208659999713,190.89208659999713,190.89208659999713,190.90868889999547,191.19227449999744,191.19227449999744,191.19227449999744,,191.2260865999997,m,191.22650879999856,191.24235729999782,192.2427125999966,192.22656730000017,0.31828000000678003,None,,,,,,,,,,,,,,,,,,,,,,,,,,,,,,,,,,,,,,,,,,,,,,,,,,,,,,,,,,,,,,,,,,,,,,,,,,,,,A_13,001,2024-11-30_10h16.16.809,untitled,2024.1.5,None,2024-11-30 10h16.31.354464 +0530,
square.png,stranger,1,M,,,,,,,,,8,1,33,0,,,,,,,,,192.2427125999966,,,,,,,,,,,,,,,,,,,,,,,,,,,,,,,,,,,,,,,,,,,,,,,,,,,,,,,,,,,,192.22691489999852,192.2427125999966,192.72660199999518,192.72660199999518,192.72660199999518,192.72660199999518,192.74285059999966,,,,,192.97717120000016,z,192.97760019999987,192.9932370999959,193.99353609999525,193.9774150999947,0.24471679999987828,None,,,,,,,,,,,,,,,,,,,,,,,,,,,,,,,,,,,,,,,,,,,,,,,,,,,,,,,,,,,,,,,,,,,,,,,,,,,,,A_13,001,2024-11-30_10h16.16.809,untitled,2024.1.5,None,2024-11-30 10h16.31.354464 +0530,
square.png,you,0,Z,,,,,,,,,8,2,34,2,,,,,,,,,193.99353609999525,,,,,,,,,,,,,,,,,,,,,,,,,,,,,,,,,,,,,,,,,,,,,,,,,,,,,,,,,,,,193.97777379999752,193.99353609999525,194.47744479999528,194.47744479999528,194.47744479999528,194.47744479999528,194.4939707999947,,,,,194.74474650000047,z,194.74517840000044,194.76049979999516,195.76111429999582,195.7448790999988,0.2537034999986645,None,,,,,,,,,,,,,,,,,,,,,,,,,,,,,,,,,,,,,,,,,,,,,,,,,,,,,,,,,,,,,,,,,,,,,,,,,,,,,A_13,001,2024-11-30_10h16.16.809,untitled,2024.1.5,None,2024-11-30 10h16.31.354464 +0530,
triangle.png,stranger,0,Z,,,,,,,,,8,3,35,3,,,,,,,,,195.76111429999582,,,,,,,,,,,,,,,,,,,,,,,,,,,,,,,,,,,,,,,,,,,,,,,,,,,,,,,,,,,,195.7452373999986,195.76111429999582,196.24488980000024,196.24488980000024,196.24488980000024,196.24488980000024,196.2616507999992,196.5448510999995,196.5448510999995,196.5448510999995,,196.61241829999926,m,196.61284840000008,196.6281455999997,197.62894329999835,197.61270479999803,0.365313000002061,None,,,,,,,,,,,,,,,,,,,,,,,,,,,,,,,,,,,,,,,,,,,,,,,,,,,,,,,,,,,,,,,,,,,,,,,,,,,,,A_13,001,2024-11-30_10h16.16.809,untitled,2024.1.5,None,2024-11-30 10h16.31.354464 +0530,
square.png,you,0,Z,,,,,,,,,9,0,36,2,,,,,,,,,197.62894329999835,,,,,,,,,,,,,,,,,,,,,,,,,,,,,,,,,,,,,,,,,,,,,,,,,,,,,,,,,,,,197.6130508999995,197.62894329999835,198.11261779999768,198.11261779999768,198.11261779999768,198.11261779999768,198.12929829999484,198.41261120000127,198.41261120000127,198.41261120000127,,198.39659749999555,m,198.39710389999527,198.41261120000127,199.41286540000146,199.39677569999913,0.2716435999973328,None,,,,,,,,,,,,,,,,,,,,,,,,,,,,,,,,,,,,,,,,,,,,,,,,,,,,,,,,,,,,,,,,,,,,,,,,,,,,,A_13,001,2024-11-30_10h16.16.809,untitled,2024.1.5,None,2024-11-30 10h16.31.354464 +0530,
triangle.png,you,1,M,,,,,,,,,9,1,37,1,,,,,,,,,199.41286540000146,,,,,,,,,,,,,,,,,,,,,,,,,,,,,,,,,,,,,,,,,,,,,,,,,,,,,,,,,,,,199.39713199999824,199.41286540000146,199.89692739999737,199.89692739999737,199.89692739999737,199.89692739999737,199.91348819999985,200.19702569999936,200.19702569999936,200.19702569999936,,200.19779990000097,m,200.1982166999951,200.2136759999994,201.21401549999428,201.19783209999878,0.29335330000321846,None,,,,,,,,,,,,,,,,,,,,,,,,,,,,,,,,,,,,,,,,,,,,,,,,,,,,,,,,,,,,,,,,,,,,,,,,,,,,,A_13,001,2024-11-30_10h16.16.809,untitled,2024.1.5,None,2024-11-30 10h16.31.354464 +0530,
square.png,stranger,1,M,,,,,,,,,9,2,38,0,,,,,,,,,201.21401549999428,,,,,,,,,,,,,,,,,,,,,,,,,,,,,,,,,,,,,,,,,,,,,,,,,,,,,,,,,,,,201.19820510000136,201.21401549999428,201.69752660000086,201.69752660000086,201.69752660000086,201.69752660000086,201.71413429999666,201.9976833999972,201.9976833999972,201.9976833999972,,201.9984334999972,z,201.9988599999997,202.01421399999526,203.01496309999493,202.9986768999952,0.2846572999987984,None,,,,,,,,,,,,,,,,,,,,,,,,,,,,,,,,,,,,,,,,,,,,,,,,,,,,,,,,,,,,,,,,,,,,,,,,,,,,,A_13,001,2024-11-30_10h16.16.809,untitled,2024.1.5,None,2024-11-30 10h16.31.354464 +0530,
triangle.png,stranger,0,Z,,,,,,,,,9,3,39,3,,,,,,,,,203.01496309999493,,,,,,,,,,,,,,,,,,,,,,,,,,,,,,,,,,,,,,,,,,,,,,,,,,,,,,,,,,,,202.99902589999692,203.01496309999493,203.49854499999492,203.49854499999492,203.49854499999492,203.49854499999492,203.51537670000107,203.79861239999445,203.79861239999445,203.79861239999445,,203.84970579999936,z,203.8501264000006,203.86521129999892,204.86571759999788,204.84970089999842,0.33625609999580774,None,,,,,,,,,,,,,,,,,,,,,,,,,,,,,,,,,,,,,,,,,,,,,,,,,,,,,,,,,,,,,,,,,,,,,,,,,,,,,A_13,001,2024-11-30_10h16.16.809,untitled,2024.1.5,None,2024-11-30 10h16.31.354464 +0530,
triangle.png,stranger,0,Z,,,,,,,,,10,0,40,3,,,,,,,,,204.86571759999788,,,,,,,,,,,,,,,,,,,,,,,,,,,,,,,,,,,,,,,,,,,,,,,,,,,,,,,,,,,,204.85004409999965,204.86571759999788,205.34949109999434,205.34949109999434,205.34949109999434,205.34949109999434,205.36620379999658,,,,,205.56688849999773,m,205.5673594999971,205.58301409999694,206.58338009999716,206.56713619999937,0.20615859999816166,None,,,,,,,,,,,,,,,,,,,,,,,,,,,,,,,,,,,,,,,,,,,,,,,,,,,,,,,,,,,,,,,,,,,,,,,,,,,,,A_13,001,2024-11-30_10h16.16.809,untitled,2024.1.5,None,2024-11-30 10h16.31.354464 +0530,
triangle.png,you,1,M,,,,,,,,,10,1,41,1,,,,,,,,,206.58338009999716,,,,,,,,,,,,,,,,,,,,,,,,,,,,,,,,,,,,,,,,,,,,,,,,,,,,,,,,,,,,206.5674852999946,206.58338009999716,207.0671555999943,207.0671555999943,207.0671555999943,207.0671555999943,207.0838139999978,207.36716509999678,207.36716509999678,207.36716509999678,,207.3679529000001,m,207.36836680000124,207.38376059999428,208.38425799999823,208.3681160999986,0.2960536000027787,None,,,,,,,,,,,,,,,,,,,,,,,,,,,,,,,,,,,,,,,,,,,,,,,,,,,,,,,,,,,,,,,,,,,,,,,,,,,,,A_13,001,2024-11-30_10h16.16.809,untitled,2024.1.5,None,2024-11-30 10h16.31.354464 +0530,
square.png,you,0,Z,,,,,,,,,10,2,42,2,,,,,,,,,208.38425799999823,,,,,,,,,,,,,,,,,,,,,,,,,,,,,,,,,,,,,,,,,,,,,,,,,,,,,,,,,,,,208.36846579999838,208.38425799999823,208.8679467999973,208.8679467999973,208.8679467999973,208.8679467999973,208.8845005999974,209.16807469999912,209.16807469999912,209.16807469999912,,209.20237939999788,m,209.20280069999717,209.21816569999646,210.21846699999878,210.20227329999761,0.31832829999621026,None,,,,,,,,,,,,,,,,,,,,,,,,,,,,,,,,,,,,,,,,,,,,,,,,,,,,,,,,,,,,,,,,,,,,,,,,,,,,,A_13,001,2024-11-30_10h16.16.809,untitled,2024.1.5,None,2024-11-30 10h16.31.354464 +0530,
square.png,stranger,1,M,,,,,,,,,10,3,43,0,,,,,,,,,210.21846699999878,,,,,,,,,,,,,,,,,,,,,,,,,,,,,,,,,,,,,,,,,,,,,,,,,,,,,,,,,,,,210.20263469999918,210.21846699999878,210.70213059999514,210.70213059999514,210.70213059999514,210.70213059999514,210.71875119999459,,,,,210.96961509999528,z,210.97004039999592,210.9856992999994,211.98582460000034,211.9694679999957,0.2527196000010008,None,,,,,,,,,,,,,,,,,,,,,,,,,,,,,,,,,,,,,,,,,,,,,,,,,,,,,,,,,,,,,,,,,,,,,,,,,,,,,A_13,001,2024-11-30_10h16.16.809,untitled,2024.1.5,None,2024-11-30 10h16.31.354464 +0530,
square.png,stranger,1,M,,,,,,,,,11,0,44,0,,,,,,,,,211.98582460000034,,,,,,,,,,,,,,,,,,,,,,,,,,,,,,,,,,,,,,,,,,,,,,,,,,,,,,,,,,,,211.96980729999632,211.98582460000034,212.46982529999514,212.46982529999514,212.46982529999514,212.46982529999514,212.48660849999578,,,,,212.72090899999603,z,212.72132739999506,212.73651059999975,213.73705839999457,213.72097629999917,0.24434889999974985,None,,,,,,,,,,,,,,,,,,,,,,,,,,,,,,,,,,,,,,,,,,,,,,,,,,,,,,,,,,,,,,,,,,,,,,,,,,,,,A_13,001,2024-11-30_10h16.16.809,untitled,2024.1.5,None,2024-11-30 10h16.31.354464 +0530,
triangle.png,stranger,0,Z,,,,,,,,,11,1,45,3,,,,,,,,,213.73705839999457,,,,,,,,,,,,,,,,,,,,,,,,,,,,,,,,,,,,,,,,,,,,,,,,,,,,,,,,,,,,213.72132549999515,213.73705839999457,214.22104859999672,214.22104859999672,214.22104859999672,214.22104859999672,214.23728319999645,214.52069479999773,214.52069479999773,214.52069479999773,,214.58821819999866,z,214.5886298999976,214.60427029999846,215.6046131999974,215.58834449999995,0.36557539999921573,None,,,,,,,,,,,,,,,,,,,,,,,,,,,,,,,,,,,,,,,,,,,,,,,,,,,,,,,,,,,,,,,,,,,,,,,,,,,,,A_13,001,2024-11-30_10h16.16.809,untitled,2024.1.5,None,2024-11-30 10h16.31.354464 +0530,
square.png,you,0,Z,,,,,,,,,11,2,46,2,,,,,,,,,215.6046131999974,,,,,,,,,,,,,,,,,,,,,,,,,,,,,,,,,,,,,,,,,,,,,,,,,,,,,,,,,,,,215.58869309999864,215.6046131999974,216.08827689999453,216.08827689999453,216.08827689999453,216.08827689999453,216.10496799999964,216.38850639999873,216.38850639999873,216.38850639999873,,216.40585189999547,m,216.4062694999957,216.42188429999806,217.4222191000008,217.4062055999966,0.30198110000492306,None,,,,,,,,,,,,,,,,,,,,,,,,,,,,,,,,,,,,,,,,,,,,,,,,,,,,,,,,,,,,,,,,,,,,,,,,,,,,,A_13,001,2024-11-30_10h16.16.809,untitled,2024.1.5,None,2024-11-30 10h16.31.354464 +0530,
triangle.png,you,1,M,,,,,,,,,11,3,47,1,,,,,,,,,217.4222191000008,,,,,,,,,,,,,,,,,,,,,,,,,,,,,,,,,,,,,,,,,,,,,,,,,,,,,,,,,,,,217.40655669999978,217.4222191000008,217.90587550000055,217.90587550000055,217.90587550000055,217.90587550000055,217.9226991999967,218.20591920000152,218.20591920000152,218.20591920000152,,218.3734220999977,m,218.37384839999868,218.38930009999603,219.3898909999989,219.37383989999944,0.45313590000296244,None,,,,,,,,,,,,,,,,,,,,,,,,,,,,,,,,,,,,,,,,,,,,,,,,,,,,,,,,,,,,,,,,,,,,,,,,,,,,,A_13,001,2024-11-30_10h16.16.809,untitled,2024.1.5,None,2024-11-30 10h16.31.354464 +0530,
triangle.png,stranger,0,Z,,,,,,,,,12,0,48,3,,,,,,,,,219.3898909999989,,,,,,,,,,,,,,,,,,,,,,,,,,,,,,,,,,,,,,,,,,,,,,,,,,,,,,,,,,,,219.37419099999534,219.3898909999989,219.87378549999994,219.87378549999994,219.87378549999994,219.87378549999994,219.89039179999963,220.17375109999557,220.17375109999557,220.17375109999557,,220.19095879999804,m,220.1913873999947,220.20680909999646,221.20763019999868,221.1912058999951,0.3138191000034567,None,,,,,,,,,,,,,,,,,,,,,,,,,,,,,,,,,,,,,,,,,,,,,,,,,,,,,,,,,,,,,,,,,,,,,,,,,,,,,A_13,001,2024-11-30_10h16.16.809,untitled,2024.1.5,None,2024-11-30 10h16.31.354464 +0530,
square.png,you,0,Z,,,,,,,,,12,1,49,2,,,,,,,,,221.20763019999868,,,,,,,,,,,,,,,,,,,,,,,,,,,,,,,,,,,,,,,,,,,,,,,,,,,,,,,,,,,,221.1915502999982,221.20763019999868,221.69118329999765,221.69118329999765,221.69118329999765,221.69118329999765,221.70801669999491,221.99142500000016,221.99142500000016,221.99142500000016,,221.99211629999627,m,221.9925338999965,222.0080627999996,223.0083583999949,222.99234050000086,0.29592520000005607,None,,,,,,,,,,,,,,,,,,,,,,,,,,,,,,,,,,,,,,,,,,,,,,,,,,,,,,,,,,,,,,,,,,,,,,,,,,,,,A_13,001,2024-11-30_10h16.16.809,untitled,2024.1.5,None,2024-11-30 10h16.31.354464 +0530,
square.png,stranger,1,M,,,,,,,,,12,2,50,0,,,,,,,,,223.0083583999949,,,,,,,,,,,,,,,,,,,,,,,,,,,,,,,,,,,,,,,,,,,,,,,,,,,,,,,,,,,,222.99268239999947,223.0083583999949,223.49228579999908,223.49228579999908,223.49228579999908,223.49228579999908,223.50893720000022,223.7919430999973,223.7919430999973,223.7919430999973,,223.7926690999957,m,223.79309439999633,223.80897459999687,224.80943139999727,224.7932781999989,0.29058749999967404,None,,,,,,,,,,,,,,,,,,,,,,,,,,,,,,,,,,,,,,,,,,,,,,,,,,,,,,,,,,,,,,,,,,,,,,,,,,,,,A_13,001,2024-11-30_10h16.16.809,untitled,2024.1.5,None,2024-11-30 10h16.31.354464 +0530,
triangle.png,you,1,M,,,,,,,,,12,3,51,1,,,,,,,,,224.80943139999727,,,,,,,,,,,,,,,,,,,,,,,,,,,,,,,,,,,,,,,,,,,,,,,,,,,,,,,,,,,,224.7936247999969,224.80943139999727,225.29291459999513,225.29291459999513,225.29291459999513,225.29291459999513,225.30981229999452,225.59318540000095,225.59318540000095,225.59318540000095,,225.6270383999945,m,225.62745670000004,225.64313250000123,226.64357010000094,226.62751130000106,0.3263844000030076,None,,,,,,,,,,,,,,,,,,,,,,,,,,,,,,,,,,,,,,,,,,,,,,,,,,,,,,,,,,,,,,,,,,,,,,,,,,,,,A_13,001,2024-11-30_10h16.16.809,untitled,2024.1.5,None,2024-11-30 10h16.31.354464 +0530,
square.png,stranger,1,M,,,,,,,,,13,0,52,0,,,,,,,,,226.64357010000094,,,,,,,,,,,,,,,,,,,,,,,,,,,,,,,,,,,,,,,,,,,,,,,,,,,,,,,,,,,,226.62786480000068,226.64357010000094,227.1275437000004,227.1275437000004,227.1275437000004,227.1275437000004,227.14392279999447,227.4273211999971,227.4273211999971,227.4273211999971,,227.4117460999987,m,227.41216279999935,227.4273211999971,228.4280343999999,228.41151759999775,0.2794419999991078,None,,,,,,,,,,,,,,,,,,,,,,,,,,,,,,,,,,,,,,,,,,,,,,,,,,,,,,,,,,,,,,,,,,,,,,,,,,,,,A_13,001,2024-11-30_10h16.16.809,untitled,2024.1.5,None,2024-11-30 10h16.31.354464 +0530,
triangle.png,stranger,0,Z,,,,,,,,,13,1,53,3,,,,,,,,,228.4280343999999,,,,,,,,,,,,,,,,,,,,,,,,,,,,,,,,,,,,,,,,,,,,,,,,,,,,,,,,,,,,228.41185959999711,228.4280343999999,228.91148350000003,228.91148350000003,228.91148350000003,228.91148350000003,228.9283615999957,,,,,229.11259669999708,z,229.11301589999493,229.1281250999964,230.1288701999947,230.1125854999991,0.19058119999681367,None,,,,,,,,,,,,,,,,,,,,,,,,,,,,,,,,,,,,,,,,,,,,,,,,,,,,,,,,,,,,,,,,,,,,,,,,,,,,,A_13,001,2024-11-30_10h16.16.809,untitled,2024.1.5,None,2024-11-30 10h16.31.354464 +0530,
triangle.png,you,1,M,,,,,,,,,13,2,54,1,,,,,,,,,230.1288701999947,,,,,,,,,,,,,,,,,,,,,,,,,,,,,,,,,,,,,,,,,,,,,,,,,,,,,,,,,,,,230.11293199999636,230.1288701999947,230.61233999999968,230.61233999999968,230.61233999999968,230.61233999999968,230.62920479999593,230.91236539999954,230.91236539999954,230.91236539999954,,230.9131802999982,z,230.91364999999496,230.92922030000045,231.9296605999989,231.91336690000026,0.28974100000050385,None,,,,,,,,,,,,,,,,,,,,,,,,,,,,,,,,,,,,,,,,,,,,,,,,,,,,,,,,,,,,,,,,,,,,,,,,,,,,,A_13,001,2024-11-30_10h16.16.809,untitled,2024.1.5,None,2024-11-30 10h16.31.354464 +0530,
square.png,you,0,Z,,,,,,,,,13,3,55,2,,,,,,,,,231.9296605999989,,,,,,,,,,,,,,,,,,,,,,,,,,,,,,,,,,,,,,,,,,,,,,,,,,,,,,,,,,,,231.91371349999827,231.9296605999989,232.41364329999487,232.41364329999487,232.41364329999487,232.41364329999487,232.43008009999903,232.71333320000122,232.71333320000122,232.71333320000122,,232.8308509999988,z,232.83128220000071,232.84664160000102,233.84717000000092,233.83108739999443,0.41403990000253543,None,,,,,,,,,,,,,,,,,,,,,,,,,,,,,,,,,,,,,,,,,,,,,,,,,,,,,,,,,,,,,,,,,,,,,,,,,,,,,A_13,001,2024-11-30_10h16.16.809,untitled,2024.1.5,None,2024-11-30 10h16.31.354464 +0530,
triangle.png,you,1,M,,,,,,,,,14,0,56,1,,,,,,,,,233.84717000000092,,,,,,,,,,,,,,,,,,,,,,,,,,,,,,,,,,,,,,,,,,,,,,,,,,,,,,,,,,,,233.83143179999752,233.84717000000092,234.33096289999958,234.33096289999958,234.33096289999958,234.33096289999958,234.34784740000032,234.63093529999605,234.63093529999605,234.63093529999605,,234.6317033000014,m,234.63211469999806,234.64774960000068,235.64837879999686,235.63188429999718,0.2853484999941429,None,,,,,,,,,,,,,,,,,,,,,,,,,,,,,,,,,,,,,,,,,,,,,,,,,,,,,,,,,,,,,,,,,,,,,,,,,,,,,A_13,001,2024-11-30_10h16.16.809,untitled,2024.1.5,None,2024-11-30 10h16.31.354464 +0530,
square.png,you,0,Z,,,,,,,,,14,1,57,2,,,,,,,,,235.64837879999686,,,,,,,,,,,,,,,,,,,,,,,,,,,,,,,,,,,,,,,,,,,,,,,,,,,,,,,,,,,,235.63222319999477,235.64837879999686,236.13217849999637,236.13217849999637,236.13217849999637,236.13217849999637,236.14851989999443,236.4318843000001,236.4318843000001,236.4318843000001,,236.49923679999483,m,236.4996547999981,236.5153896999982,237.5158472999974,237.49979080000048,0.35932969999703346,None,,,,,,,,,,,,,,,,,,,,,,,,,,,,,,,,,,,,,,,,,,,,,,,,,,,,,,,,,,,,,,,,,,,,,,,,,,,,,A_13,001,2024-11-30_10h16.16.809,untitled,2024.1.5,None,2024-11-30 10h16.31.354464 +0530,
triangle.png,stranger,0,Z,,,,,,,,,14,2,58,3,,,,,,,,,237.5158472999974,,,,,,,,,,,,,,,,,,,,,,,,,,,,,,,,,,,,,,,,,,,,,,,,,,,,,,,,,,,,237.50014029999875,237.5158472999974,237.99963279999793,237.99963279999793,237.99963279999793,237.99963279999793,238.0161833999955,238.29955759999575,238.29955759999575,238.29955759999575,,238.46688859999995,m,238.46730630000093,238.48303029999806,239.48365299999568,239.46736460000102,0.4543727999989642,None,,,,,,,,,,,,,,,,,,,,,,,,,,,,,,,,,,,,,,,,,,,,,,,,,,,,,,,,,,,,,,,,,,,,,,,,,,,,,A_13,001,2024-11-30_10h16.16.809,untitled,2024.1.5,None,2024-11-30 10h16.31.354464 +0530,
square.png,stranger,1,M,,,,,,,,,14,3,59,0,,,,,,,,,239.48365299999568,,,,,,,,,,,,,,,,,,,,,,,,,,,,,,,,,,,,,,,,,,,,,,,,,,,,,,,,,,,,239.46771530000115,239.48365299999568,239.96741819999443,239.96741819999443,239.96741819999443,239.96741819999443,239.9837450999985,240.26729959999648,240.26729959999648,240.26729959999648,,240.33458289999544,z,240.3350089999949,240.3505163000009,241.35115239999868,241.33483119999437,0.3515339000005042,None,,,,,,,,,,,,,,,,,,,,,,,,,,,,,,,,,,,,,,,,,,,,,,,,,,,,,,,,,,,,,,,,,,,,,,,,,,,,,A_13,001,2024-11-30_10h16.16.809,untitled,2024.1.5,None,2024-11-30 10h16.31.354464 +0530,
triangle.png,you,1,M,,,,,,,,,15,0,60,1,,,,,,,,,241.35115239999868,,,,,,,,,,,,,,,,,,,,,,,,,,,,,,,,,,,,,,,,,,,,,,,,,,,,,,,,,,,,241.33519259999593,241.35115239999868,241.83481739999843,241.83481739999843,241.83481739999843,241.83481739999843,241.8515436999951,,,,,242.10226619999594,z,242.10279820000142,242.11804649999976,243.11881849999918,243.10252179999952,0.2565002000046661,None,,,,,,,,,,,,,,,,,,,,,,,,,,,,,,,,,,,,,,,,,,,,,,,,,,,,,,,,,,,,,,,,,,,,,,,,,,,,,A_13,001,2024-11-30_10h16.16.809,untitled,2024.1.5,None,2024-11-30 10h16.31.354464 +0530,
square.png,stranger,1,M,,,,,,,,,15,1,61,0,,,,,,,,,243.11881849999918,,,,,,,,,,,,,,,,,,,,,,,,,,,,,,,,,,,,,,,,,,,,,,,,,,,,,,,,,,,,243.10286780000024,243.11881849999918,243.60247949999757,243.60247949999757,243.60247949999757,243.60247949999757,243.6189630000008,243.9023210000014,243.9023210000014,243.9023210000014,244.70289369999955,244.68660259999888,None,244.68680279999535,244.70289369999955,245.70348479999666,245.68700949999766,,,,,,,,,,,,,,,,,,,,,,,,,,,,,,,,,,,,,,,,,,,,,,,,,,,,,,,,,,,,,,,,,,,,,,,,,,,,,,,A_13,001,2024-11-30_10h16.16.809,untitled,2024.1.5,None,2024-11-30 10h16.31.354464 +0530,
triangle.png,stranger,0,Z,,,,,,,,,15,2,62,3,,,,,,,,,245.70348479999666,,,,,,,,,,,,,,,,,,,,,,,,,,,,,,,,,,,,,,,,,,,,,,,,,,,,,,,,,,,,245.6873540000015,245.70348479999666,246.20354759999464,246.20354759999464,246.20354759999464,246.20354759999464,246.20354759999464,246.50361110000085,246.50361110000085,246.50361110000085,,246.5710076999967,m,246.5714341999992,246.58695409999928,247.58759429999918,247.57141289999709,0.35978459999751067,None,,,,,,,,,,,,,,,,,,,,,,,,,,,,,,,,,,,,,,,,,,,,,,,,,,,,,,,,,,,,,,,,,,,,,,,,,,,,,A_13,001,2024-11-30_10h16.16.809,untitled,2024.1.5,None,2024-11-30 10h16.31.354464 +0530,
square.png,you,0,Z,,,,,,,,,15,3,63,2,,,,,,,,,247.58759429999918,,,,,,,,,,,,,,,,,,,,,,,,,,,,,,,,,,,,,,,,,,,,,,,,,,,,,,,,,,,,247.5717657999994,247.58759429999918,248.07126530000096,248.07126530000096,248.07126530000096,248.07126530000096,248.08783140000014,248.37145659999806,248.37145659999806,248.37145659999806,,248.3553471999985,m,248.35577119999652,248.37145659999806,249.37194389999786,249.35591349999595,0.27983559999847785,None,,,,,,,,,,,,,,,,,,,,,,,,,,,,,,,,,,,,,,,,,,,,,,,,,,,,,,,,,,,,,,,,,,,,,,,,,,,,,A_13,001,2024-11-30_10h16.16.809,untitled,2024.1.5,None,2024-11-30 10h16.31.354464 +0530,
triangle.png,you,1,M,,,,,,,,,16,0,64,1,,,,,,,,,249.37194389999786,,,,,,,,,,,,,,,,,,,,,,,,,,,,,,,,,,,,,,,,,,,,,,,,,,,,,,,,,,,,249.35626319999574,249.37194389999786,249.85560429999896,249.85560429999896,249.85560429999896,249.85560429999896,249.87233689999994,250.15561689999595,250.15561689999595,250.15561689999595,,250.2230952999962,m,250.22350949999964,250.23919780000142,251.23966999999539,251.22343179999734,0.3557502000039676,None,,,,,,,,,,,,,,,,,,,,,,,,,,,,,,,,,,,,,,,,,,,,,,,,,,,,,,,,,,,,,,,,,,,,,,,,,,,,,A_13,001,2024-11-30_10h16.16.809,untitled,2024.1.5,None,2024-11-30 10h16.31.354464 +0530,
square.png,stranger,1,M,,,,,,,,,16,1,65,0,,,,,,,,,251.23966999999539,,,,,,,,,,,,,,,,,,,,,,,,,,,,,,,,,,,,,,,,,,,,,,,,,,,,,,,,,,,,251.22377679999772,251.23966999999539,251.7234313000008,251.7234313000008,251.7234313000008,251.7234313000008,251.73974009999802,252.0234528000001,252.0234528000001,252.0234528000001,,252.17418189999444,m,252.1746013000011,252.1899259999991,253.1905587000001,253.17431660000148,0.4355271000022185,None,,,,,,,,,,,,,,,,,,,,,,,,,,,,,,,,,,,,,,,,,,,,,,,,,,,,,,,,,,,,,,,,,,,,,,,,,,,,,A_13,001,2024-11-30_10h16.16.809,untitled,2024.1.5,None,2024-11-30 10h16.31.354464 +0530,
square.png,you,0,Z,,,,,,,,,16,2,66,2,,,,,,,,,253.1905587000001,,,,,,,,,,,,,,,,,,,,,,,,,,,,,,,,,,,,,,,,,,,,,,,,,,,,,,,,,,,,253.17465779999475,253.1905587000001,253.67435579999437,253.67435579999437,253.67435579999437,253.67435579999437,253.6906741999992,253.97430149999855,253.97430149999855,253.97430149999855,,254.04179579999618,z,254.04221639999741,254.05773259999842,255.05830389999755,255.04201289999764,0.3611594000030891,None,,,,,,,,,,,,,,,,,,,,,,,,,,,,,,,,,,,,,,,,,,,,,,,,,,,,,,,,,,,,,,,,,,,,,,,,,,,,,A_13,001,2024-11-30_10h16.16.809,untitled,2024.1.5,None,2024-11-30 10h16.31.354464 +0530,
triangle.png,stranger,0,Z,,,,,,,,,16,3,67,3,,,,,,,,,255.05830389999755,,,,,,,,,,,,,,,,,,,,,,,,,,,,,,,,,,,,,,,,,,,,,,,,,,,,,,,,,,,,255.04236179999862,255.05830389999755,255.5417862999966,255.5417862999966,255.5417862999966,255.5417862999966,255.5582873999956,255.84185140000045,255.84185140000045,255.84185140000045,256.6423247999992,256.62590369999816,None,256.62609109999903,256.6423247999992,257.6426846999966,257.6265060000005,,,,,,,,,,,,,,,,,,,,,,,,,,,,,,,,,,,,,,,,,,,,,,,,,,,,,,,,,,,,,,,,,,,,,,,,,,,,,,,A_13,001,2024-11-30_10h16.16.809,untitled,2024.1.5,None,2024-11-30 10h16.31.354464 +0530,
triangle.png,you,1,M,,,,,,,,,17,0,68,1,,,,,,,,,257.6426846999966,,,,,,,,,,,,,,,,,,,,,,,,,,,,,,,,,,,,,,,,,,,,,,,,,,,,,,,,,,,,257.62685229999624,257.6426846999966,258.14307089999784,258.14307089999784,258.14307089999784,258.14307089999784,258.14307089999784,258.4431770999945,258.4431770999945,258.4431770999945,,258.5107132999983,m,258.51112979999743,258.5267820999943,259.52709389999654,259.510889899997,0.3562101000061375,None,,,,,,,,,,,,,,,,,,,,,,,,,,,,,,,,,,,,,,,,,,,,,,,,,,,,,,,,,,,,,,,,,,,,,,,,,,,,,A_13,001,2024-11-30_10h16.16.809,untitled,2024.1.5,None,2024-11-30 10h16.31.354464 +0530,
triangle.png,stranger,0,Z,,,,,,,,,17,1,69,3,,,,,,,,,259.52709389999654,,,,,,,,,,,,,,,,,,,,,,,,,,,,,,,,,,,,,,,,,,,,,,,,,,,,,,,,,,,,259.5112433999966,259.52709389999654,260.01070739999705,260.01070739999705,260.01070739999705,260.01070739999705,260.0273171999943,260.3107957999964,260.3107957999964,260.3107957999964,261.1111363999953,261.0949993999966,None,261.0951835999949,261.1111363999953,262.11164740000095,262.09550149999995,,,,,,,,,,,,,,,,,,,,,,,,,,,,,,,,,,,,,,,,,,,,,,,,,,,,,,,,,,,,,,,,,,,,,,,,,,,,,,,A_13,001,2024-11-30_10h16.16.809,untitled,2024.1.5,None,2024-11-30 10h16.31.354464 +0530,
square.png,you,0,Z,,,,,,,,,17,2,70,2,,,,,,,,,262.11164740000095,,,,,,,,,,,,,,,,,,,,,,,,,,,,,,,,,,,,,,,,,,,,,,,,,,,,,,,,,,,,262.0958601999955,262.11164740000095,262.6120146999965,262.6120146999965,262.6120146999965,262.6120146999965,262.6120146999965,262.9123561000015,262.9123561000015,262.9123561000015,,262.9131492000015,z,262.91360110000096,262.92898109999805,263.92923639999935,263.9131286999982,0.29418920000171056,None,,,,,,,,,,,,,,,,,,,,,,,,,,,,,,,,,,,,,,,,,,,,,,,,,,,,,,,,,,,,,,,,,,,,,,,,,,,,,A_13,001,2024-11-30_10h16.16.809,untitled,2024.1.5,None,2024-11-30 10h16.31.354464 +0530,
square.png,stranger,1,M,,,,,,,,,17,3,71,0,,,,,,,,,263.92923639999935,,,,,,,,,,,,,,,,,,,,,,,,,,,,,,,,,,,,,,,,,,,,,,,,,,,,,,,,,,,,263.91348709999875,263.92923639999935,264.4131469999993,264.4131469999993,264.4131469999993,264.4131469999993,264.42987490000087,264.71306309999636,264.71306309999636,264.71306309999636,,264.8639989000003,z,264.86441389999527,264.87980109999626,265.88046100000065,265.86425410000084,0.44952789999661036,None,,,,,,,,,,,,,,,,,,,,,,,,,,,,,,,,,,,,,,,,,,,,,,,,,,,,,,,,,,,,,,,,,,,,,,,,,,,,,A_13,001,2024-11-30_10h16.16.809,untitled,2024.1.5,None,2024-11-30 10h16.31.354464 +0530,
triangle.png,you,1,M,,,,,,,,,18,0,72,1,,,,,,,,,265.88046100000065,,,,,,,,,,,,,,,,,,,,,,,,,,,,,,,,,,,,,,,,,,,,,,,,,,,,,,,,,,,,265.86459789999935,265.88046100000065,266.3640455999994,266.3640455999994,266.3640455999994,266.3640455999994,266.3808194000012,266.66405129999475,266.66405129999475,266.66405129999475,,266.7984460000007,m,266.7988656999951,266.8143162999986,267.8146179999967,267.7984357999958,0.43128060000162804,None,,,,,,,,,,,,,,,,,,,,,,,,,,,,,,,,,,,,,,,,,,,,,,,,,,,,,,,,,,,,,,,,,,,,,,,,,,,,,A_13,001,2024-11-30_10h16.16.809,untitled,2024.1.5,None,2024-11-30 10h16.31.354464 +0530,
square.png,you,0,Z,,,,,,,,,18,1,73,2,,,,,,,,,267.8146179999967,,,,,,,,,,,,,,,,,,,,,,,,,,,,,,,,,,,,,,,,,,,,,,,,,,,,,,,,,,,,267.79878409999947,267.8146179999967,268.2983232999977,268.2983232999977,268.2983232999977,268.2983232999977,268.31501909999497,268.5983617999955,268.5983617999955,268.5983617999955,,268.9998612999989,z,269.00027899999986,269.0152853999971,270.0157168000005,269.99933049999527,0.7003823999984888,None,,,,,,,,,,,,,,,,,,,,,,,,,,,,,,,,,,,,,,,,,,,,,,,,,,,,,,,,,,,,,,,,,,,,,,,,,,,,,A_13,001,2024-11-30_10h16.16.809,untitled,2024.1.5,None,2024-11-30 10h16.31.354464 +0530,
triangle.png,stranger,0,Z,,,,,,,,,18,2,74,3,,,,,,,,,270.0157168000005,,,,,,,,,,,,,,,,,,,,,,,,,,,,,,,,,,,,,,,,,,,,,,,,,,,,,,,,,,,,269.9996813999969,270.0157168000005,270.49958969999716,270.49958969999716,270.49958969999716,270.49958969999716,270.5162282999954,270.7995168999987,270.7995168999987,270.7995168999987,,270.85034469999664,m,270.85076619999745,270.8662652999992,271.86667809999926,271.8505756999948,0.34786889999668347,None,,,,,,,,,,,,,,,,,,,,,,,,,,,,,,,,,,,,,,,,,,,,,,,,,,,,,,,,,,,,,,,,,,,,,,,,,,,,,A_13,001,2024-11-30_10h16.16.809,untitled,2024.1.5,None,2024-11-30 10h16.31.354464 +0530,
square.png,stranger,1,M,,,,,,,,,18,3,75,0,,,,,,,,,271.86667809999926,,,,,,,,,,,,,,,,,,,,,,,,,,,,,,,,,,,,,,,,,,,,,,,,,,,,,,,,,,,,271.8509208999967,271.86667809999926,272.3507229999959,272.3507229999959,272.3507229999959,272.3507229999959,272.36707049999677,,,,,272.6013235999999,z,272.6017534999992,272.6171849999955,273.6176209999976,273.6015004000001,0.24489030000404455,None,,,,,,,,,,,,,,,,,,,,,,,,,,,,,,,,,,,,,,,,,,,,,,,,,,,,,,,,,,,,,,,,,,,,,,,,,,,,,A_13,001,2024-11-30_10h16.16.809,untitled,2024.1.5,None,2024-11-30 10h16.31.354464 +0530,
triangle.png,you,1,M,,,,,,,,,19,0,76,1,,,,,,,,,273.6176209999976,,,,,,,,,,,,,,,,,,,,,,,,,,,,,,,,,,,,,,,,,,,,,,,,,,,,,,,,,,,,273.6018490999995,273.6176209999976,274.10142749999795,274.10142749999795,274.10142749999795,274.10142749999795,274.1178604000015,274.40141039999435,274.40141039999435,274.40141039999435,,274.385408999995,z,274.3858764999968,274.40141039999435,275.4018824999948,275.38571819999925,0.268989900003362,None,,,,,,,,,,,,,,,,,,,,,,,,,,,,,,,,,,,,,,,,,,,,,,,,,,,,,,,,,,,,,,,,,,,,,,,,,,,,,A_13,001,2024-11-30_10h16.16.809,untitled,2024.1.5,None,2024-11-30 10h16.31.354464 +0530,
triangle.png,stranger,0,Z,,,,,,,,,19,1,77,3,,,,,,,,,275.4018824999948,,,,,,,,,,,,,,,,,,,,,,,,,,,,,,,,,,,,,,,,,,,,,,,,,,,,,,,,,,,,275.38606089999666,275.4018824999948,275.8855507999979,275.8855507999979,275.8855507999979,275.8855507999979,275.90237559999514,,,,,276.0028910999972,z,276.0033303999953,276.0189581000013,277.0193156999958,277.00326839999616,0.10440579999703914,None,,,,,,,,,,,,,,,,,,,,,,,,,,,,,,,,,,,,,,,,,,,,,,,,,,,,,,,,,,,,,,,,,,,,,,,,,,,,,A_13,001,2024-11-30_10h16.16.809,untitled,2024.1.5,None,2024-11-30 10h16.31.354464 +0530,
square.png,you,0,Z,,,,,,,,,19,2,78,2,,,,,,,,,277.0193156999958,,,,,,,,,,,,,,,,,,,,,,,,,,,,,,,,,,,,,,,,,,,,,,,,,,,,,,,,,,,,277.00361889999476,277.0193156999958,277.503203100001,277.503203100001,277.503203100001,277.503203100001,277.51952750000055,277.8032529999982,277.8032529999982,277.8032529999982,,277.7873885000008,m,277.7878032000008,277.8032529999982,278.80357540000114,278.78736289999506,0.2761276999954134,None,,,,,,,,,,,,,,,,,,,,,,,,,,,,,,,,,,,,,,,,,,,,,,,,,,,,,,,,,,,,,,,,,,,,,,,,,,,,,A_13,001,2024-11-30_10h16.16.809,untitled,2024.1.5,None,2024-11-30 10h16.31.354464 +0530,
square.png,stranger,1,M,,,,,,,,,19,3,79,0,,,,,,,,,278.80357540000114,,,,,,,,,,,,,,,,,,,,,,,,,,,,,,,,,,,,,,,,,,,,,,,,,,,,,,,,,,,,278.787728299998,278.80357540000114,279.2872920000009,279.2872920000009,279.2872920000009,279.2872920000009,279.30426050000096,279.58726169999863,279.58726169999863,279.58726169999863,,279.70477050000045,m,279.7052493999945,279.7205585999982,280.7211940999987,280.70486600000004,0.41182470000057947,None,,,,,,,,,,,,,,,,,,,,,,,,,,,,,,,,,,,,,,,,,,,,,,,,,,,,,,,,,,,,,,,,,,,,,,,,,,,,,A_13,001,2024-11-30_10h16.16.809,untitled,2024.1.5,None,2024-11-30 10h16.31.354464 +0530,
triangle.png,stranger,0,Z,,,,,,,,,20,0,80,3,,,,,,,,,280.7211940999987,,,,,,,,,,,,,,,,,,,,,,,,,,,,,,,,,,,,,,,,,,,,,,,,,,,,,,,,,,,,280.70522369999526,280.7211940999987,281.20496249999997,281.20496249999997,281.20496249999997,281.20496249999997,281.2217287999956,281.50496040000144,281.50496040000144,281.50496040000144,,281.522707899996,m,281.523128599998,281.5383389999988,282.53905459999805,282.522696,0.3145501000035438,None,,,,,,,,,,,,,,,,,,,,,,,,,,,,,,,,,,,,,,,,,,,,,,,,,,,,,,,,,,,,,,,,,,,,,,,,,,,,,A_13,001,2024-11-30_10h16.16.809,untitled,2024.1.5,None,2024-11-30 10h16.31.354464 +0530,
triangle.png,you,1,M,,,,,,,,,20,1,81,1,,,,,,,,,282.53905459999805,,,,,,,,,,,,,,,,,,,,,,,,,,,,,,,,,,,,,,,,,,,,,,,,,,,,,,,,,,,,282.52304699999513,282.53905459999805,283.0226952000012,283.0226952000012,283.0226952000012,283.0226952000012,283.0393436999948,283.3227506999974,283.3227506999974,283.3227506999974,,283.3067602999945,m,283.3071973999977,283.3227506999974,284.3231846999988,284.3069400999957,0.28085469999496127,None,,,,,,,,,,,,,,,,,,,,,,,,,,,,,,,,,,,,,,,,,,,,,,,,,,,,,,,,,,,,,,,,,,,,,,,,,,,,,A_13,001,2024-11-30_10h16.16.809,untitled,2024.1.5,None,2024-11-30 10h16.31.354464 +0530,
square.png,you,0,Z,,,,,,,,,20,2,82,2,,,,,,,,,284.3231846999988,,,,,,,,,,,,,,,,,,,,,,,,,,,,,,,,,,,,,,,,,,,,,,,,,,,,,,,,,,,,284.30728909999743,284.3231846999988,284.80665600000066,284.80665600000066,284.80665600000066,284.80665600000066,284.8235558000015,285.10659669999586,285.10659669999586,285.10659669999586,285.9068857999955,285.8904859999966,None,285.8906700000007,285.9068857999955,286.90777620000154,286.8916367999991,,,,,,,,,,,,,,,,,,,,,,,,,,,,,,,,,,,,,,,,,,,,,,,,,,,,,,,,,,,,,,,,,,,,,,,,,,,,,,,A_13,001,2024-11-30_10h16.16.809,untitled,2024.1.5,None,2024-11-30 10h16.31.354464 +0530,
square.png,stranger,1,M,,,,,,,,,20,3,83,0,,,,,,,,,286.90777620000154,,,,,,,,,,,,,,,,,,,,,,,,,,,,,,,,,,,,,,,,,,,,,,,,,,,,,,,,,,,,286.8919820999945,286.90777620000154,287.40819799999736,287.40819799999736,287.40819799999736,287.40819799999736,287.40819799999736,287.708103500001,287.708103500001,287.708103500001,,287.8921158000012,z,287.8925451999967,287.90810749999946,288.90893869999854,288.89241680000123,0.4710326999993413,None,,,,,,,,,,,,,,,,,,,,,,,,,,,,,,,,,,,,,,,,,,,,,,,,,,,,,,,,,,,,,,,,,,,,,,,,,,,,,A_13,001,2024-11-30_10h16.16.809,untitled,2024.1.5,None,2024-11-30 10h16.31.354464 +0530,
triangle.png,stranger,0,Z,,,,,,,,,21,0,84,3,,,,,,,,,288.90893869999854,,,,,,,,,,,,,,,,,,,,,,,,,,,,,,,,,,,,,,,,,,,,,,,,,,,,,,,,,,,,288.8927618999951,288.90893869999854,289.3926442999946,289.3926442999946,289.3926442999946,289.3926442999946,289.4090664999967,289.69260499999655,289.69260499999655,289.69260499999655,290.4930467999948,290.476522500001,None,290.4767184999946,290.4930467999948,291.4934353999997,291.4774105999968,,,,,,,,,,,,,,,,,,,,,,,,,,,,,,,,,,,,,,,,,,,,,,,,,,,,,,,,,,,,,,,,,,,,,,,,,,,,,,,A_13,001,2024-11-30_10h16.16.809,untitled,2024.1.5,None,2024-11-30 10h16.31.354464 +0530,
square.png,stranger,1,M,,,,,,,,,21,1,85,0,,,,,,,,,291.4934353999997,,,,,,,,,,,,,,,,,,,,,,,,,,,,,,,,,,,,,,,,,,,,,,,,,,,,,,,,,,,,291.47776650000014,291.4934353999997,291.9937355000002,291.9937355000002,291.9937355000002,291.9937355000002,291.9937355000002,292.2937399000002,292.2937399000002,292.2937399000002,,292.9114690999995,m,292.91189479999593,292.92743619999965,293.9281422999993,293.9119980999967,0.9164707000018097,None,,,,,,,,,,,,,,,,,,,,,,,,,,,,,,,,,,,,,,,,,,,,,,,,,,,,,,,,,,,,,,,,,,,,,,,,,,,,,A_13,001,2024-11-30_10h16.16.809,untitled,2024.1.5,None,2024-11-30 10h16.31.354464 +0530,
triangle.png,you,1,M,,,,,,,,,21,2,86,1,,,,,,,,,293.9281422999993,,,,,,,,,,,,,,,,,,,,,,,,,,,,,,,,,,,,,,,,,,,,,,,,,,,,,,,,,,,,293.91234899999836,293.9281422999993,294.41180979999626,294.41180979999626,294.41180979999626,294.41180979999626,294.4283537999945,294.71178549999604,294.71178549999604,294.71178549999604,,294.8791914999965,m,294.87962129999505,294.8950696999964,295.8958541999964,295.87934680000035,0.4558067999969353,None,,,,,,,,,,,,,,,,,,,,,,,,,,,,,,,,,,,,,,,,,,,,,,,,,,,,,,,,,,,,,,,,,,,,,,,,,,,,,A_13,001,2024-11-30_10h16.16.809,untitled,2024.1.5,None,2024-11-30 10h16.31.354464 +0530,
square.png,you,0,Z,,,,,,,,,21,3,87,2,,,,,,,,,295.8958541999964,,,,,,,,,,,,,,,,,,,,,,,,,,,,,,,,,,,,,,,,,,,,,,,,,,,,,,,,,,,,295.87969650000014,295.8958541999964,296.37952439999935,296.37952439999935,296.37952439999935,296.37952439999935,296.3961468999987,296.6794060999964,296.6794060999964,296.6794060999964,,296.9474753999966,z,296.94789989999845,296.962958600001,297.96326659999613,297.94716779999726,0.5670000000027358,None,,,,,,,,,,,,,,,,,,,,,,,,,,,,,,,,,,,,,,,,,,,,,,,,,,,,,,,,,,,,,,,,,,,,,,,,,,,,,A_13,001,2024-11-30_10h16.16.809,untitled,2024.1.5,None,2024-11-30 10h16.31.354464 +0530,
triangle.png,stranger,0,Z,,,,,,,,,22,0,88,3,,,,,,,,,297.96326659999613,,,,,,,,,,,,,,,,,,,,,,,,,,,,,,,,,,,,,,,,,,,,,,,,,,,,,,,,,,,,297.9475156999979,297.96326659999613,298.4473130999977,298.4473130999977,298.4473130999977,298.4473130999977,298.46372279999923,298.7470184999984,298.7470184999984,298.7470184999984,,299.13165730000037,m,299.132128199999,299.14755319999676,300.1479648999957,300.13171289999445,0.6785958000036771,None,,,,,,,,,,,,,,,,,,,,,,,,,,,,,,,,,,,,,,,,,,,,,,,,,,,,,,,,,,,,,,,,,,,,,,,,,,,,,A_13,001,2024-11-30_10h16.16.809,untitled,2024.1.5,None,2024-11-30 10h16.31.354464 +0530,
triangle.png,you,1,M,,,,,,,,,22,1,89,1,,,,,,,,,300.1479648999957,,,,,,,,,,,,,,,,,,,,,,,,,,,,,,,,,,,,,,,,,,,,,,,,,,,,,,,,,,,,300.13206809999974,300.1479648999957,300.6317235999959,300.6317235999959,300.6317235999959,300.6317235999959,300.64830059999804,300.93159580000065,300.93159580000065,300.93159580000065,,301.14898239999457,m,301.1494115999958,301.1649080999996,302.16547909999645,302.14941279999766,0.5117083000004641,None,,,,,,,,,,,,,,,,,,,,,,,,,,,,,,,,,,,,,,,,,,,,,,,,,,,,,,,,,,,,,,,,,,,,,,,,,,,,,A_13,001,2024-11-30_10h16.16.809,untitled,2024.1.5,None,2024-11-30 10h16.31.354464 +0530,
square.png,stranger,1,M,,,,,,,,,22,2,90,0,,,,,,,,,302.16547909999645,,,,,,,,,,,,,,,,,,,,,,,,,,,,,,,,,,,,,,,,,,,,,,,,,,,,,,,,,,,,302.1497586999976,302.16547909999645,302.64923109999654,302.64923109999654,302.64923109999654,302.64923109999654,302.66593559999455,302.9492878999954,302.9492878999954,302.9492878999954,,303.0001951000013,z,303.0006123999992,303.01599789999455,304.016420699998,304.0000392000002,0.348674500004563,None,,,,,,,,,,,,,,,,,,,,,,,,,,,,,,,,,,,,,,,,,,,,,,,,,,,,,,,,,,,,,,,,,,,,,,,,,,,,,A_13,001,2024-11-30_10h16.16.809,untitled,2024.1.5,None,2024-11-30 10h16.31.354464 +0530,
square.png,you,0,Z,,,,,,,,,22,3,91,2,,,,,,,,,304.016420699998,,,,,,,,,,,,,,,,,,,,,,,,,,,,,,,,,,,,,,,,,,,,,,,,,,,,,,,,,,,,304.00041390000115,304.016420699998,304.50020909999876,304.50020909999876,304.50020909999876,304.50020909999876,304.51663689999987,304.7999475999968,304.7999475999968,304.7999475999968,,304.9676080999998,m,304.9680337999962,304.98373609999544,305.98418970000057,305.96807189999527,0.4511151999977301,None,,,,,,,,,,,,,,,,,,,,,,,,,,,,,,,,,,,,,,,,,,,,,,,,,,,,,,,,,,,,,,,,,,,,,,,,,,,,,A_13,001,2024-11-30_10h16.16.809,untitled,2024.1.5,None,2024-11-30 10h16.31.354464 +0530,
triangle.png,you,1,M,,,,,,,,,23,0,92,1,,,,,,,,,305.98418970000057,,,,,,,,,,,,,,,,,,,,,,,,,,,,,,,,,,,,,,,,,,,,,,,,,,,,,,,,,,,,305.9684210999985,305.98418970000057,306.46787709999626,306.46787709999626,306.46787709999626,306.46787709999626,306.4843284999952,306.7679280999946,306.7679280999946,306.7679280999946,,306.93546349999815,z,306.93587860000116,306.9512795999981,307.9515517999971,307.9351303000003,0.45477889999892795,None,,,,,,,,,,,,,,,,,,,,,,,,,,,,,,,,,,,,,,,,,,,,,,,,,,,,,,,,,,,,,,,,,,,,,,,,,,,,,A_13,001,2024-11-30_10h16.16.809,untitled,2024.1.5,None,2024-11-30 10h16.31.354464 +0530,
square.png,stranger,1,M,,,,,,,,,23,1,93,0,,,,,,,,,307.9515517999971,,,,,,,,,,,,,,,,,,,,,,,,,,,,,,,,,,,,,,,,,,,,,,,,,,,,,,,,,,,,307.93545520000043,307.9515517999971,308.4354714000001,308.4354714000001,308.4354714000001,308.4354714000001,308.45198269999673,308.73543749999953,308.73543749999953,308.73543749999953,,308.8696345999997,z,308.8700649999955,308.88541569999506,309.8860777999944,309.86981289999676,0.4317234999980428,None,,,,,,,,,,,,,,,,,,,,,,,,,,,,,,,,,,,,,,,,,,,,,,,,,,,,,,,,,,,,,,,,,,,,,,,,,,,,,A_13,001,2024-11-30_10h16.16.809,untitled,2024.1.5,None,2024-11-30 10h16.31.354464 +0530,
square.png,you,0,Z,,,,,,,,,23,2,94,2,,,,,,,,,309.8860777999944,,,,,,,,,,,,,,,,,,,,,,,,,,,,,,,,,,,,,,,,,,,,,,,,,,,,,,,,,,,,309.87015849999443,309.8860777999944,310.36998889999813,310.36998889999813,310.36998889999813,310.36998889999813,310.3867773999955,,,,,310.60399589999724,z,310.60442359999433,310.61985789999744,311.6203374999968,311.6042898000014,0.22501850000116974,None,,,,,,,,,,,,,,,,,,,,,,,,,,,,,,,,,,,,,,,,,,,,,,,,,,,,,,,,,,,,,,,,,,,,,,,,,,,,,A_13,001,2024-11-30_10h16.16.809,untitled,2024.1.5,None,2024-11-30 10h16.31.354464 +0530,
triangle.png,stranger,0,Z,,,,,,,,,23,3,95,3,,,,,,,,,311.6203374999968,,,,,,,,,,,,,,,,,,,,,,,,,,,,,,,,,,,,,,,,,,,,,,,,,,,,,,,,,,,,311.6046436999968,311.6203374999968,312.1042377999984,312.1042377999984,312.1042377999984,312.1042377999984,312.1208101999946,,,,,312.3048482999948,z,312.3052828,312.32087269999465,313.3213678999964,313.3052435999998,0.19530440000380622,None,,,,,,,,,,,,,,,,,,,,,,,,,,,,,,,,,,,,,,,,,,,,,,,,,,,,,,,,,,,,,,,,,,,,,,,,,,,,,A_13,001,2024-11-30_10h16.16.809,untitled,2024.1.5,None,2024-11-30 10h16.31.354464 +0530,
triangle.png,stranger,0,Z,,,,,,,,,24,0,96,3,,,,,,,,,313.3213678999964,,,,,,,,,,,,,,,,,,,,,,,,,,,,,,,,,,,,,,,,,,,,,,,,,,,,,,,,,,,,313.30558680000104,313.3213678999964,313.8051009999981,313.8051009999981,313.8051009999981,313.8051009999981,313.8216562999951,314.1049309000009,314.1049309000009,314.1049309000009,,314.2389946999974,z,314.23940839999705,314.25521569999546,315.2555757000009,315.23945580000145,0.42570539999724133,None,,,,,,,,,,,,,,,,,,,,,,,,,,,,,,,,,,,,,,,,,,,,,,,,,,,,,,,,,,,,,,,,,,,,,,,,,,,,,A_13,001,2024-11-30_10h16.16.809,untitled,2024.1.5,None,2024-11-30 10h16.31.354464 +0530,
square.png,stranger,1,M,,,,,,,,,24,1,97,0,,,,,,,,,315.2555757000009,,,,,,,,,,,,,,,,,,,,,,,,,,,,,,,,,,,,,,,,,,,,,,,,,,,,,,,,,,,,315.2398000999965,315.2555757000009,315.7393341999996,315.7393341999996,315.7393341999996,315.7393341999996,315.7558977000008,316.03929879999487,316.03929879999487,316.03929879999487,,316.17362509999657,m,316.17404449999594,316.1892990999986,317.19015560000116,317.17373249999946,0.42664220000006026,None,,,,,,,,,,,,,,,,,,,,,,,,,,,,,,,,,,,,,,,,,,,,,,,,,,,,,,,,,,,,,,,,,,,,,,,,,,,,,A_13,001,2024-11-30_10h16.16.809,untitled,2024.1.5,None,2024-11-30 10h16.31.354464 +0530,
square.png,you,0,Z,,,,,,,,,24,2,98,2,,,,,,,,,317.19015560000116,,,,,,,,,,,,,,,,,,,,,,,,,,,,,,,,,,,,,,,,,,,,,,,,,,,,,,,,,,,,317.17408169999544,317.19015560000116,317.6736931999985,317.6736931999985,317.6736931999985,317.6736931999985,317.6901676999987,317.9736377999943,317.9736377999943,317.9736377999943,,317.990944899997,m,317.991383499997,318.0067867999969,319.0075011999943,318.991251499996,0.3096676999994088,None,,,,,,,,,,,,,,,,,,,,,,,,,,,,,,,,,,,,,,,,,,,,,,,,,,,,,,,,,,,,,,,,,,,,,,,,,,,,,A_13,001,2024-11-30_10h16.16.809,untitled,2024.1.5,None,2024-11-30 10h16.31.354464 +0530,
triangle.png,you,1,M,,,,,,,,,24,3,99,1,,,,,,,,,319.0075011999943,,,,,,,,,,,,,,,,,,,,,,,,,,,,,,,,,,,,,,,,,,,,,,,,,,,,,,,,,,,,318.9916479999956,319.0075011999943,319.4912273000009,319.4912273000009,319.4912273000009,319.4912273000009,319.50792419999925,319.79127000000153,319.79127000000153,319.79127000000153,,319.7920118999973,m,319.79243639999913,319.80789509999886,320.80829399999493,320.79216579999775,0.2918322000041371,None,,,,,,,,,,,,,,,,,,,,,,,,,,,,,,,,,,,,,,,,,,,,,,,,,,,,,,,,,,,,,,,,,,,,,,,,,,,,,A_13,001,2024-11-30_10h16.16.809,untitled,2024.1.5,None,2024-11-30 10h16.31.354464 +0530,
triangle.png,you,1,M,,,,,,,,,25,0,100,1,,,,,,,,,320.80829399999493,,,,,,,,,,,,,,,,,,,,,,,,,,,,,,,,,,,,,,,,,,,,,,,,,,,,,,,,,,,,320.7925088999982,320.80829399999493,321.29228539999895,321.29228539999895,321.29228539999895,321.29228539999895,321.3087704999998,321.59224019999965,321.59224019999965,321.59224019999965,,321.6600260999985,m,321.66052749999653,321.6754146999956,322.6760987999951,322.6598592999944,0.3628357999987202,None,,,,,,,,,,,,,,,,,,,,,,,,,,,,,,,,,,,,,,,,,,,,,,,,,,,,,,,,,,,,,,,,,,,,,,,,,,,,,A_13,001,2024-11-30_10h16.16.809,untitled,2024.1.5,None,2024-11-30 10h16.31.354464 +0530,
square.png,stranger,1,M,,,,,,,,,25,1,101,0,,,,,,,,,322.6760987999951,,,,,,,,,,,,,,,,,,,,,,,,,,,,,,,,,,,,,,,,,,,,,,,,,,,,,,,,,,,,322.6602070999943,322.6760987999951,323.1597976999983,323.1597976999983,323.1597976999983,323.1597976999983,323.1765330999988,323.45973180000146,323.45973180000146,323.45973180000146,,323.4936458000011,z,323.49408089999633,323.5099593999985,324.5104025999972,324.494114000001,0.33067709999886574,None,,,,,,,,,,,,,,,,,,,,,,,,,,,,,,,,,,,,,,,,,,,,,,,,,,,,,,,,,,,,,,,,,,,,,,,,,,,,,A_13,001,2024-11-30_10h16.16.809,untitled,2024.1.5,None,2024-11-30 10h16.31.354464 +0530,
triangle.png,stranger,0,Z,,,,,,,,,25,2,102,3,,,,,,,,,324.5104025999972,,,,,,,,,,,,,,,,,,,,,,,,,,,,,,,,,,,,,,,,,,,,,,,,,,,,,,,,,,,,324.4944617000001,324.5104025999972,324.99413970000023,324.99413970000023,324.99413970000023,324.99413970000023,325.01072289999865,325.29408749999857,325.29408749999857,325.29408749999857,,325.34491590000107,m,325.34533219999867,325.3609018999996,326.36121060000005,326.34494399999676,0.33707529999810504,None,,,,,,,,,,,,,,,,,,,,,,,,,,,,,,,,,,,,,,,,,,,,,,,,,,,,,,,,,,,,,,,,,,,,,,,,,,,,,A_13,001,2024-11-30_10h16.16.809,untitled,2024.1.5,None,2024-11-30 10h16.31.354464 +0530,
square.png,you,0,Z,,,,,,,,,25,3,103,2,,,,,,,,,326.36121060000005,,,,,,,,,,,,,,,,,,,,,,,,,,,,,,,,,,,,,,,,,,,,,,,,,,,,,,,,,,,,326.34528509999654,326.36121060000005,326.84500919999846,326.84500919999846,326.84500919999846,326.84500919999846,326.8614811000007,327.1449231000006,327.1449231000006,327.1449231000006,,327.2124216999946,m,327.21285089999583,327.2282836000013,328.22887759999867,328.21271429999615,0.35400250000384403,None,,,,,,,,,,,,,,,,,,,,,,,,,,,,,,,,,,,,,,,,,,,,,,,,,,,,,,,,,,,,,,,,,,,,,,,,,,,,,A_13,001,2024-11-30_10h16.16.809,untitled,2024.1.5,None,2024-11-30 10h16.31.354464 +0530,
triangle.png,stranger,0,Z,,,,,,,,,26,0,104,3,,,,,,,,,328.22887759999867,,,,,,,,,,,,,,,,,,,,,,,,,,,,,,,,,,,,,,,,,,,,,,,,,,,,,,,,,,,,328.2130642999982,328.22887759999867,328.71263239999826,328.71263239999826,328.71263239999826,328.71263239999826,328.7291761000015,329.0126891999971,329.0126891999971,329.0126891999971,329.8131193999943,329.79677380000066,None,329.79696669999976,329.8131193999943,330.8133894999992,330.7970998999954,,,,,,,,,,,,,,,,,,,,,,,,,,,,,,,,,,,,,,,,,,,,,,,,,,,,,,,,,,,,,,,,,,,,,,,,,,,,,,,A_13,001,2024-11-30_10h16.16.809,untitled,2024.1.5,None,2024-11-30 10h16.31.354464 +0530,
triangle.png,you,1,M,,,,,,,,,26,1,105,1,,,,,,,,,330.8133894999992,,,,,,,,,,,,,,,,,,,,,,,,,,,,,,,,,,,,,,,,,,,,,,,,,,,,,,,,,,,,330.79745230000117,330.8133894999992,331.31401429999823,331.31401429999823,331.31401429999823,331.31401429999823,331.31401429999823,331.61383940000087,331.61383940000087,331.61383940000087,,331.71492549999675,m,331.71534650000103,331.73083019999467,332.7312873999981,332.71503790000133,0.3894988000029116,None,,,,,,,,,,,,,,,,,,,,,,,,,,,,,,,,,,,,,,,,,,,,,,,,,,,,,,,,,,,,,,,,,,,,,,,,,,,,,A_13,001,2024-11-30_10h16.16.809,untitled,2024.1.5,None,2024-11-30 10h16.31.354464 +0530,
square.png,stranger,1,M,,,,,,,,,26,2,106,0,,,,,,,,,332.7312873999981,,,,,,,,,,,,,,,,,,,,,,,,,,,,,,,,,,,,,,,,,,,,,,,,,,,,,,,,,,,,332.7153924000013,332.7312873999981,333.21507449999626,333.21507449999626,333.21507449999626,333.21507449999626,333.2314557999998,333.51480199999787,333.51480199999787,333.51480199999787,,333.64891219999845,z,333.6493324999974,333.6650643999965,334.6657539000007,334.6491793999958,0.42271489999984624,None,,,,,,,,,,,,,,,,,,,,,,,,,,,,,,,,,,,,,,,,,,,,,,,,,,,,,,,,,,,,,,,,,,,,,,,,,,,,,A_13,001,2024-11-30_10h16.16.809,untitled,2024.1.5,None,2024-11-30 10h16.31.354464 +0530,
square.png,you,0,Z,,,,,,,,,26,3,107,2,,,,,,,,,334.6657539000007,,,,,,,,,,,,,,,,,,,,,,,,,,,,,,,,,,,,,,,,,,,,,,,,,,,,,,,,,,,,334.64952359999734,334.6657539000007,335.1492891999951,335.1492891999951,335.1492891999951,335.1492891999951,335.1656593000007,335.44913950000046,335.44913950000046,335.44913950000046,,335.5665835999971,z,335.5670023999992,335.58262699999614,336.5831296999968,336.56699359999766,0.41326119999575894,None,,,,,,,,,,,,,,,,,,,,,,,,,,,,,,,,,,,,,,,,,,,,,,,,,,,,,,,,,,,,,,,,,,,,,,,,,,,,,A_13,001,2024-11-30_10h16.16.809,untitled,2024.1.5,None,2024-11-30 10h16.31.354464 +0530,
triangle.png,you,1,M,,,,,,,,,27,0,108,1,,,,,,,,,336.5831296999968,,,,,,,,,,,,,,,,,,,,,,,,,,,,,,,,,,,,,,,,,,,,,,,,,,,,,,,,,,,,336.5673486000014,336.5831296999968,337.0670933000001,337.0670933000001,337.0670933000001,337.0670933000001,337.0834055999949,337.36682350000046,337.36682350000046,337.36682350000046,,337.4344234999953,m,337.4348783999958,337.45019959999627,338.4507461999965,338.43459209999855,0.3587457999965409,None,,,,,,,,,,,,,,,,,,,,,,,,,,,,,,,,,,,,,,,,,,,,,,,,,,,,,,,,,,,,,,,,,,,,,,,,,,,,,A_13,001,2024-11-30_10h16.16.809,untitled,2024.1.5,None,2024-11-30 10h16.31.354464 +0530,
square.png,you,0,Z,,,,,,,,,27,1,109,2,,,,,,,,,338.4507461999965,,,,,,,,,,,,,,,,,,,,,,,,,,,,,,,,,,,,,,,,,,,,,,,,,,,,,,,,,,,,338.4349416999976,338.4507461999965,338.93462680000084,338.93462680000084,338.93462680000084,338.93462680000084,338.95095610000135,339.23440619999747,339.23440619999747,339.23440619999747,,339.53554989999975,z,339.535970799996,339.5514094999962,340.5517519999994,340.535756199999,0.5958189000011771,None,,,,,,,,,,,,,,,,,,,,,,,,,,,,,,,,,,,,,,,,,,,,,,,,,,,,,,,,,,,,,,,,,,,,,,,,,,,,,A_13,001,2024-11-30_10h16.16.809,untitled,2024.1.5,None,2024-11-30 10h16.31.354464 +0530,
square.png,stranger,1,M,,,,,,,,,27,2,110,0,,,,,,,,,340.5517519999994,,,,,,,,,,,,,,,,,,,,,,,,,,,,,,,,,,,,,,,,,,,,,,,,,,,,,,,,,,,,340.53609689999575,340.5517519999994,341.0355943999966,341.0355943999966,341.0355943999966,341.0355943999966,341.05208409999614,341.3354494000014,341.3354494000014,341.3354494000014,,341.93671699999686,m,341.93713969999953,341.95253819999925,342.9529227999956,342.9368816999995,0.8911049999951501,None,,,,,,,,,,,,,,,,,,,,,,,,,,,,,,,,,,,,,,,,,,,,,,,,,,,,,,,,,,,,,,,,,,,,,,,,,,,,,A_13,001,2024-11-30_10h16.16.809,untitled,2024.1.5,None,2024-11-30 10h16.31.354464 +0530,
triangle.png,stranger,0,Z,,,,,,,,,27,3,111,3,,,,,,,,,342.9529227999956,,,,,,,,,,,,,,,,,,,,,,,,,,,,,,,,,,,,,,,,,,,,,,,,,,,,,,,,,,,,342.9372250000015,342.9529227999956,343.4369735,343.4369735,343.4369735,343.4369735,343.45336690000113,343.7367285,343.7367285,343.7367285,,343.8374979,m,343.8379128000015,343.8537333999993,344.8541519999999,344.83780309999565,0.3889134999990347,None,,,,,,,,,,,,,,,,,,,,,,,,,,,,,,,,,,,,,,,,,,,,,,,,,,,,,,,,,,,,,,,,,,,,,,,,,,,,,A_13,001,2024-11-30_10h16.16.809,untitled,2024.1.5,None,2024-11-30 10h16.31.354464 +0530,
square.png,you,0,Z,,,,,,,,,28,0,112,2,,,,,,,,,344.8541519999999,,,,,,,,,,,,,,,,,,,,,,,,,,,,,,,,,,,,,,,,,,,,,,,,,,,,,,,,,,,,344.838150399999,344.8541519999999,345.3378145999959,345.3378145999959,345.3378145999959,345.3378145999959,345.354351199996,345.637788,345.637788,345.637788,,345.7887955999977,z,345.7892165999947,345.80463329999475,346.8050820999997,346.78894020000007,0.44062380000104895,None,,,,,,,,,,,,,,,,,,,,,,,,,,,,,,,,,,,,,,,,,,,,,,,,,,,,,,,,,,,,,,,,,,,,,,,,,,,,,A_13,001,2024-11-30_10h16.16.809,untitled,2024.1.5,None,2024-11-30 10h16.31.354464 +0530,
square.png,stranger,1,M,,,,,,,,,28,1,113,0,,,,,,,,,346.8050820999997,,,,,,,,,,,,,,,,,,,,,,,,,,,,,,,,,,,,,,,,,,,,,,,,,,,,,,,,,,,,346.78929570000037,346.8050820999997,347.2886115000001,347.2886115000001,347.2886115000001,347.2886115000001,347.30524850000074,347.58883760000026,347.58883760000026,347.58883760000026,,348.0397817999983,z,348.0402060999986,348.05579130000115,349.05622039999434,349.04000679999444,0.7418968999991193,None,,,,,,,,,,,,,,,,,,,,,,,,,,,,,,,,,,,,,,,,,,,,,,,,,,,,,,,,,,,,,,,,,,,,,,,,,,,,,A_13,001,2024-11-30_10h16.16.809,untitled,2024.1.5,None,2024-11-30 10h16.31.354464 +0530,
triangle.png,you,1,M,,,,,,,,,28,2,114,1,,,,,,,,,349.05622039999434,,,,,,,,,,,,,,,,,,,,,,,,,,,,,,,,,,,,,,,,,,,,,,,,,,,,,,,,,,,,349.0403561999992,349.05622039999434,349.5400727000015,349.5400727000015,349.5400727000015,349.5400727000015,349.5563872999992,349.8397171999968,349.8397171999968,349.8397171999968,,349.9740027000007,m,349.97442249999585,349.989952099997,350.9906652999998,350.97413199999573,0.4273278000036953,None,,,,,,,,,,,,,,,,,,,,,,,,,,,,,,,,,,,,,,,,,,,,,,,,,,,,,,,,,,,,,,,,,,,,,,,,,,,,,A_13,001,2024-11-30_10h16.16.809,untitled,2024.1.5,None,2024-11-30 10h16.31.354464 +0530,
triangle.png,stranger,0,Z,,,,,,,,,28,3,115,3,,,,,,,,,350.9906652999998,,,,,,,,,,,,,,,,,,,,,,,,,,,,,,,,,,,,,,,,,,,,,,,,,,,,,,,,,,,,350.9744783999995,350.9906652999998,351.47430339999846,351.47430339999846,351.47430339999846,351.47430339999846,351.4909394999995,351.77408119999745,351.77408119999745,351.77408119999745,,351.90834589999577,m,351.90876279999793,351.9244746999975,352.92490309999994,352.90848410000035,0.42826529999729246,None,,,,,,,,,,,,,,,,,,,,,,,,,,,,,,,,,,,,,,,,,,,,,,,,,,,,,,,,,,,,,,,,,,,,,,,,,,,,,A_13,001,2024-11-30_10h16.16.809,untitled,2024.1.5,None,2024-11-30 10h16.31.354464 +0530,
triangle.png,stranger,0,Z,,,,,,,,,29,0,116,3,,,,,,,,,352.92490309999994,,,,,,,,,,,,,,,,,,,,,,,,,,,,,,,,,,,,,,,,,,,,,,,,,,,,,,,,,,,,352.90883290000056,352.92490309999994,353.4086556999973,353.4086556999973,353.4086556999973,353.4086556999973,353.42534409999644,353.70846029999666,353.70846029999666,353.70846029999666,,354.25954429999547,z,354.25996199999645,354.27570159999595,355.2760952999961,355.25971779999963,0.8496402999953716,None,,,,,,,,,,,,,,,,,,,,,,,,,,,,,,,,,,,,,,,,,,,,,,,,,,,,,,,,,,,,,,,,,,,,,,,,,,,,,A_13,001,2024-11-30_10h16.16.809,untitled,2024.1.5,None,2024-11-30 10h16.31.354464 +0530,
square.png,stranger,1,M,,,,,,,,,29,1,117,0,,,,,,,,,355.2760952999961,,,,,,,,,,,,,,,,,,,,,,,,,,,,,,,,,,,,,,,,,,,,,,,,,,,,,,,,,,,,355.2600697999951,355.2760952999961,355.75986120000016,355.75986120000016,355.75986120000016,355.75986120000016,355.7764221999969,356.05982689999655,356.05982689999655,356.05982689999655,,356.5442438999962,m,356.5447004999951,356.55999339999835,357.5606717999981,357.544461599995,0.7791522000043187,None,,,,,,,,,,,,,,,,,,,,,,,,,,,,,,,,,,,,,,,,,,,,,,,,,,,,,,,,,,,,,,,,,,,,,,,,,,,,,A_13,001,2024-11-30_10h16.16.809,untitled,2024.1.5,None,2024-11-30 10h16.31.354464 +0530,
square.png,you,0,Z,,,,,,,,,29,2,118,2,,,,,,,,,357.5606717999981,,,,,,,,,,,,,,,,,,,,,,,,,,,,,,,,,,,,,,,,,,,,,,,,,,,,,,,,,,,,357.5448045999947,357.5606717999981,358.04418989999976,358.04418989999976,358.04418989999976,358.04418989999976,358.06073549999564,358.34418229999574,358.34418229999574,358.34418229999574,,358.8120600999973,z,358.812477200001,358.82794640000066,359.8284491999948,359.81205079999927,0.7628981000016211,None,,,,,,,,,,,,,,,,,,,,,,,,,,,,,,,,,,,,,,,,,,,,,,,,,,,,,,,,,,,,,,,,,,,,,,,,,,,,,A_13,001,2024-11-30_10h16.16.809,untitled,2024.1.5,None,2024-11-30 10h16.31.354464 +0530,
triangle.png,you,1,M,,,,,,,,,29,3,119,1,,,,,,,,,359.8284491999948,,,,,,,,,,,,,,,,,,,,,,,,,,,,,,,,,,,,,,,,,,,,,,,,,,,,,,,,,,,,359.81242689999635,359.8284491999948,360.31211299999995,360.31211299999995,360.31211299999995,360.31211299999995,360.3288102000006,360.6122117999985,360.6122117999985,360.6122117999985,,360.97978039999725,m,360.9801984000005,360.99562579999474,361.99624100000074,361.9800233999995,0.6585907000044244,None,,,,,,,,,,,,,,,,,,,,,,,,,,,,,,,,,,,,,,,,,,,,,,,,,,,,,,,,,,,,,,,,,,,,,,,,,,,,,A_13,001,2024-11-30_10h16.16.809,untitled,2024.1.5,None,2024-11-30 10h16.31.354464 +0530,
square.png,stranger,1,M,,,,,,,,,30,0,120,0,,,,,,,,,361.99624100000074,,,,,,,,,,,,,,,,,,,,,,,,,,,,,,,,,,,,,,,,,,,,,,,,,,,,,,,,,,,,361.9803660999969,361.99624100000074,362.47998350000125,362.47998350000125,362.47998350000125,362.47998350000125,362.4965816999975,362.7798849999963,362.7798849999963,362.7798849999963,,363.16426249999495,z,363.1646948999987,363.18016299999726,364.1805056999947,364.16415119999874,0.6822148999999627,None,,,,,,,,,,,,,,,,,,,,,,,,,,,,,,,,,,,,,,,,,,,,,,,,,,,,,,,,,,,,,,,,,,,,,,,,,,,,,A_13,001,2024-11-30_10h16.16.809,untitled,2024.1.5,None,2024-11-30 10h16.31.354464 +0530,
triangle.png,you,1,M,,,,,,,,,30,1,121,1,,,,,,,,,364.1805056999947,,,,,,,,,,,,,,,,,,,,,,,,,,,,,,,,,,,,,,,,,,,,,,,,,,,,,,,,,,,,364.16450949999853,364.1805056999947,364.6641452999975,364.6641452999975,364.6641452999975,364.6641452999975,364.68073390000063,364.96420260000014,364.96420260000014,364.96420260000014,,365.3151752999984,m,365.3156081999987,365.3310128999947,366.33172560000094,366.3152495999966,0.6465274000001955,None,,,,,,,,,,,,,,,,,,,,,,,,,,,,,,,,,,,,,,,,,,,,,,,,,,,,,,,,,,,,,,,,,,,,,,,,,,,,,A_13,001,2024-11-30_10h16.16.809,untitled,2024.1.5,None,2024-11-30 10h16.31.354464 +0530,
square.png,you,0,Z,,,,,,,,,30,2,122,2,,,,,,,,,366.33172560000094,,,,,,,,,,,,,,,,,,,,,,,,,,,,,,,,,,,,,,,,,,,,,,,,,,,,,,,,,,,,366.3156006999998,366.33172560000094,366.81549860000086,366.81549860000086,366.81549860000086,366.81549860000086,366.8319973999969,367.11545649999607,367.11545649999607,367.11545649999607,,367.39968199999566,z,367.40010320000147,367.415488300001,368.4160711000004,368.3997601999945,0.5673048000026029,None,,,,,,,,,,,,,,,,,,,,,,,,,,,,,,,,,,,,,,,,,,,,,,,,,,,,,,,,,,,,,,,,,,,,,,,,,,,,,A_13,001,2024-11-30_10h16.16.809,untitled,2024.1.5,None,2024-11-30 10h16.31.354464 +0530,
triangle.png,stranger,0,Z,,,,,,,,,30,3,123,3,,,,,,,,,368.4160711000004,,,,,,,,,,,,,,,,,,,,,,,,,,,,,,,,,,,,,,,,,,,,,,,,,,,,,,,,,,,,368.40010220000113,368.4160711000004,368.8999737999984,368.8999737999984,368.8999737999984,368.8999737999984,368.91656189999776,369.199893099998,369.199893099998,369.199893099998,,369.9174311999959,m,369.91786009999487,369.93330639999476,370.93399099999806,370.91783120000036,1.0117836000063107,None,,,,,,,,,,,,,,,,,,,,,,,,,,,,,,,,,,,,,,,,,,,,,,,,,,,,,,,,,,,,,,,,,,,,,,,,,,,,,A_13,001,2024-11-30_10h16.16.809,untitled,2024.1.5,None,2024-11-30 10h16.31.354464 +0530,
triangle.png,stranger,0,Z,,,,,,,,,31,0,124,3,,,,,,,,,370.93399099999806,,,,,,,,,,,,,,,,,,,,,,,,,,,,,,,,,,,,,,,,,,,,,,,,,,,,,,,,,,,,370.91819060000125,370.93399099999806,371.41793719999987,371.41793719999987,371.41793719999987,371.41793719999987,371.434465499995,371.7178533999977,371.7178533999977,371.7178533999977,372.5181666999997,372.5016847000006,None,372.5018748000002,372.5181666999997,373.51851599999645,373.5025356999977,,,,,,,,,,,,,,,,,,,,,,,,,,,,,,,,,,,,,,,,,,,,,,,,,,,,,,,,,,,,,,,,,,,,,,,,,,,,,,,A_13,001,2024-11-30_10h16.16.809,untitled,2024.1.5,None,2024-11-30 10h16.31.354464 +0530,
square.png,you,0,Z,,,,,,,,,31,1,125,2,,,,,,,,,373.51851599999645,,,,,,,,,,,,,,,,,,,,,,,,,,,,,,,,,,,,,,,,,,,,,,,,,,,,,,,,,,,,373.50290849999874,373.51851599999645,374.0189820999949,374.0189820999949,374.0189820999949,374.0189820999949,374.0189820999949,374.31905529999494,374.31905529999494,374.31905529999494,,374.8701402000006,m,374.8705692000003,374.88610279999557,375.88668529999995,375.87029719999555,0.8441461000038544,None,,,,,,,,,,,,,,,,,,,,,,,,,,,,,,,,,,,,,,,,,,,,,,,,,,,,,,,,,,,,,,,,,,,,,,,,,,,,,A_13,001,2024-11-30_10h16.16.809,untitled,2024.1.5,None,2024-11-30 10h16.31.354464 +0530,
triangle.png,you,1,M,,,,,,,,,31,2,126,1,,,,,,,,,375.88668529999995,,,,,,,,,,,,,,,,,,,,,,,,,,,,,,,,,,,,,,,,,,,,,,,,,,,,,,,,,,,,375.87064429999737,375.88668529999995,376.3701925999994,376.3701925999994,376.3701925999994,376.3701925999994,376.38686790000065,376.67013649999717,376.67013649999717,376.67013649999717,,376.7878983999981,m,376.78831119999813,376.80365869999514,377.80412100000103,377.7879390999951,0.4075948000026983,None,,,,,,,,,,,,,,,,,,,,,,,,,,,,,,,,,,,,,,,,,,,,,,,,,,,,,,,,,,,,,,,,,,,,,,,,,,,,,A_13,001,2024-11-30_10h16.16.809,untitled,2024.1.5,None,2024-11-30 10h16.31.354464 +0530,
square.png,stranger,1,M,,,,,,,,,31,3,127,0,,,,,,,,,377.80412100000103,,,,,,,,,,,,,,,,,,,,,,,,,,,,,,,,,,,,,,,,,,,,,,,,,,,,,,,,,,,,377.78828760000033,377.80412100000103,378.2877487000005,378.2877487000005,378.2877487000005,378.2877487000005,378.3043347999992,378.58797960000084,378.58797960000084,378.58797960000084,,378.97216489999846,z,378.97258009999496,378.98802449999494,379.988686699995,379.9725371999957,0.6740780000036466,None,,,,,,,,,,,,,,,,,,,,,,,,,,,,,,,,,,,,,,,,,,,,,,,,,,,,,,,,,,,,,,,,,,,,,,,,,,,,,A_13,001,2024-11-30_10h16.16.809,untitled,2024.1.5,None,2024-11-30 10h16.31.354464 +0530,
triangle.png,you,1,M,,,,,,,,,32,0,128,1,,,,,,,,,379.988686699995,,,,,,,,,,,,,,,,,,,,,,,,,,,,,,,,,,,,,,,,,,,,,,,,,,,,,,,,,,,,379.97288229999685,379.988686699995,380.4724294999978,380.4724294999978,380.4724294999978,380.4724294999978,380.4889255999951,380.7723849999966,380.7723849999966,380.7723849999966,,381.056700299996,m,381.05712219999987,381.0726930999954,382.0730622999981,382.05685919999814,0.5829377999980352,None,,,,,,,,,,,,,,,,,,,,,,,,,,,,,,,,,,,,,,,,,,,,,,,,,,,,,,,,,,,,,,,,,,,,,,,,,,,,,A_13,001,2024-11-30_10h16.16.809,untitled,2024.1.5,None,2024-11-30 10h16.31.354464 +0530,
triangle.png,stranger,0,Z,,,,,,,,,32,1,129,3,,,,,,,,,382.0730622999981,,,,,,,,,,,,,,,,,,,,,,,,,,,,,,,,,,,,,,,,,,,,,,,,,,,,,,,,,,,,382.0572061999992,382.0730622999981,382.55664609999803,382.55664609999803,382.55664609999803,382.55664609999803,382.5735096999997,382.8567722000007,382.8567722000007,382.8567722000007,,383.1242243000015,z,383.1246409999949,383.1402048999953,384.14099390000047,384.12474949999887,0.5539672000013525,None,,,,,,,,,,,,,,,,,,,,,,,,,,,,,,,,,,,,,,,,,,,,,,,,,,,,,,,,,,,,,,,,,,,,,,,,,,,,,A_13,001,2024-11-30_10h16.16.809,untitled,2024.1.5,None,2024-11-30 10h16.31.354464 +0530,
square.png,stranger,1,M,,,,,,,,,32,2,130,0,,,,,,,,,384.14099390000047,,,,,,,,,,,,,,,,,,,,,,,,,,,,,,,,,,,,,,,,,,,,,,,,,,,,,,,,,,,,384.12511999999697,384.14099390000047,384.62437469999713,384.62437469999713,384.62437469999713,384.62437469999713,384.64088379999885,384.9245560999989,384.9245560999989,384.9245560999989,,385.3587273999947,m,385.3591557999971,385.3747466999994,386.3752419999946,386.359023099998,0.7294825999997556,None,,,,,,,,,,,,,,,,,,,,,,,,,,,,,,,,,,,,,,,,,,,,,,,,,,,,,,,,,,,,,,,,,,,,,,,,,,,,,A_13,001,2024-11-30_10h16.16.809,untitled,2024.1.5,None,2024-11-30 10h16.31.354464 +0530,
square.png,you,0,Z,,,,,,,,,32,3,131,2,,,,,,,,,386.3752419999946,,,,,,,,,,,,,,,,,,,,,,,,,,,,,,,,,,,,,,,,,,,,,,,,,,,,,,,,,,,,386.359363399999,386.3752419999946,386.8590861999983,386.8590861999983,386.8590861999983,386.8590861999983,386.87545529999625,387.15891120000015,387.15891120000015,387.15891120000015,,387.92695329999697,z,387.92737710000074,387.94285970000055,388.94339169999876,388.9270577999996,1.058420000001206,None,,,,,,,,,,,,,,,,,,,,,,,,,,,,,,,,,,,,,,,,,,,,,,,,,,,,,,,,,,,,,,,,,,,,,,,,,,,,,A_13,001,2024-11-30_10h16.16.809,untitled,2024.1.5,None,2024-11-30 10h16.31.354464 +0530,
triangle.png,stranger,0,Z,,,,,,,,,33,0,132,3,,,,,,,,,388.94339169999876,,,,,,,,,,,,,,,,,,,,,,,,,,,,,,,,,,,,,,,,,,,,,,,,,,,,,,,,,,,,388.9274074999994,388.94339169999876,389.42698449999443,389.42698449999443,389.42698449999443,389.42698449999443,389.4435618999996,389.7268647999954,389.7268647999954,389.7268647999954,,390.2946723999994,z,390.29511329999514,390.3107500999977,391.31129599999986,391.2947944999978,0.8626547999956529,None,,,,,,,,,,,,,,,,,,,,,,,,,,,,,,,,,,,,,,,,,,,,,,,,,,,,,,,,,,,,,,,,,,,,,,,,,,,,,A_13,001,2024-11-30_10h16.16.809,untitled,2024.1.5,None,2024-11-30 10h16.31.354464 +0530,
square.png,stranger,1,M,,,,,,,,,33,1,133,0,,,,,,,,,391.31129599999986,,,,,,,,,,,,,,,,,,,,,,,,,,,,,,,,,,,,,,,,,,,,,,,,,,,,,,,,,,,,391.2951417000004,391.31129599999986,391.7949607999981,391.7949607999981,391.7949607999981,391.7949607999981,391.81140479999885,392.0948462000015,392.0948462000015,392.0948462000015,,392.67921789999673,m,392.6796463999999,392.69511950000015,393.6957356999992,393.679380900001,0.8722648999973899,None,,,,,,,,,,,,,,,,,,,,,,,,,,,,,,,,,,,,,,,,,,,,,,,,,,,,,,,,,,,,,,,,,,,,,,,,,,,,,A_13,001,2024-11-30_10h16.16.809,untitled,2024.1.5,None,2024-11-30 10h16.31.354464 +0530,
triangle.png,you,1,M,,,,,,,,,33,2,134,1,,,,,,,,,393.6957356999992,,,,,,,,,,,,,,,,,,,,,,,,,,,,,,,,,,,,,,,,,,,,,,,,,,,,,,,,,,,,393.6797260999956,393.6957356999992,394.17942619999667,394.17942619999667,394.17942619999667,394.17942619999667,394.19585709999956,394.4794926999966,394.4794926999966,394.4794926999966,,394.7471208999996,m,394.7475424000004,394.7630007999978,395.76339449999796,395.7469892000008,0.5630463999987114,None,,,,,,,,,,,,,,,,,,,,,,,,,,,,,,,,,,,,,,,,,,,,,,,,,,,,,,,,,,,,,,,,,,,,,,,,,,,,,A_13,001,2024-11-30_10h16.16.809,untitled,2024.1.5,None,2024-11-30 10h16.31.354464 +0530,
square.png,you,0,Z,,,,,,,,,33,3,135,2,,,,,,,,,395.76339449999796,,,,,,,,,,,,,,,,,,,,,,,,,,,,,,,,,,,,,,,,,,,,,,,,,,,,,,,,,,,,395.74734629999875,395.76339449999796,396.24715569999535,396.24715569999535,396.24715569999535,396.24715569999535,396.26359930000035,396.547218599997,396.547218599997,396.547218599997,,397.1814962999997,z,397.1819147999995,397.1974399999963,398.1978755999953,398.18162769999617,0.9186438000033377,None,,,,,,,,,,,,,,,,,,,,,,,,,,,,,,,,,,,,,,,,,,,,,,,,,,,,,,,,,,,,,,,,,,,,,,,,,,,,,A_13,001,2024-11-30_10h16.16.809,untitled,2024.1.5,None,2024-11-30 10h16.31.354464 +0530,
triangle.png,you,1,M,,,,,,,,,34,0,136,1,,,,,,,,,398.1978755999953,,,,,,,,,,,,,,,,,,,,,,,,,,,,,,,,,,,,,,,,,,,,,,,,,,,,,,,,,,,,398.18197299999883,398.1978755999953,398.6817316000015,398.6817316000015,398.6817316000015,398.6817316000015,398.6983690999987,398.98170269999537,398.98170269999537,398.98170269999537,,399.7164324999976,m,399.71690639999724,399.73224610000034,400.7325883999947,400.71636909999506,1.0325190000003204,None,,,,,,,,,,,,,,,,,,,,,,,,,,,,,,,,,,,,,,,,,,,,,,,,,,,,,,,,,,,,,,,,,,,,,,,,,,,,,A_13,001,2024-11-30_10h16.16.809,untitled,2024.1.5,None,2024-11-30 10h16.31.354464 +0530,
square.png,stranger,1,M,,,,,,,,,34,1,137,0,,,,,,,,,400.7325883999947,,,,,,,,,,,,,,,,,,,,,,,,,,,,,,,,,,,,,,,,,,,,,,,,,,,,,,,,,,,,400.7167244000011,400.7325883999947,401.21646649999457,401.21646649999457,401.21646649999457,401.21646649999457,401.2330812,401.5163986999978,401.5163986999978,401.5163986999978,,402.050760099999,m,402.05121230000077,402.06653540000116,403.0669710000002,403.05096019999473,0.822732000000542,None,,,,,,,,,,,,,,,,,,,,,,,,,,,,,,,,,,,,,,,,,,,,,,,,,,,,,,,,,,,,,,,,,,,,,,,,,,,,,A_13,001,2024-11-30_10h16.16.809,untitled,2024.1.5,None,2024-11-30 10h16.31.354464 +0530,
triangle.png,stranger,0,Z,,,,,,,,,34,2,138,3,,,,,,,,,403.0669710000002,,,,,,,,,,,,,,,,,,,,,,,,,,,,,,,,,,,,,,,,,,,,,,,,,,,,,,,,,,,,403.0513165000011,403.0669710000002,403.5510446999979,403.5510446999979,403.5510446999979,403.5510446999979,403.56736829999863,403.8506376000005,403.8506376000005,403.8506376000005,,404.3685506999973,z,404.3689730999977,404.38429460000043,405.3850109999985,405.36866369999916,0.8039047999991453,None,,,,,,,,,,,,,,,,,,,,,,,,,,,,,,,,,,,,,,,,,,,,,,,,,,,,,,,,,,,,,,,,,,,,,,,,,,,,,A_13,001,2024-11-30_10h16.16.809,untitled,2024.1.5,None,2024-11-30 10h16.31.354464 +0530,
square.png,you,0,Z,,,,,,,,,34,3,139,2,,,,,,,,,405.3850109999985,,,,,,,,,,,,,,,,,,,,,,,,,,,,,,,,,,,,,,,,,,,,,,,,,,,,,,,,,,,,405.3690080000015,405.3850109999985,405.86846330000117,405.86846330000117,405.86846330000117,405.86846330000117,405.8854924999978,406.1688703999971,406.1688703999971,406.1688703999971,,406.56957310000143,m,406.56999079999514,406.5855838999996,407.58618349999597,407.56974869999976,0.6909954000002472,None,,,,,,,,,,,,,,,,,,,,,,,,,,,,,,,,,,,,,,,,,,,,,,,,,,,,,,,,,,,,,,,,,,,,,,,,,,,,,A_13,001,2024-11-30_10h16.16.809,untitled,2024.1.5,None,2024-11-30 10h16.31.354464 +0530,
square.png,stranger,1,M,,,,,,,,,35,0,140,0,,,,,,,,,407.58618349999597,,,,,,,,,,,,,,,,,,,,,,,,,,,,,,,,,,,,,,,,,,,,,,,,,,,,,,,,,,,,407.57009039999684,407.58618349999597,408.07005209999625,408.07005209999625,408.07005209999625,408.07005209999625,408.0864079999956,408.3699004999944,408.3699004999944,408.3699004999944,,408.9042393999989,z,408.90465309999854,408.9201161999954,409.9205948999952,409.90445299999556,0.8287502999955905,None,,,,,,,,,,,,,,,,,,,,,,,,,,,,,,,,,,,,,,,,,,,,,,,,,,,,,,,,,,,,,,,,,,,,,,,,,,,,,A_13,001,2024-11-30_10h16.16.809,untitled,2024.1.5,None,2024-11-30 10h16.31.354464 +0530,
