stimulus,label,is_match,shouldpress,stimulus_2,label_2,is_match_2,shouldpress_2,p_trials.thisRepN,p_trials.thisTrialN,p_trials.thisN,p_trials.thisIndex,trials.thisRepN,trials.thisTrialN,trials.thisN,trials.thisIndex,p_trials_2.thisRepN,p_trials_2.thisTrialN,p_trials_2.thisN,p_trials_2.thisIndex,trials_2.thisRepN,trials_2.thisTrialN,trials_2.thisN,trials_2.thisIndex,thisRow.t,notes,Intruduction.started,text_3.started,key_resp_2.started,Intruduction.stopped,key_resp_2.keys,key_resp_2.rt,key_resp_2.duration,self_other_instructions.started,text_4.started,key_resp_3.started,self_other_instructions.stopped,key_resp_3.keys,key_resp_3.rt,key_resp_3.duration,self_other_info.started,square_image.started,triangle_image.started,self_label.started,other_label.started,key_resp_4.started,text_5.started,self_other_info.stopped,key_resp_4.keys,key_resp_4.rt,key_resp_4.duration,self_other_starting_2.started,text_6.started,key_resp_5.started,self_other_starting_2.stopped,key_resp_5.keys,key_resp_5.rt,key_resp_5.duration,practice1.started,p_fication.started,p_fixation_3.started,p_text.started,key_resp_p.started,p_image.started,p_fication.stopped,p_fixation_3.stopped,p_text.stopped,p_image.stopped,key_resp_p.stopped,practice1.stopped,key_resp_p.keys,p_feedback.started,text_15.started,text_15.stopped,p_feedback.stopped,key_resp_p.rt,key_resp_p.duration,start2.started,start_2.started,key_resp_11.started,start2.stopped,key_resp_11.keys,key_resp_11.rt,key_resp_11.duration,trial.started,fixation.started,fixation_3.started,text.started,key_resp.started,image.started,fixation.stopped,fixation_3.stopped,text.stopped,image.stopped,trial.stopped,key_resp.keys,key_resp.rt,key_resp.duration,feedback.started,text_2.started,text_2.stopped,feedback.stopped,key_resp.stopped,break_3.started,text_13.started,text_14.started,key_resp_10.started,text_13.stopped,break_3.stopped,key_resp_10.keys,key_resp_10.rt,key_resp_10.duration,self_other_instructions_2.started,text_10.started,key_resp_7.started,self_other_instructions_2.stopped,key_resp_7.keys,key_resp_7.rt,key_resp_7.duration,self_other_intro_2.started,circle_image.started,diamond_image.started,Disgusting_self_lable.started,Desirable_self_lable.started,key_resp_8.started,text_11.started,self_other_intro_2.stopped,key_resp_8.keys,key_resp_8.rt,key_resp_8.duration,self_other_starting_3.started,text_12.started,key_resp_9.started,self_other_starting_3.stopped,key_resp_9.keys,key_resp_9.rt,key_resp_9.duration,practice2.started,p_fixation_2.started,p_fixation_4.started,p_text_8.started,key_resp_6_p.started,p_image_2.started,p_fixation_2.stopped,p_fixation_4.stopped,p_text_8.stopped,p_image_2.stopped,key_resp_6_p.stopped,practice2.stopped,key_resp_6_p.keys,feedback_2_p.started,text_16.started,text_16.stopped,feedback_2_p.stopped,key_resp_6_p.rt,key_resp_6_p.duration,trial_2.started,fixation_2.started,fixation_4.started,text_8.started,key_resp_6.started,image_2.started,fixation_2.stopped,fixation_4.stopped,text_8.stopped,image_2.stopped,trial_2.stopped,key_resp_6.keys,key_resp_6.rt,key_resp_6.duration,feedback_2.started,text_9.started,text_9.stopped,feedback_2.stopped,key_resp_6.stopped,Thank_you.started,text_7.started,Thank_you.stopped,participant,session,date,expName,psychopyVersion,frameRate,expStart,
,,,,,,,,,,,,,,,,,,,,,,,,,,0.002670899993972853,0.0063996999961091205,0.0063996999961091205,7.633248899990576,space,7.614348200004315,None,,,,,,,,,,,,,,,,,,,,,,,,,,,,,,,,,,,,,,,,,,,,,,,,,,,,,,,,,,,,,,,,,,,,,,,,,,,,,,,,,,,,,,,,,,,,,,,,,,,,,,,,,,,,,,,,,,,,,,,,,,,,,,,,,,,,,,,,,,,,,,,,,,A_14,001,2024-11-30_12h34.22.487,untitled,2024.1.5,None,2024-11-30 12h34.38.875069 +0530,
,,,,,,,,,,,,,,,,,,,,,,,,,,,,,,,,,7.633273899991764,7.6474198999931104,7.6474198999931104,27.54177109999,space,19.88908029999584,None,,,,,,,,,,,,,,,,,,,,,,,,,,,,,,,,,,,,,,,,,,,,,,,,,,,,,,,,,,,,,,,,,,,,,,,,,,,,,,,,,,,,,,,,,,,,,,,,,,,,,,,,,,,,,,,,,,,,,,,,,,,,,,,,,,,,,,,,,,,A_14,001,2024-11-30_12h34.22.487,untitled,2024.1.5,None,2024-11-30 12h34.38.875069 +0530,
,,,,,,,,,,,,,,,,,,,,,,,,,,,,,,,,,,,,,,,,27.54179760000261,27.57477680000011,27.57477680000011,27.57477680000011,27.57477680000011,27.57477680000011,27.57477680000011,80.6344425999996,space,53.04542169999331,None,,,,,,,,,,,,,,,,,,,,,,,,,,,,,,,,,,,,,,,,,,,,,,,,,,,,,,,,,,,,,,,,,,,,,,,,,,,,,,,,,,,,,,,,,,,,,,,,,,,,,,,,,,,,,,,,,,,,,,,,,,,,,,,,A_14,001,2024-11-30_12h34.22.487,untitled,2024.1.5,None,2024-11-30 12h34.38.875069 +0530,
,,,,,,,,,,,,,,,,,,,,,,,,,,,,,,,,,,,,,,,,,,,,,,,,,,,80.63446979998844,80.65057129999332,80.65057129999332,82.56882809998933,space,1.9060905000078492,None,,,,,,,,,,,,,,,,,,,,,,,,,,,,,,,,,,,,,,,,,,,,,,,,,,,,,,,,,,,,,,,,,,,,,,,,,,,,,,,,,,,,,,,,,,,,,,,,,,,,,,,,,,,,,,,,,,,,,,,,,A_14,001,2024-11-30_12h34.22.487,untitled,2024.1.5,None,2024-11-30 12h34.38.875069 +0530,
square.png,you,0,Z,,,,,0,0,0,2,,,,,,,,,,,,,82.58525229999213,,,,,,,,,,,,,,,,,,,,,,,,,,,,,,,,,,82.57478219999757,82.58525229999213,83.0684590000019,83.0684590000019,83.0684590000019,83.0684590000019,83.08478540000215,83.36844789999304,83.36844789999304,83.36844789999304,84.16854810000223,84.15231229999335,None,84.15252239999245,84.16854810000223,85.16908120000153,85.15309739999066,,,,,,,,,,,,,,,,,,,,,,,,,,,,,,,,,,,,,,,,,,,,,,,,,,,,,,,,,,,,,,,,,,,,,,,,,,,,,,,,,,,,,,,,,,,,,,,,,,,,,,,,A_14,001,2024-11-30_12h34.22.487,untitled,2024.1.5,None,2024-11-30 12h34.38.875069 +0530,
square.png,stranger,1,M,,,,,0,1,1,0,,,,,,,,,,,,,85.16908120000153,,,,,,,,,,,,,,,,,,,,,,,,,,,,,,,,,,85.1533369999961,85.16908120000153,85.66944209999929,85.66944209999929,85.66944209999929,85.66944209999929,85.66944209999929,85.969649199993,85.969649199993,85.969649199993,,86.43708429999242,m,86.43742019998899,86.45320759998867,87.45361129999219,87.43749430000025,0.7663204000127735,None,,,,,,,,,,,,,,,,,,,,,,,,,,,,,,,,,,,,,,,,,,,,,,,,,,,,,,,,,,,,,,,,,,,,,,,,,,,,,,,,,,,,,,,,,,,,,,,,,,,,,,A_14,001,2024-11-30_12h34.22.487,untitled,2024.1.5,None,2024-11-30 12h34.38.875069 +0530,
triangle.png,stranger,0,Z,,,,,0,2,2,3,,,,,,,,,,,,,87.45361129999219,,,,,,,,,,,,,,,,,,,,,,,,,,,,,,,,,,87.43773639999563,87.45361129999219,87.93765219999477,87.93765219999477,87.93765219999477,87.93765219999477,87.95405210000172,88.23745580000104,88.23745580000104,88.23745580000104,,88.52164229999471,z,88.52190110000083,88.53770780000195,89.53825610000058,89.52186039999651,0.5707074999954784,None,,,,,,,,,,,,,,,,,,,,,,,,,,,,,,,,,,,,,,,,,,,,,,,,,,,,,,,,,,,,,,,,,,,,,,,,,,,,,,,,,,,,,,,,,,,,,,,,,,,,,,A_14,001,2024-11-30_12h34.22.487,untitled,2024.1.5,None,2024-11-30 12h34.38.875069 +0530,
triangle.png,you,1,M,,,,,0,3,3,1,,,,,,,,,,,,,89.53825610000058,,,,,,,,,,,,,,,,,,,,,,,,,,,,,,,,,,89.52209709999443,89.53825610000058,90.02187279998907,90.02187279998907,90.02187279998907,90.02187279998907,90.038555799998,90.3216878999956,90.3216878999956,90.3216878999956,,90.55603449999762,z,90.55629219999537,90.57181509998918,91.57254429999739,91.5561192999885,0.5226113000098849,None,,,,,,,,,,,,,,,,,,,,,,,,,,,,,,,,,,,,,,,,,,,,,,,,,,,,,,,,,,,,,,,,,,,,,,,,,,,,,,,,,,,,,,,,,,,,,,,,,,,,,,A_14,001,2024-11-30_12h34.22.487,untitled,2024.1.5,None,2024-11-30 12h34.38.875069 +0530,
triangle.png,you,1,M,,,,,1,0,4,1,,,,,,,,,,,,,91.57254429999739,,,,,,,,,,,,,,,,,,,,,,,,,,,,,,,,,,91.55636009998852,91.57254429999739,92.05637019999267,92.05637019999267,92.05637019999267,92.05637019999267,92.07270379998954,92.35619989999395,92.35619989999395,92.35619989999395,,92.62378899999021,z,92.62404939999396,92.63966829999117,93.64026929999818,93.62401869999303,0.5510295999993104,None,,,,,,,,,,,,,,,,,,,,,,,,,,,,,,,,,,,,,,,,,,,,,,,,,,,,,,,,,,,,,,,,,,,,,,,,,,,,,,,,,,,,,,,,,,,,,,,,,,,,,,A_14,001,2024-11-30_12h34.22.487,untitled,2024.1.5,None,2024-11-30 12h34.38.875069 +0530,
triangle.png,stranger,0,Z,,,,,1,1,5,3,,,,,,,,,,,,,93.64026929999818,,,,,,,,,,,,,,,,,,,,,,,,,,,,,,,,,,93.62426339999365,93.64026929999818,94.1238955000008,94.1238955000008,94.1238955000008,94.1238955000008,94.1405883999978,94.42386769999575,94.42386769999575,94.42386769999575,,95.12528709998878,m,95.12553429999389,95.14089399999648,96.14155580000079,96.12511729999096,1.0001729000068735,None,,,,,,,,,,,,,,,,,,,,,,,,,,,,,,,,,,,,,,,,,,,,,,,,,,,,,,,,,,,,,,,,,,,,,,,,,,,,,,,,,,,,,,,,,,,,,,,,,,,,,,A_14,001,2024-11-30_12h34.22.487,untitled,2024.1.5,None,2024-11-30 12h34.38.875069 +0530,
square.png,stranger,1,M,,,,,1,2,6,0,,,,,,,,,,,,,96.14155580000079,,,,,,,,,,,,,,,,,,,,,,,,,,,,,,,,,,96.12536089999776,96.14155580000079,96.62519690000045,96.62519690000045,96.62519690000045,96.62519690000045,96.64204419999442,96.92522179998923,96.92522179998923,96.92522179998923,,97.27619639999466,m,97.27645389999088,97.29220630000054,98.29253769999195,98.27648649999173,0.6431525999942096,None,,,,,,,,,,,,,,,,,,,,,,,,,,,,,,,,,,,,,,,,,,,,,,,,,,,,,,,,,,,,,,,,,,,,,,,,,,,,,,,,,,,,,,,,,,,,,,,,,,,,,,A_14,001,2024-11-30_12h34.22.487,untitled,2024.1.5,None,2024-11-30 12h34.38.875069 +0530,
square.png,you,0,Z,,,,,1,3,7,2,,,,,,,,,,,,,98.29253769999195,,,,,,,,,,,,,,,,,,,,,,,,,,,,,,,,,,98.27672349999193,98.29253769999195,98.77639439998893,98.77639439998893,98.77639439998893,98.77639439998893,98.79303220000293,99.0761807999952,99.0761807999952,99.0761807999952,,99.37726110000222,z,99.37751449999632,99.39312899998913,100.39387249998981,100.37727339999401,0.5989939999999478,None,,,,,,,,,,,,,,,,,,,,,,,,,,,,,,,,,,,,,,,,,,,,,,,,,,,,,,,,,,,,,,,,,,,,,,,,,,,,,,,,,,,,,,,,,,,,,,,,,,,,,,A_14,001,2024-11-30_12h34.22.487,untitled,2024.1.5,None,2024-11-30 12h34.38.875069 +0530,
square.png,stranger,1,M,,,,,2,0,8,0,,,,,,,,,,,,,100.39387249998981,,,,,,,,,,,,,,,,,,,,,,,,,,,,,,,,,,100.37750669999514,100.39387249998981,100.87742279999657,100.87742279999657,100.87742279999657,100.87742279999657,100.89405969998916,101.1773899999971,101.1773899999971,101.1773899999971,,101.76179899999988,m,101.76204560000042,101.77775690000271,102.77804730000207,102.76195179999922,0.8754397000011522,None,,,,,,,,,,,,,,,,,,,,,,,,,,,,,,,,,,,,,,,,,,,,,,,,,,,,,,,,,,,,,,,,,,,,,,,,,,,,,,,,,,,,,,,,,,,,,,,,,,,,,,A_14,001,2024-11-30_12h34.22.487,untitled,2024.1.5,None,2024-11-30 12h34.38.875069 +0530,
triangle.png,you,1,M,,,,,2,1,9,1,,,,,,,,,,,,,102.77804730000207,,,,,,,,,,,,,,,,,,,,,,,,,,,,,,,,,,102.76218849999714,102.77804730000207,103.2619823999994,103.2619823999994,103.2619823999994,103.2619823999994,103.27848799999629,103.56179169999086,103.56179169999086,103.56179169999086,,103.61251949999132,z,103.61277279999922,103.62879709999834,104.62924319999001,104.61295789999713,0.3464386999985436,None,,,,,,,,,,,,,,,,,,,,,,,,,,,,,,,,,,,,,,,,,,,,,,,,,,,,,,,,,,,,,,,,,,,,,,,,,,,,,,,,,,,,,,,,,,,,,,,,,,,,,,A_14,001,2024-11-30_12h34.22.487,untitled,2024.1.5,None,2024-11-30 12h34.38.875069 +0530,
triangle.png,stranger,0,Z,,,,,2,2,10,3,,,,,,,,,,,,,104.62924319999001,,,,,,,,,,,,,,,,,,,,,,,,,,,,,,,,,,104.61320229999546,104.62924319999001,105.11297839999315,105.11297839999315,105.11297839999315,105.11297839999315,105.1295844999986,105.4129025000002,105.4129025000002,105.4129025000002,,105.43045889999485,m,105.43071319999581,105.44633809999505,106.44697219999216,106.43055289999756,0.3117960000090534,None,,,,,,,,,,,,,,,,,,,,,,,,,,,,,,,,,,,,,,,,,,,,,,,,,,,,,,,,,,,,,,,,,,,,,,,,,,,,,,,,,,,,,,,,,,,,,,,,,,,,,,A_14,001,2024-11-30_12h34.22.487,untitled,2024.1.5,None,2024-11-30 12h34.38.875069 +0530,
square.png,you,0,Z,,,,,2,3,11,2,,,,,,,,,,,,,106.44697219999216,,,,,,,,,,,,,,,,,,,,,,,,,,,,,,,,,,106.43078959999548,106.44697219999216,106.93054139999731,106.93054139999731,106.93054139999731,106.93054139999731,106.94705760000215,107.23051500000292,107.23051500000292,107.23051500000292,,107.51457790000131,m,107.51483459999145,107.53067490000103,108.53099239998846,108.51488719999907,0.5728216999996221,None,,,,,,,,,,,,,,,,,,,,,,,,,,,,,,,,,,,,,,,,,,,,,,,,,,,,,,,,,,,,,,,,,,,,,,,,,,,,,,,,,,,,,,,,,,,,,,,,,,,,,,A_14,001,2024-11-30_12h34.22.487,untitled,2024.1.5,None,2024-11-30 12h34.38.875069 +0530,
triangle.png,stranger,0,Z,,,,,3,0,12,3,,,,,,,,,,,,,108.53099239998846,,,,,,,,,,,,,,,,,,,,,,,,,,,,,,,,,,108.51512399999774,108.53099239998846,109.01479380000092,109.01479380000092,109.01479380000092,109.01479380000092,109.03162439999869,109.31472939999367,109.31472939999367,109.31472939999367,,109.81593739999516,m,109.81618959999469,109.83172760000161,110.83229989999381,110.8160893000022,0.7936608000018168,None,,,,,,,,,,,,,,,,,,,,,,,,,,,,,,,,,,,,,,,,,,,,,,,,,,,,,,,,,,,,,,,,,,,,,,,,,,,,,,,,,,,,,,,,,,,,,,,,,,,,,,A_14,001,2024-11-30_12h34.22.487,untitled,2024.1.5,None,2024-11-30 12h34.38.875069 +0530,
square.png,you,0,Z,,,,,3,1,13,2,,,,,,,,,,,,,110.83229989999381,,,,,,,,,,,,,,,,,,,,,,,,,,,,,,,,,,110.81632469999022,110.83229989999381,111.31619259998843,111.31619259998843,111.31619259998843,111.31619259998843,111.33273789999657,111.61621860000014,111.61621860000014,111.61621860000014,,112.15040699999372,m,112.15065549999417,112.16633249999722,113.16675769998983,113.15062570000009,0.8327486999914981,None,,,,,,,,,,,,,,,,,,,,,,,,,,,,,,,,,,,,,,,,,,,,,,,,,,,,,,,,,,,,,,,,,,,,,,,,,,,,,,,,,,,,,,,,,,,,,,,,,,,,,,A_14,001,2024-11-30_12h34.22.487,untitled,2024.1.5,None,2024-11-30 12h34.38.875069 +0530,
triangle.png,you,1,M,,,,,3,2,14,1,,,,,,,,,,,,,113.16675769998983,,,,,,,,,,,,,,,,,,,,,,,,,,,,,,,,,,113.15086029999657,113.16675769998983,113.6505213999917,113.6505213999917,113.6505213999917,113.6505213999917,113.66736249999667,113.95061610000266,113.95061610000266,113.95061610000266,,113.93492899999546,z,113.9351913999999,113.95061610000266,114.95121980000113,114.93480079999426,0.28219779999926686,None,,,,,,,,,,,,,,,,,,,,,,,,,,,,,,,,,,,,,,,,,,,,,,,,,,,,,,,,,,,,,,,,,,,,,,,,,,,,,,,,,,,,,,,,,,,,,,,,,,,,,,A_14,001,2024-11-30_12h34.22.487,untitled,2024.1.5,None,2024-11-30 12h34.38.875069 +0530,
square.png,stranger,1,M,,,,,3,3,15,0,,,,,,,,,,,,,114.95121980000113,,,,,,,,,,,,,,,,,,,,,,,,,,,,,,,,,,114.93503389999387,114.95121980000113,115.43495389999589,115.43495389999589,115.43495389999589,115.43495389999589,115.45135009998921,,,,,115.61885230000189,m,115.61910429999989,115.63488319999306,116.63533109999844,116.61919409999973,0.17731899999489542,None,,,,,,,,,,,,,,,,,,,,,,,,,,,,,,,,,,,,,,,,,,,,,,,,,,,,,,,,,,,,,,,,,,,,,,,,,,,,,,,,,,,,,,,,,,,,,,,,,,,,,,A_14,001,2024-11-30_12h34.22.487,untitled,2024.1.5,None,2024-11-30 12h34.38.875069 +0530,
square.png,you,0,Z,,,,,4,0,16,2,,,,,,,,,,,,,116.63533109999844,,,,,,,,,,,,,,,,,,,,,,,,,,,,,,,,,,116.6194281999924,116.63533109999844,117.11878969999088,117.11878969999088,117.11878969999088,117.11878969999088,117.13543979999667,117.41917100000137,117.41917100000137,117.41917100000137,,118.0533291999891,z,118.05358249999699,118.06928239999979,119.06999350000115,119.05372159999388,0.9212723000091501,None,,,,,,,,,,,,,,,,,,,,,,,,,,,,,,,,,,,,,,,,,,,,,,,,,,,,,,,,,,,,,,,,,,,,,,,,,,,,,,,,,,,,,,,,,,,,,,,,,,,,,,A_14,001,2024-11-30_12h34.22.487,untitled,2024.1.5,None,2024-11-30 12h34.38.875069 +0530,
triangle.png,stranger,0,Z,,,,,4,1,17,3,,,,,,,,,,,,,119.06999350000115,,,,,,,,,,,,,,,,,,,,,,,,,,,,,,,,,,119.05395819999103,119.06999350000115,119.55375959999219,119.55375959999219,119.55375959999219,119.55375959999219,119.57024790000287,119.85359649999009,119.85359649999009,119.85359649999009,,120.35464279999724,m,120.35490829999617,120.37041289999615,121.37096929999825,121.35481239999353,0.7943267000082415,None,,,,,,,,,,,,,,,,,,,,,,,,,,,,,,,,,,,,,,,,,,,,,,,,,,,,,,,,,,,,,,,,,,,,,,,,,,,,,,,,,,,,,,,,,,,,,,,,,,,,,,A_14,001,2024-11-30_12h34.22.487,untitled,2024.1.5,None,2024-11-30 12h34.38.875069 +0530,
triangle.png,you,1,M,,,,,4,2,18,1,,,,,,,,,,,,,121.37096929999825,,,,,,,,,,,,,,,,,,,,,,,,,,,,,,,,,,121.3550450999901,121.37096929999825,121.85475069998938,121.85475069998938,121.85475069998938,121.85475069998938,121.87131200000294,122.15484399998968,122.15484399998968,122.15484399998968,,122.20569509999768,z,122.20594469999196,122.22150189999957,123.2221043999889,123.20561520000047,0.34191350000037346,None,,,,,,,,,,,,,,,,,,,,,,,,,,,,,,,,,,,,,,,,,,,,,,,,,,,,,,,,,,,,,,,,,,,,,,,,,,,,,,,,,,,,,,,,,,,,,,,,,,,,,,A_14,001,2024-11-30_12h34.22.487,untitled,2024.1.5,None,2024-11-30 12h34.38.875069 +0530,
square.png,stranger,1,M,,,,,4,3,19,0,,,,,,,,,,,,,123.2221043999889,,,,,,,,,,,,,,,,,,,,,,,,,,,,,,,,,,123.20590279999305,123.2221043999889,123.70566939999117,123.70566939999117,123.70566939999117,123.70566939999117,123.72237499999756,124.00552629999584,124.00552629999584,124.00552629999584,124.80620140000246,124.78973889999907,None,124.78987290000077,124.80620140000246,125.80669749999652,125.79043949999323,,,,,,,,,,,,,,,,,,,,,,,,,,,,,,,,,,,,,,,,,,,,,,,,,,,,,,,,,,,,,,,,,,,,,,,,,,,,,,,,,,,,,,,,,,,,,,,,,,,,,,,,A_14,001,2024-11-30_12h34.22.487,untitled,2024.1.5,None,2024-11-30 12h34.38.875069 +0530,
,,,,,,,,,,,,,,,,,,,,,,,,,,,,,,,,,,,,,,,,,,,,,,,,,,,,,,,,,,,,,,,,,,,,,,,,,,,,,125.79048869998951,125.80669749999652,125.80669749999652,126.87475429999176,space,1.0535609999933513,None,,,,,,,,,,,,,,,,,,,,,,,,,,,,,,,,,,,,,,,,,,,,,,,,,,,,,,,,,,,,,,,,,,,,,,,,,,,,,,,,,,,,,,,,,,,,,,,A_14,001,2024-11-30_12h34.22.487,untitled,2024.1.5,None,2024-11-30 12h34.38.875069 +0530,
triangle.png,stranger,0,Z,,,,,,,,,0,0,0,3,,,,,,,,,126.89055769999686,,,,,,,,,,,,,,,,,,,,,,,,,,,,,,,,,,,,,,,,,,,,,,,,,,,,,,,,,,,,126.880184499998,126.89055769999686,127.37417489998916,127.37417489998916,127.37417489998916,127.37417489998916,127.39073849999113,127.67432730000291,127.67432730000291,127.67432730000291,128.32520959999238,m,0.9463498999975855,None,128.32592139999906,128.3413118000026,129.34189529999276,129.32540599998902,,,,,,,,,,,,,,,,,,,,,,,,,,,,,,,,,,,,,,,,,,,,,,,,,,,,,,,,,,,,,,,,,,,,,,,,,,,,,A_14,001,2024-11-30_12h34.22.487,untitled,2024.1.5,None,2024-11-30 12h34.38.875069 +0530,
square.png,stranger,1,M,,,,,,,,,0,1,1,0,,,,,,,,,129.34189529999276,,,,,,,,,,,,,,,,,,,,,,,,,,,,,,,,,,,,,,,,,,,,,,,,,,,,,,,,,,,,129.32576729998982,129.34189529999276,129.82567120000022,129.82567120000022,129.82567120000022,129.82567120000022,129.84210929999244,130.12565529999847,130.12565529999847,130.12565529999847,130.54312079999363,m,0.7106225999887101,None,130.54355589998886,130.55917829999817,131.55962909999653,131.54322669999965,,,,,,,,,,,,,,,,,,,,,,,,,,,,,,,,,,,,,,,,,,,,,,,,,,,,,,,,,,,,,,,,,,,,,,,,,,,,,A_14,001,2024-11-30_12h34.22.487,untitled,2024.1.5,None,2024-11-30 12h34.38.875069 +0530,
square.png,you,0,Z,,,,,,,,,0,2,2,2,,,,,,,,,131.55962909999653,,,,,,,,,,,,,,,,,,,,,,,,,,,,,,,,,,,,,,,,,,,,,,,,,,,,,,,,,,,,131.5435817999969,131.55962909999653,132.04316299999482,132.04316299999482,132.04316299999482,132.04316299999482,132.0597517999995,132.34331630000088,132.34331630000088,132.34331630000088,132.79451859999972,z,0.7494747000018833,None,132.7949465999991,132.81029480000143,133.81077650000225,133.794347499992,,,,,,,,,,,,,,,,,,,,,,,,,,,,,,,,,,,,,,,,,,,,,,,,,,,,,,,,,,,,,,,,,,,,,,,,,,,,,A_14,001,2024-11-30_12h34.22.487,untitled,2024.1.5,None,2024-11-30 12h34.38.875069 +0530,
triangle.png,you,1,M,,,,,,,,,0,3,3,1,,,,,,,,,133.81077650000225,,,,,,,,,,,,,,,,,,,,,,,,,,,,,,,,,,,,,,,,,,,,,,,,,,,,,,,,,,,,133.7947520000016,133.81077650000225,134.29458249999152,134.29458249999152,134.29458249999152,134.29458249999152,134.31117259999155,134.59449529999983,134.59449529999983,134.59449529999983,135.32870050000201,z,1.0254118000011658,None,135.3291285000014,135.34495269999024,136.34549019999395,136.32895159999316,,,,,,,,,,,,,,,,,,,,,,,,,,,,,,,,,,,,,,,,,,,,,,,,,,,,,,,,,,,,,,,,,,,,,,,,,,,,,A_14,001,2024-11-30_12h34.22.487,untitled,2024.1.5,None,2024-11-30 12h34.38.875069 +0530,
square.png,stranger,1,M,,,,,,,,,1,0,4,0,,,,,,,,,136.34549019999395,,,,,,,,,,,,,,,,,,,,,,,,,,,,,,,,,,,,,,,,,,,,,,,,,,,,,,,,,,,,136.32930820000183,136.34549019999395,136.82918499999505,136.82918499999505,136.82918499999505,136.82918499999505,136.84552619999158,137.12896219998947,137.12896219998947,137.12896219998947,137.5966952000017,m,0.7511566000030143,None,137.59712559999025,137.61260019999463,138.6131439000019,138.59708959999261,,,,,,,,,,,,,,,,,,,,,,,,,,,,,,,,,,,,,,,,,,,,,,,,,,,,,,,,,,,,,,,,,,,,,,,,,,,,,A_14,001,2024-11-30_12h34.22.487,untitled,2024.1.5,None,2024-11-30 12h34.38.875069 +0530,
triangle.png,stranger,0,Z,,,,,,,,,1,1,5,3,,,,,,,,,138.6131439000019,,,,,,,,,,,,,,,,,,,,,,,,,,,,,,,,,,,,,,,,,,,,,,,,,,,,,,,,,,,,138.59744389999832,138.6131439000019,139.09705260000192,139.09705260000192,139.09705260000192,139.09705260000192,139.11356889999297,139.39695609999762,139.39695609999762,139.39695609999762,139.96451399999205,z,0.8596484000008786,None,139.96493929999997,139.98060379999515,140.98094989999663,140.96488429998863,,,,,,,,,,,,,,,,,,,,,,,,,,,,,,,,,,,,,,,,,,,,,,,,,,,,,,,,,,,,,,,,,,,,,,,,,,,,,A_14,001,2024-11-30_12h34.22.487,untitled,2024.1.5,None,2024-11-30 12h34.38.875069 +0530,
square.png,you,0,Z,,,,,,,,,1,2,6,2,,,,,,,,,140.98094989999663,,,,,,,,,,,,,,,,,,,,,,,,,,,,,,,,,,,,,,,,,,,,,,,,,,,,,,,,,,,,140.9652417999896,140.98094989999663,141.4649161999987,141.4649161999987,141.4649161999987,141.4649161999987,141.4812735000014,141.76486440000008,141.76486440000008,141.76486440000008,142.2156449999893,m,0.7396796999964863,None,142.21608169999672,142.231758599999,143.23238259999198,143.21607999999833,,,,,,,,,,,,,,,,,,,,,,,,,,,,,,,,,,,,,,,,,,,,,,,,,,,,,,,,,,,,,,,,,,,,,,,,,,,,,A_14,001,2024-11-30_12h34.22.487,untitled,2024.1.5,None,2024-11-30 12h34.38.875069 +0530,
triangle.png,you,1,M,,,,,,,,,1,3,7,1,,,,,,,,,143.23238259999198,,,,,,,,,,,,,,,,,,,,,,,,,,,,,,,,,,,,,,,,,,,,,,,,,,,,,,,,,,,,143.21643129999575,143.23238259999198,143.71576939999068,143.71576939999068,143.71576939999068,143.71576939999068,143.73261510000157,144.0160337999987,144.0160337999987,144.0160337999987,144.33333519998996,m,0.6084743999963393,None,144.3337676999945,144.34929129999364,145.35007980000228,145.33359840000048,,,,,,,,,,,,,,,,,,,,,,,,,,,,,,,,,,,,,,,,,,,,,,,,,,,,,,,,,,,,,,,,,,,,,,,,,,,,,A_14,001,2024-11-30_12h34.22.487,untitled,2024.1.5,None,2024-11-30 12h34.38.875069 +0530,
square.png,you,0,Z,,,,,,,,,2,0,8,2,,,,,,,,,145.35007980000228,,,,,,,,,,,,,,,,,,,,,,,,,,,,,,,,,,,,,,,,,,,,,,,,,,,,,,,,,,,,145.33395149999706,145.35007980000228,145.83356669999193,145.83356669999193,145.83356669999193,145.83356669999193,145.8503619999974,146.13383269999758,146.13383269999758,146.13383269999758,146.50132389999635,z,0.6656249000079697,None,146.50176379999903,146.51716750000196,147.51771369999915,147.50161339998886,,,,,,,,,,,,,,,,,,,,,,,,,,,,,,,,,,,,,,,,,,,,,,,,,,,,,,,,,,,,,,,,,,,,,,,,,,,,,A_14,001,2024-11-30_12h34.22.487,untitled,2024.1.5,None,2024-11-30 12h34.38.875069 +0530,
triangle.png,you,1,M,,,,,,,,,2,1,9,1,,,,,,,,,147.51771369999915,,,,,,,,,,,,,,,,,,,,,,,,,,,,,,,,,,,,,,,,,,,,,,,,,,,,,,,,,,,,147.50196439999854,147.51771369999915,148.0014489999885,148.0014489999885,148.0014489999885,148.0014489999885,148.01800209999783,148.30150180000055,148.30150180000055,148.30150180000055,148.6859051999927,m,0.6791349000122864,None,148.68632719999005,148.70175709998875,149.702234700002,149.6859645999939,,,,,,,,,,,,,,,,,,,,,,,,,,,,,,,,,,,,,,,,,,,,,,,,,,,,,,,,,,,,,,,,,,,,,,,,,,,,,A_14,001,2024-11-30_12h34.22.487,untitled,2024.1.5,None,2024-11-30 12h34.38.875069 +0530,
triangle.png,stranger,0,Z,,,,,,,,,2,2,10,3,,,,,,,,,149.702234700002,,,,,,,,,,,,,,,,,,,,,,,,,,,,,,,,,,,,,,,,,,,,,,,,,,,,,,,,,,,,149.6863241999963,149.702234700002,150.18593749999127,150.18593749999127,150.18593749999127,150.18593749999127,150.2026493000012,150.48589919999358,150.48589919999358,150.48589919999358,151.2703094000026,None,,,151.27049799999804,151.28635609999765,152.2869262999884,152.27044169999135,151.28635609999765,,,,,,,,,,,,,,,,,,,,,,,,,,,,,,,,,,,,,,,,,,,,,,,,,,,,,,,,,,,,,,,,,,,,,,,,,,,,A_14,001,2024-11-30_12h34.22.487,untitled,2024.1.5,None,2024-11-30 12h34.38.875069 +0530,
square.png,stranger,1,M,,,,,,,,,2,3,11,0,,,,,,,,,152.2869262999884,,,,,,,,,,,,,,,,,,,,,,,,,,,,,,,,,,,,,,,,,,,,,,,,,,,,,,,,,,,,152.2708006999892,152.2869262999884,152.78732859999582,152.78732859999582,152.78732859999582,152.78732859999582,152.78732859999582,153.08734309999272,153.08734309999272,153.08734309999272,153.3380457000021,m,0.5492823000095086,None,153.33849460000056,153.35422399999516,154.35446679999586,154.33845769999607,,,,,,,,,,,,,,,,,,,,,,,,,,,,,,,,,,,,,,,,,,,,,,,,,,,,,,,,,,,,,,,,,,,,,,,,,,,,,A_14,001,2024-11-30_12h34.22.487,untitled,2024.1.5,None,2024-11-30 12h34.38.875069 +0530,
triangle.png,you,1,M,,,,,,,,,3,0,12,1,,,,,,,,,154.35446679999586,,,,,,,,,,,,,,,,,,,,,,,,,,,,,,,,,,,,,,,,,,,,,,,,,,,,,,,,,,,,154.33881329999713,154.35446679999586,154.83832379999512,154.83832379999512,154.83832379999512,154.83832379999512,154.8550544999889,155.13830130000133,155.13830130000133,155.13830130000133,155.6060490999953,m,0.7543369000050006,None,155.60647839999,155.62201249999634,156.62238210000214,156.60623879999912,,,,,,,,,,,,,,,,,,,,,,,,,,,,,,,,,,,,,,,,,,,,,,,,,,,,,,,,,,,,,,,,,,,,,,,,,,,,,A_14,001,2024-11-30_12h34.22.487,untitled,2024.1.5,None,2024-11-30 12h34.38.875069 +0530,
square.png,stranger,1,M,,,,,,,,,3,1,13,0,,,,,,,,,156.62238210000214,,,,,,,,,,,,,,,,,,,,,,,,,,,,,,,,,,,,,,,,,,,,,,,,,,,,,,,,,,,,156.60658569999214,156.62238210000214,157.1062843999971,157.1062843999971,157.1062843999971,157.1062843999971,157.12300219999452,157.4061415999895,157.4061415999895,157.4061415999895,157.77367650000087,m,0.6577180000022054,None,157.77410389999568,157.79014820000157,158.79005779999716,158.77382489999582,,,,,,,,,,,,,,,,,,,,,,,,,,,,,,,,,,,,,,,,,,,,,,,,,,,,,,,,,,,,,,,,,,,,,,,,,,,,,A_14,001,2024-11-30_12h34.22.487,untitled,2024.1.5,None,2024-11-30 12h34.38.875069 +0530,
square.png,you,0,Z,,,,,,,,,3,2,14,2,,,,,,,,,158.79005779999716,,,,,,,,,,,,,,,,,,,,,,,,,,,,,,,,,,,,,,,,,,,,,,,,,,,,,,,,,,,,158.77417879999848,158.79005779999716,159.27390889999515,159.27390889999515,159.27390889999515,159.27390889999515,159.29053539999586,159.57369689999905,159.57369689999905,159.57369689999905,159.87467429999379,z,0.5931858999974793,None,159.87510759998986,159.89085529999284,160.89132359999348,160.87497330000042,,,,,,,,,,,,,,,,,,,,,,,,,,,,,,,,,,,,,,,,,,,,,,,,,,,,,,,,,,,,,,,,,,,,,,,,,,,,,A_14,001,2024-11-30_12h34.22.487,untitled,2024.1.5,None,2024-11-30 12h34.38.875069 +0530,
triangle.png,stranger,0,Z,,,,,,,,,3,3,15,3,,,,,,,,,160.89132359999348,,,,,,,,,,,,,,,,,,,,,,,,,,,,,,,,,,,,,,,,,,,,,,,,,,,,,,,,,,,,160.87533070000063,160.89132359999348,161.37505479999527,161.37505479999527,161.37505479999527,161.37505479999527,161.39166169999226,161.6751712999976,161.6751712999976,161.6751712999976,162.09246479999274,m,0.7009992999956012,None,162.09288889999152,162.1086992999917,163.1089079999947,163.09274759999244,,,,,,,,,,,,,,,,,,,,,,,,,,,,,,,,,,,,,,,,,,,,,,,,,,,,,,,,,,,,,,,,,,,,,,,,,,,,,A_14,001,2024-11-30_12h34.22.487,untitled,2024.1.5,None,2024-11-30 12h34.38.875069 +0530,
triangle.png,you,1,M,,,,,,,,,4,0,16,1,,,,,,,,,163.1089079999947,,,,,,,,,,,,,,,,,,,,,,,,,,,,,,,,,,,,,,,,,,,,,,,,,,,,,,,,,,,,163.09311469999375,163.1089079999947,163.5928217999899,163.5928217999899,163.5928217999899,163.5928217999899,163.60936809999112,163.89280809999036,163.89280809999036,163.89280809999036,164.27702449999924,m,0.6674293000105536,None,164.27747999998974,164.2930914999888,165.29355689999647,165.27736809999624,,,,,,,,,,,,,,,,,,,,,,,,,,,,,,,,,,,,,,,,,,,,,,,,,,,,,,,,,,,,,,,,,,,,,,,,,,,,,A_14,001,2024-11-30_12h34.22.487,untitled,2024.1.5,None,2024-11-30 12h34.38.875069 +0530,
square.png,stranger,1,M,,,,,,,,,4,1,17,0,,,,,,,,,165.29355689999647,,,,,,,,,,,,,,,,,,,,,,,,,,,,,,,,,,,,,,,,,,,,,,,,,,,,,,,,,,,,165.27772929999628,165.29355689999647,165.77714199999173,165.77714199999173,165.77714199999173,165.77714199999173,165.79387999999744,166.07739869999932,166.07739869999932,166.07739869999932,166.34483259999251,m,0.5557190999970771,None,166.3452624999918,166.36061429999245,167.36110529999132,167.34502419999626,,,,,,,,,,,,,,,,,,,,,,,,,,,,,,,,,,,,,,,,,,,,,,,,,,,,,,,,,,,,,,,,,,,,,,,,,,,,,A_14,001,2024-11-30_12h34.22.487,untitled,2024.1.5,None,2024-11-30 12h34.38.875069 +0530,
square.png,you,0,Z,,,,,,,,,4,2,18,2,,,,,,,,,167.36110529999132,,,,,,,,,,,,,,,,,,,,,,,,,,,,,,,,,,,,,,,,,,,,,,,,,,,,,,,,,,,,167.34538059998886,167.36110529999132,167.844752399993,167.844752399993,167.844752399993,167.844752399993,167.86164269999426,168.14500959998986,168.14500959998986,168.14500959998986,168.4124746000016,z,0.5633202000026358,None,168.41290630000003,168.42828769999323,169.42879359998915,169.41290769999614,,,,,,,,,,,,,,,,,,,,,,,,,,,,,,,,,,,,,,,,,,,,,,,,,,,,,,,,,,,,,,,,,,,,,,,,,,,,,A_14,001,2024-11-30_12h34.22.487,untitled,2024.1.5,None,2024-11-30 12h34.38.875069 +0530,
triangle.png,stranger,0,Z,,,,,,,,,4,3,19,3,,,,,,,,,169.42879359998915,,,,,,,,,,,,,,,,,,,,,,,,,,,,,,,,,,,,,,,,,,,,,,,,,,,,,,,,,,,,169.41325430000143,169.42879359998915,169.912783199994,169.912783199994,169.912783199994,169.912783199994,169.92952859999787,170.21268840000266,170.21268840000266,170.21268840000266,170.6635099999985,z,0.747707900009118,None,170.66394220000075,170.67962270000135,171.68008150000242,171.66339039999002,,,,,,,,,,,,,,,,,,,,,,,,,,,,,,,,,,,,,,,,,,,,,,,,,,,,,,,,,,,,,,,,,,,,,,,,,,,,,A_14,001,2024-11-30_12h34.22.487,untitled,2024.1.5,None,2024-11-30 12h34.38.875069 +0530,
square.png,you,0,Z,,,,,,,,,5,0,20,2,,,,,,,,,171.68008150000242,,,,,,,,,,,,,,,,,,,,,,,,,,,,,,,,,,,,,,,,,,,,,,,,,,,,,,,,,,,,171.66372169999522,171.68008150000242,172.16388199999346,172.16388199999346,172.16388199999346,172.16388199999346,172.18047229999502,172.46383349999087,172.46383349999087,172.46383349999087,173.2150363999972,z,1.0353952000004938,None,173.21550510000088,173.23100400000112,174.2314852999989,174.21508509998966,,,,,,,,,,,,,,,,,,,,,,,,,,,,,,,,,,,,,,,,,,,,,,,,,,,,,,,,,,,,,,,,,,,,,,,,,,,,,A_14,001,2024-11-30_12h34.22.487,untitled,2024.1.5,None,2024-11-30 12h34.38.875069 +0530,
triangle.png,you,1,M,,,,,,,,,5,1,21,1,,,,,,,,,174.2314852999989,,,,,,,,,,,,,,,,,,,,,,,,,,,,,,,,,,,,,,,,,,,,,,,,,,,,,,,,,,,,174.2154417999991,174.2314852999989,174.71514509999542,174.71514509999542,174.71514509999542,174.71514509999542,174.7317003999924,175.01515520000248,175.01515520000248,175.01515520000248,175.49946409999393,m,0.7736192000011215,None,175.4998990000022,175.5152878999943,176.5157496999891,176.49976359998982,,,,,,,,,,,,,,,,,,,,,,,,,,,,,,,,,,,,,,,,,,,,,,,,,,,,,,,,,,,,,,,,,,,,,,,,,,,,,A_14,001,2024-11-30_12h34.22.487,untitled,2024.1.5,None,2024-11-30 12h34.38.875069 +0530,
triangle.png,stranger,0,Z,,,,,,,,,5,2,22,3,,,,,,,,,176.5157496999891,,,,,,,,,,,,,,,,,,,,,,,,,,,,,,,,,,,,,,,,,,,,,,,,,,,,,,,,,,,,176.50013039998885,176.5157496999891,176.99964639999962,176.99964639999962,176.99964639999962,176.99964639999962,177.01615660000243,177.299591899995,177.299591899995,177.299591899995,177.93422109998937,z,0.9252707999985432,None,177.93464900000254,177.9500243999937,178.95045979999122,178.93427479999082,,,,,,,,,,,,,,,,,,,,,,,,,,,,,,,,,,,,,,,,,,,,,,,,,,,,,,,,,,,,,,,,,,,,,,,,,,,,,A_14,001,2024-11-30_12h34.22.487,untitled,2024.1.5,None,2024-11-30 12h34.38.875069 +0530,
square.png,stranger,1,M,,,,,,,,,5,3,23,0,,,,,,,,,178.95045979999122,,,,,,,,,,,,,,,,,,,,,,,,,,,,,,,,,,,,,,,,,,,,,,,,,,,,,,,,,,,,178.9346332999994,178.95045979999122,179.43407599999045,179.43407599999045,179.43407599999045,179.43407599999045,179.45079609999084,179.73422089999076,179.73422089999076,179.73422089999076,180.06841919998988,m,0.6304412000026787,None,180.0688444999978,180.08440890000202,181.0850694999972,181.06864739999583,,,,,,,,,,,,,,,,,,,,,,,,,,,,,,,,,,,,,,,,,,,,,,,,,,,,,,,,,,,,,,,,,,,,,,,,,,,,,A_14,001,2024-11-30_12h34.22.487,untitled,2024.1.5,None,2024-11-30 12h34.38.875069 +0530,
square.png,stranger,1,M,,,,,,,,,6,0,24,0,,,,,,,,,181.0850694999972,,,,,,,,,,,,,,,,,,,,,,,,,,,,,,,,,,,,,,,,,,,,,,,,,,,,,,,,,,,,181.06899580000027,181.0850694999972,181.56865560000006,181.56865560000006,181.56865560000006,181.56865560000006,181.5854643999919,181.868693299999,181.868693299999,181.868693299999,182.23618409999472,m,0.6599617999891052,None,182.23661949999223,182.25203019999026,183.25281949999044,183.23645129999204,,,,,,,,,,,,,,,,,,,,,,,,,,,,,,,,,,,,,,,,,,,,,,,,,,,,,,,,,,,,,,,,,,,,,,,,,,,,,A_14,001,2024-11-30_12h34.22.487,untitled,2024.1.5,None,2024-11-30 12h34.38.875069 +0530,
triangle.png,you,1,M,,,,,,,,,6,1,25,1,,,,,,,,,183.25281949999044,,,,,,,,,,,,,,,,,,,,,,,,,,,,,,,,,,,,,,,,,,,,,,,,,,,,,,,,,,,,183.23681399998895,183.25281949999044,183.73627539999143,183.73627539999143,183.73627539999143,183.73627539999143,183.75282409999636,184.03620209998917,184.03620209998917,184.03620209998917,184.68737600000168,m,0.9398356000019703,None,184.68781180000224,184.70335309999064,185.70379169999796,185.68784489999234,,,,,,,,,,,,,,,,,,,,,,,,,,,,,,,,,,,,,,,,,,,,,,,,,,,,,,,,,,,,,,,,,,,,,,,,,,,,,A_14,001,2024-11-30_12h34.22.487,untitled,2024.1.5,None,2024-11-30 12h34.38.875069 +0530,
square.png,you,0,Z,,,,,,,,,6,2,26,2,,,,,,,,,185.70379169999796,,,,,,,,,,,,,,,,,,,,,,,,,,,,,,,,,,,,,,,,,,,,,,,,,,,,,,,,,,,,185.6882065999962,185.70379169999796,186.18757229999756,186.18757229999756,186.18757229999756,186.18757229999756,186.20410839999386,186.48773110000184,186.48773110000184,186.48773110000184,186.9386827999988,z,0.7450503000000026,None,186.93910599999072,186.95460949999688,187.95507889999135,187.9389511999907,,,,,,,,,,,,,,,,,,,,,,,,,,,,,,,,,,,,,,,,,,,,,,,,,,,,,,,,,,,,,,,,,,,,,,,,,,,,,A_14,001,2024-11-30_12h34.22.487,untitled,2024.1.5,None,2024-11-30 12h34.38.875069 +0530,
triangle.png,stranger,0,Z,,,,,,,,,6,3,27,3,,,,,,,,,187.95507889999135,,,,,,,,,,,,,,,,,,,,,,,,,,,,,,,,,,,,,,,,,,,,,,,,,,,,,,,,,,,,187.93930649998947,187.95507889999135,188.43868269999803,188.43868269999803,188.43868269999803,188.43868269999803,188.4554097999935,188.73884669999825,188.73884669999825,188.73884669999825,189.38977290000184,m,0.9415065999928629,None,189.390209899997,189.40597799999523,190.40643309999723,190.3901302000013,,,,,,,,,,,,,,,,,,,,,,,,,,,,,,,,,,,,,,,,,,,,,,,,,,,,,,,,,,,,,,,,,,,,,,,,,,,,,A_14,001,2024-11-30_12h34.22.487,untitled,2024.1.5,None,2024-11-30 12h34.38.875069 +0530,
triangle.png,you,1,M,,,,,,,,,7,0,28,1,,,,,,,,,190.40643309999723,,,,,,,,,,,,,,,,,,,,,,,,,,,,,,,,,,,,,,,,,,,,,,,,,,,,,,,,,,,,190.39049639999575,190.40643309999723,190.89009469999291,190.89009469999291,190.89009469999291,190.89009469999291,190.9067262999888,191.18990399999893,191.18990399999893,191.18990399999893,191.50774219998857,m,0.6090863999997964,None,191.50816659998964,191.5235268999968,192.5241215999995,192.50769459998992,,,,,,,,,,,,,,,,,,,,,,,,,,,,,,,,,,,,,,,,,,,,,,,,,,,,,,,,,,,,,,,,,,,,,,,,,,,,,A_14,001,2024-11-30_12h34.22.487,untitled,2024.1.5,None,2024-11-30 12h34.38.875069 +0530,
square.png,stranger,1,M,,,,,,,,,7,1,29,0,,,,,,,,,192.5241215999995,,,,,,,,,,,,,,,,,,,,,,,,,,,,,,,,,,,,,,,,,,,,,,,,,,,,,,,,,,,,192.50810379999166,192.5241215999995,193.0078274999978,193.0078274999978,193.0078274999978,193.0078274999978,193.02452289999928,193.30786760000046,193.30786760000046,193.30786760000046,193.6087361999962,m,0.5879086999921128,None,193.60917689999042,193.62469159999455,194.62534759999835,194.60888230000273,,,,,,,,,,,,,,,,,,,,,,,,,,,,,,,,,,,,,,,,,,,,,,,,,,,,,,,,,,,,,,,,,,,,,,,,,,,,,A_14,001,2024-11-30_12h34.22.487,untitled,2024.1.5,None,2024-11-30 12h34.38.875069 +0530,
square.png,you,0,Z,,,,,,,,,7,2,30,2,,,,,,,,,194.62534759999835,,,,,,,,,,,,,,,,,,,,,,,,,,,,,,,,,,,,,,,,,,,,,,,,,,,,,,,,,,,,194.60923899999761,194.62534759999835,195.10886519998894,195.10886519998894,195.10886519998894,195.10886519998894,195.12570089999645,195.40889510000125,195.40889510000125,195.40889510000125,195.80994669999927,z,0.6870688000053633,None,195.81037710000237,195.82580919998873,196.82634549999784,196.80986249999842,,,,,,,,,,,,,,,,,,,,,,,,,,,,,,,,,,,,,,,,,,,,,,,,,,,,,,,,,,,,,,,,,,,,,,,,,,,,,A_14,001,2024-11-30_12h34.22.487,untitled,2024.1.5,None,2024-11-30 12h34.38.875069 +0530,
triangle.png,stranger,0,Z,,,,,,,,,7,3,31,3,,,,,,,,,196.82634549999784,,,,,,,,,,,,,,,,,,,,,,,,,,,,,,,,,,,,,,,,,,,,,,,,,,,,,,,,,,,,196.81022569999914,196.82634549999784,197.31006160000106,197.31006160000106,197.31006160000106,197.31006160000106,197.32649369999126,197.6100912999973,197.6100912999973,197.6100912999973,198.1110645000008,m,0.7945599999948172,None,198.11149879998993,198.126740599997,199.12743539999065,199.11110399999598,,,,,,,,,,,,,,,,,,,,,,,,,,,,,,,,,,,,,,,,,,,,,,,,,,,,,,,,,,,,,,,,,,,,,,,,,,,,,A_14,001,2024-11-30_12h34.22.487,untitled,2024.1.5,None,2024-11-30 12h34.38.875069 +0530,
triangle.png,stranger,0,Z,,,,,,,,,8,0,32,3,,,,,,,,,199.12743539999065,,,,,,,,,,,,,,,,,,,,,,,,,,,,,,,,,,,,,,,,,,,,,,,,,,,,,,,,,,,,199.1114627999923,199.12743539999065,199.61121649999404,199.61121649999404,199.61121649999404,199.61121649999404,199.62790529998892,199.91110830000252,199.91110830000252,199.91110830000252,200.26213469999493,z,0.6452281999954721,None,200.26256190000277,200.2778924000013,201.27852919998986,201.2622740999941,,,,,,,,,,,,,,,,,,,,,,,,,,,,,,,,,,,,,,,,,,,,,,,,,,,,,,,,,,,,,,,,,,,,,,,,,,,,,A_14,001,2024-11-30_12h34.22.487,untitled,2024.1.5,None,2024-11-30 12h34.38.875069 +0530,
square.png,stranger,1,M,,,,,,,,,8,1,33,0,,,,,,,,,201.27852919998986,,,,,,,,,,,,,,,,,,,,,,,,,,,,,,,,,,,,,,,,,,,,,,,,,,,,,,,,,,,,201.26262850000057,201.27852919998986,201.76232139999047,201.76232139999047,201.76232139999047,201.76232139999047,201.7788670000009,202.06223299998965,202.06223299998965,202.06223299998965,202.34637829998974,m,0.57384070000262,None,202.34679939999478,202.3625522999937,203.36307639999723,203.34683699999005,,,,,,,,,,,,,,,,,,,,,,,,,,,,,,,,,,,,,,,,,,,,,,,,,,,,,,,,,,,,,,,,,,,,,,,,,,,,,A_14,001,2024-11-30_12h34.22.487,untitled,2024.1.5,None,2024-11-30 12h34.38.875069 +0530,
square.png,you,0,Z,,,,,,,,,8,2,34,2,,,,,,,,,203.36307639999723,,,,,,,,,,,,,,,,,,,,,,,,,,,,,,,,,,,,,,,,,,,,,,,,,,,,,,,,,,,,203.3471903000027,203.36307639999723,203.84662469998875,203.84662469998875,203.84662469998875,203.84662469998875,203.86318529999699,204.146533799998,204.146533799998,204.146533799998,204.8644387999957,z,1.0096170999895548,None,204.86490039998898,204.88052839999727,205.88094000000274,205.8645009000029,,,,,,,,,,,,,,,,,,,,,,,,,,,,,,,,,,,,,,,,,,,,,,,,,,,,,,,,,,,,,,,,,,,,,,,,,,,,,A_14,001,2024-11-30_12h34.22.487,untitled,2024.1.5,None,2024-11-30 12h34.38.875069 +0530,
triangle.png,you,1,M,,,,,,,,,8,3,35,1,,,,,,,,,205.88094000000274,,,,,,,,,,,,,,,,,,,,,,,,,,,,,,,,,,,,,,,,,,,,,,,,,,,,,,,,,,,,205.8648525999888,205.88094000000274,206.36473780000233,206.36473780000233,206.36473780000233,206.36473780000233,206.38131109999085,206.66481499999645,206.66481499999645,206.66481499999645,207.44894699999713,None,,,207.44913850000012,207.4651589999994,208.46558509999886,208.449251500002,207.4651589999994,,,,,,,,,,,,,,,,,,,,,,,,,,,,,,,,,,,,,,,,,,,,,,,,,,,,,,,,,,,,,,,,,,,,,,,,,,,,A_14,001,2024-11-30_12h34.22.487,untitled,2024.1.5,None,2024-11-30 12h34.38.875069 +0530,
square.png,stranger,1,M,,,,,,,,,9,0,36,0,,,,,,,,,208.46558509999886,,,,,,,,,,,,,,,,,,,,,,,,,,,,,,,,,,,,,,,,,,,,,,,,,,,,,,,,,,,,208.44961599999806,208.46558509999886,208.96589269999822,208.96589269999822,208.96589269999822,208.96589269999822,208.96589269999822,209.26600859999598,209.26600859999598,209.26600859999598,209.60011210000084,m,0.6226568999991287,None,209.60054899999523,209.6163080999977,210.61657209999976,210.60047819999454,,,,,,,,,,,,,,,,,,,,,,,,,,,,,,,,,,,,,,,,,,,,,,,,,,,,,,,,,,,,,,,,,,,,,,,,,,,,,A_14,001,2024-11-30_12h34.22.487,untitled,2024.1.5,None,2024-11-30 12h34.38.875069 +0530,
square.png,you,0,Z,,,,,,,,,9,1,37,2,,,,,,,,,210.61657209999976,,,,,,,,,,,,,,,,,,,,,,,,,,,,,,,,,,,,,,,,,,,,,,,,,,,,,,,,,,,,210.6008337999956,210.61657209999976,211.10053359999438,211.10053359999438,211.10053359999438,211.10053359999438,211.11710099999618,211.4004297999927,211.4004297999927,211.4004297999927,211.81791509999312,z,0.7037980000022799,None,211.81834539999545,211.83415070000046,212.83464289999392,212.81827869999688,,,,,,,,,,,,,,,,,,,,,,,,,,,,,,,,,,,,,,,,,,,,,,,,,,,,,,,,,,,,,,,,,,,,,,,,,,,,,A_14,001,2024-11-30_12h34.22.487,untitled,2024.1.5,None,2024-11-30 12h34.38.875069 +0530,
triangle.png,stranger,0,Z,,,,,,,,,9,2,38,3,,,,,,,,,212.83464289999392,,,,,,,,,,,,,,,,,,,,,,,,,,,,,,,,,,,,,,,,,,,,,,,,,,,,,,,,,,,,212.81862349998846,212.83464289999392,213.31825240000035,213.31825240000035,213.31825240000035,213.31825240000035,213.334952899997,213.61821499999496,213.61821499999496,213.61821499999496,214.21917779999785,z,0.8857372000056785,None,214.21960279998893,214.23496960000193,215.23565649999364,215.21943359999568,,,,,,,,,,,,,,,,,,,,,,,,,,,,,,,,,,,,,,,,,,,,,,,,,,,,,,,,,,,,,,,,,,,,,,,,,,,,,A_14,001,2024-11-30_12h34.22.487,untitled,2024.1.5,None,2024-11-30 12h34.38.875069 +0530,
triangle.png,you,1,M,,,,,,,,,9,3,39,1,,,,,,,,,215.23565649999364,,,,,,,,,,,,,,,,,,,,,,,,,,,,,,,,,,,,,,,,,,,,,,,,,,,,,,,,,,,,215.21978509999462,215.23565649999364,215.71938429999864,215.71938429999864,215.71938429999864,215.71938429999864,215.73604769998929,216.01950670000224,216.01950670000224,216.01950670000224,216.48698370000056,m,0.7603419999941252,None,216.48741639999207,216.50295949999418,217.50344010000117,217.4873021999956,,,,,,,,,,,,,,,,,,,,,,,,,,,,,,,,,,,,,,,,,,,,,,,,,,,,,,,,,,,,,,,,,,,,,,,,,,,,,A_14,001,2024-11-30_12h34.22.487,untitled,2024.1.5,None,2024-11-30 12h34.38.875069 +0530,
triangle.png,stranger,0,Z,,,,,,,,,10,0,40,3,,,,,,,,,217.50344010000117,,,,,,,,,,,,,,,,,,,,,,,,,,,,,,,,,,,,,,,,,,,,,,,,,,,,,,,,,,,,217.4876643000025,217.50344010000117,217.98735199999646,217.98735199999646,217.98735199999646,217.98735199999646,218.00386299999082,218.28729629999725,218.28729629999725,218.28729629999725,218.72161269999924,z,0.728878199995961,None,218.72206639999058,218.7374764999986,219.7381211000029,219.72189939999953,,,,,,,,,,,,,,,,,,,,,,,,,,,,,,,,,,,,,,,,,,,,,,,,,,,,,,,,,,,,,,,,,,,,,,,,,,,,,A_14,001,2024-11-30_12h34.22.487,untitled,2024.1.5,None,2024-11-30 12h34.38.875069 +0530,
square.png,stranger,1,M,,,,,,,,,10,1,41,0,,,,,,,,,219.7381211000029,,,,,,,,,,,,,,,,,,,,,,,,,,,,,,,,,,,,,,,,,,,,,,,,,,,,,,,,,,,,219.72224930000084,219.7381211000029,220.22173289999773,220.22173289999773,220.22173289999773,220.22173289999773,220.23841579999134,220.52175739999802,220.52175739999802,220.52175739999802,220.85589739998977,m,0.6178344000072684,None,220.85633529999177,220.8717930999992,221.87263959999837,221.85637189999397,,,,,,,,,,,,,,,,,,,,,,,,,,,,,,,,,,,,,,,,,,,,,,,,,,,,,,,,,,,,,,,,,,,,,,,,,,,,,A_14,001,2024-11-30_12h34.22.487,untitled,2024.1.5,None,2024-11-30 12h34.38.875069 +0530,
triangle.png,you,1,M,,,,,,,,,10,2,42,1,,,,,,,,,221.87263959999837,,,,,,,,,,,,,,,,,,,,,,,,,,,,,,,,,,,,,,,,,,,,,,,,,,,,,,,,,,,,221.85672019999765,221.87263959999837,222.35622239999066,222.35622239999066,222.35622239999066,222.35622239999066,222.37276980000024,222.65619819999847,222.65619819999847,222.65619819999847,223.1903670999891,m,0.824592400007532,None,223.1908032999927,223.20628430000215,224.20706220000284,224.19090770000184,,,,,,,,,,,,,,,,,,,,,,,,,,,,,,,,,,,,,,,,,,,,,,,,,,,,,,,,,,,,,,,,,,,,,,,,,,,,,A_14,001,2024-11-30_12h34.22.487,untitled,2024.1.5,None,2024-11-30 12h34.38.875069 +0530,
square.png,you,0,Z,,,,,,,,,10,3,43,2,,,,,,,,,224.20706220000284,,,,,,,,,,,,,,,,,,,,,,,,,,,,,,,,,,,,,,,,,,,,,,,,,,,,,,,,,,,,224.19128620000265,224.20706220000284,224.69072319999395,224.69072319999395,224.69072319999395,224.69072319999395,224.70733550000296,224.99069459999737,224.99069459999737,224.99069459999737,225.6082078999898,z,0.9162370000121882,None,225.60864700000093,225.62451480000163,226.62501599999086,226.60855900000024,,,,,,,,,,,,,,,,,,,,,,,,,,,,,,,,,,,,,,,,,,,,,,,,,,,,,,,,,,,,,,,,,,,,,,,,,,,,,A_14,001,2024-11-30_12h34.22.487,untitled,2024.1.5,None,2024-11-30 12h34.38.875069 +0530,
square.png,stranger,1,M,,,,,,,,,11,0,44,0,,,,,,,,,226.62501599999086,,,,,,,,,,,,,,,,,,,,,,,,,,,,,,,,,,,,,,,,,,,,,,,,,,,,,,,,,,,,226.6089079999947,226.62501599999086,227.10861709999153,227.10861709999153,227.10861709999153,227.10861709999153,227.1250882000022,227.4085982999968,227.4085982999968,227.4085982999968,227.70925349999743,m,0.5919217000046046,None,227.70968600000197,227.72544650000054,228.7257416999928,228.70953809999628,,,,,,,,,,,,,,,,,,,,,,,,,,,,,,,,,,,,,,,,,,,,,,,,,,,,,,,,,,,,,,,,,,,,,,,,,,,,,A_14,001,2024-11-30_12h34.22.487,untitled,2024.1.5,None,2024-11-30 12h34.38.875069 +0530,
triangle.png,stranger,0,Z,,,,,,,,,11,1,45,3,,,,,,,,,228.7257416999928,,,,,,,,,,,,,,,,,,,,,,,,,,,,,,,,,,,,,,,,,,,,,,,,,,,,,,,,,,,,228.7098982000025,228.7257416999928,229.20949579999433,229.20949579999433,229.20949579999433,229.20949579999433,229.22630929999286,229.5096099999937,229.5096099999937,229.5096099999937,230.0606926999899,z,0.846836800003075,None,230.06111589999637,230.0766644999967,231.0769347000023,231.0608651999937,,,,,,,,,,,,,,,,,,,,,,,,,,,,,,,,,,,,,,,,,,,,,,,,,,,,,,,,,,,,,,,,,,,,,,,,,,,,,A_14,001,2024-11-30_12h34.22.487,untitled,2024.1.5,None,2024-11-30 12h34.38.875069 +0530,
square.png,you,0,Z,,,,,,,,,11,2,46,2,,,,,,,,,231.0769347000023,,,,,,,,,,,,,,,,,,,,,,,,,,,,,,,,,,,,,,,,,,,,,,,,,,,,,,,,,,,,231.0612170999957,231.0769347000023,231.5606875999947,231.5606875999947,231.5606875999947,231.5606875999947,231.57755819999147,231.86097349999181,231.86097349999181,231.86097349999181,232.27823329999228,z,0.7157109999970999,None,232.27867159999732,232.2945228999888,233.29477639999823,233.278579299993,,,,,,,,,,,,,,,,,,,,,,,,,,,,,,,,,,,,,,,,,,,,,,,,,,,,,,,,,,,,,,,,,,,,,,,,,,,,,A_14,001,2024-11-30_12h34.22.487,untitled,2024.1.5,None,2024-11-30 12h34.38.875069 +0530,
triangle.png,you,1,M,,,,,,,,,11,3,47,1,,,,,,,,,233.29477639999823,,,,,,,,,,,,,,,,,,,,,,,,,,,,,,,,,,,,,,,,,,,,,,,,,,,,,,,,,,,,233.27894009999,233.29477639999823,233.77875579999818,233.77875579999818,233.77875579999818,233.77875579999818,233.79529660000117,234.07847589999437,234.07847589999437,234.07847589999437,234.66312359999574,m,0.8688553999963915,None,234.66368199999852,234.67879439999524,235.6795701999945,235.66307169999345,,,,,,,,,,,,,,,,,,,,,,,,,,,,,,,,,,,,,,,,,,,,,,,,,,,,,,,,,,,,,,,,,,,,,,,,,,,,,A_14,001,2024-11-30_12h34.22.487,untitled,2024.1.5,None,2024-11-30 12h34.38.875069 +0530,
triangle.png,stranger,0,Z,,,,,,,,,12,0,48,3,,,,,,,,,235.6795701999945,,,,,,,,,,,,,,,,,,,,,,,,,,,,,,,,,,,,,,,,,,,,,,,,,,,,,,,,,,,,235.66343010000128,235.6795701999945,236.1632433999912,236.1632433999912,236.1632433999912,236.1632433999912,236.17987899998843,236.46311579999747,236.46311579999747,236.46311579999747,236.99770139998873,z,0.8323527000029571,None,236.99816139999893,237.01351930000237,238.01415659999475,237.9977732999978,,,,,,,,,,,,,,,,,,,,,,,,,,,,,,,,,,,,,,,,,,,,,,,,,,,,,,,,,,,,,,,,,,,,,,,,,,,,,A_14,001,2024-11-30_12h34.22.487,untitled,2024.1.5,None,2024-11-30 12h34.38.875069 +0530,
square.png,stranger,1,M,,,,,,,,,12,1,49,0,,,,,,,,,238.01415659999475,,,,,,,,,,,,,,,,,,,,,,,,,,,,,,,,,,,,,,,,,,,,,,,,,,,,,,,,,,,,237.9981209999969,238.01415659999475,238.49744549999014,238.49744549999014,238.49744549999014,238.49744549999014,238.51408019999508,238.79780899999605,238.79780899999605,238.79780899999605,239.11516859999392,m,0.6070930999994744,None,239.11560839999584,239.13140209999983,240.1315609000012,240.11552259999735,,,,,,,,,,,,,,,,,,,,,,,,,,,,,,,,,,,,,,,,,,,,,,,,,,,,,,,,,,,,,,,,,,,,,,,,,,,,,A_14,001,2024-11-30_12h34.22.487,untitled,2024.1.5,None,2024-11-30 12h34.38.875069 +0530,
triangle.png,you,1,M,,,,,,,,,12,2,50,1,,,,,,,,,240.1315609000012,,,,,,,,,,,,,,,,,,,,,,,,,,,,,,,,,,,,,,,,,,,,,,,,,,,,,,,,,,,,240.11587860000145,240.1315609000012,240.6154652999976,240.6154652999976,240.6154652999976,240.6154652999976,240.63207929999044,240.9153867999994,240.9153867999994,240.9153867999994,241.48303869999654,m,0.860945599997649,None,241.4834739999933,241.49919709999813,242.49948129999393,242.48354459999246,,,,,,,,,,,,,,,,,,,,,,,,,,,,,,,,,,,,,,,,,,,,,,,,,,,,,,,,,,,,,,,,,,,,,,,,,,,,,A_14,001,2024-11-30_12h34.22.487,untitled,2024.1.5,None,2024-11-30 12h34.38.875069 +0530,
square.png,you,0,Z,,,,,,,,,12,3,51,2,,,,,,,,,242.49948129999393,,,,,,,,,,,,,,,,,,,,,,,,,,,,,,,,,,,,,,,,,,,,,,,,,,,,,,,,,,,,242.4839090000023,242.49948129999393,242.98322759999428,242.98322759999428,242.98322759999428,242.98322759999428,243.00005930000043,243.28314220000175,243.28314220000175,243.28314220000175,243.7511586999899,z,0.7613324000121793,None,243.75158830000146,243.76694309999584,244.7673008999991,244.7513217999949,,,,,,,,,,,,,,,,,,,,,,,,,,,,,,,,,,,,,,,,,,,,,,,,,,,,,,,,,,,,,,,,,,,,,,,,,,,,,A_14,001,2024-11-30_12h34.22.487,untitled,2024.1.5,None,2024-11-30 12h34.38.875069 +0530,
triangle.png,stranger,0,Z,,,,,,,,,13,0,52,3,,,,,,,,,244.7673008999991,,,,,,,,,,,,,,,,,,,,,,,,,,,,,,,,,,,,,,,,,,,,,,,,,,,,,,,,,,,,244.75167859999056,244.7673008999991,245.25106389999564,245.25106389999564,245.25106389999564,245.25106389999564,245.26790969999274,245.55119459998969,245.55119459998969,245.55119459998969,246.01864090000163,m,0.7525752000074135,None,246.01907399999618,246.03488949999155,247.03539099999762,247.01930089999223,,,,,,,,,,,,,,,,,,,,,,,,,,,,,,,,,,,,,,,,,,,,,,,,,,,,,,,,,,,,,,,,,,,,,,,,,,,,,A_14,001,2024-11-30_12h34.22.487,untitled,2024.1.5,None,2024-11-30 12h34.38.875069 +0530,
square.png,stranger,1,M,,,,,,,,,13,1,53,0,,,,,,,,,247.03539099999762,,,,,,,,,,,,,,,,,,,,,,,,,,,,,,,,,,,,,,,,,,,,,,,,,,,,,,,,,,,,247.0196525999927,247.03539099999762,247.5190561999916,247.5190561999916,247.5190561999916,247.5190561999916,247.53570589999435,247.8188325999945,247.8188325999945,247.8188325999945,248.0698393999919,m,0.549280599996564,None,248.07030819999636,248.08574889999,249.0861728000018,249.0700441999943,,,,,,,,,,,,,,,,,,,,,,,,,,,,,,,,,,,,,,,,,,,,,,,,,,,,,,,,,,,,,,,,,,,,,,,,,,,,,A_14,001,2024-11-30_12h34.22.487,untitled,2024.1.5,None,2024-11-30 12h34.38.875069 +0530,
triangle.png,you,1,M,,,,,,,,,13,2,54,1,,,,,,,,,249.0861728000018,,,,,,,,,,,,,,,,,,,,,,,,,,,,,,,,,,,,,,,,,,,,,,,,,,,,,,,,,,,,249.07040319999214,249.0861728000018,249.57009339999058,249.57009339999058,249.57009339999058,249.57009339999058,249.58661369999754,249.87007269999594,249.87007269999594,249.87007269999594,250.4875052999996,m,0.9100957000046037,None,250.487933899989,250.5035446999973,251.50432259999798,251.48802889999934,,,,,,,,,,,,,,,,,,,,,,,,,,,,,,,,,,,,,,,,,,,,,,,,,,,,,,,,,,,,,,,,,,,,,,,,,,,,,A_14,001,2024-11-30_12h34.22.487,untitled,2024.1.5,None,2024-11-30 12h34.38.875069 +0530,
square.png,you,0,Z,,,,,,,,,13,3,55,2,,,,,,,,,251.50432259999798,,,,,,,,,,,,,,,,,,,,,,,,,,,,,,,,,,,,,,,,,,,,,,,,,,,,,,,,,,,,251.4883858999965,251.50432259999798,251.98798559998977,251.98798559998977,251.98798559998977,251.98798559998977,252.0044452000002,252.28800279999268,252.28800279999268,252.28800279999268,252.75545260000217,z,0.7518256999901496,None,252.75588079998852,252.77149889999419,253.77203789999476,253.75584739999613,,,,,,,,,,,,,,,,,,,,,,,,,,,,,,,,,,,,,,,,,,,,,,,,,,,,,,,,,,,,,,,,,,,,,,,,,,,,,A_14,001,2024-11-30_12h34.22.487,untitled,2024.1.5,None,2024-11-30 12h34.38.875069 +0530,
triangle.png,stranger,0,Z,,,,,,,,,14,0,56,3,,,,,,,,,253.77203789999476,,,,,,,,,,,,,,,,,,,,,,,,,,,,,,,,,,,,,,,,,,,,,,,,,,,,,,,,,,,,253.75620160000108,253.77203789999476,254.25590029999148,254.25590029999148,254.25590029999148,254.25590029999148,254.27237019999302,254.5558444999915,254.5558444999915,254.5558444999915,254.98984789999668,z,0.7199175999994623,None,254.99028420000104,255.00611370000115,256.0063902999973,255.9904283999931,,,,,,,,,,,,,,,,,,,,,,,,,,,,,,,,,,,,,,,,,,,,,,,,,,,,,,,,,,,,,,,,,,,,,,,,,,,,,A_14,001,2024-11-30_12h34.22.487,untitled,2024.1.5,None,2024-11-30 12h34.38.875069 +0530,
square.png,you,0,Z,,,,,,,,,14,1,57,2,,,,,,,,,256.0063902999973,,,,,,,,,,,,,,,,,,,,,,,,,,,,,,,,,,,,,,,,,,,,,,,,,,,,,,,,,,,,255.99078049999662,256.0063902999973,256.49003020000237,256.49003020000237,256.49003020000237,256.49003020000237,256.5069302999909,256.79006289999234,256.79006289999234,256.79006289999234,257.357929299993,z,0.8528310999972746,None,257.3583548999886,257.37400799999887,258.374490599992,258.35834449999675,,,,,,,,,,,,,,,,,,,,,,,,,,,,,,,,,,,,,,,,,,,,,,,,,,,,,,,,,,,,,,,,,,,,,,,,,,,,,A_14,001,2024-11-30_12h34.22.487,untitled,2024.1.5,None,2024-11-30 12h34.38.875069 +0530,
triangle.png,you,1,M,,,,,,,,,14,2,58,1,,,,,,,,,258.374490599992,,,,,,,,,,,,,,,,,,,,,,,,,,,,,,,,,,,,,,,,,,,,,,,,,,,,,,,,,,,,258.3586895999906,258.374490599992,258.8582705000008,258.8582705000008,258.8582705000008,258.8582705000008,258.8747616999899,259.158039499991,259.158039499991,259.158039499991,259.54238749999786,m,0.6741376999998465,None,259.5428164999903,259.558348999999,260.5588459999999,260.5426504999923,,,,,,,,,,,,,,,,,,,,,,,,,,,,,,,,,,,,,,,,,,,,,,,,,,,,,,,,,,,,,,,,,,,,,,,,,,,,,A_14,001,2024-11-30_12h34.22.487,untitled,2024.1.5,None,2024-11-30 12h34.38.875069 +0530,
square.png,stranger,1,M,,,,,,,,,14,3,59,0,,,,,,,,,260.5588459999999,,,,,,,,,,,,,,,,,,,,,,,,,,,,,,,,,,,,,,,,,,,,,,,,,,,,,,,,,,,,260.54300589999184,260.5588459999999,261.04267809999874,261.04267809999874,261.04267809999874,261.04267809999874,261.05909879998944,261.34240129998943,261.34240129998943,261.34240129998943,261.71013959999254,m,0.6570133000059286,None,261.71057329999167,261.72621889998845,262.72665589999815,262.71039159999054,,,,,,,,,,,,,,,,,,,,,,,,,,,,,,,,,,,,,,,,,,,,,,,,,,,,,,,,,,,,,,,,,,,,,,,,,,,,,A_14,001,2024-11-30_12h34.22.487,untitled,2024.1.5,None,2024-11-30 12h34.38.875069 +0530,
square.png,stranger,1,M,,,,,,,,,15,0,60,0,,,,,,,,,262.72665589999815,,,,,,,,,,,,,,,,,,,,,,,,,,,,,,,,,,,,,,,,,,,,,,,,,,,,,,,,,,,,262.7107573999965,262.72665589999815,263.2102324000007,263.2102324000007,263.2102324000007,263.2102324000007,263.2268533999886,263.510174199997,263.510174199997,263.510174199997,264.29442419999395,None,,,264.29462010000134,264.31061619998945,265.3112162999896,265.2949687999935,264.31061619998945,,,,,,,,,,,,,,,,,,,,,,,,,,,,,,,,,,,,,,,,,,,,,,,,,,,,,,,,,,,,,,,,,,,,,,,,,,,,A_14,001,2024-11-30_12h34.22.487,untitled,2024.1.5,None,2024-11-30 12h34.38.875069 +0530,
square.png,you,0,Z,,,,,,,,,15,1,61,2,,,,,,,,,265.3112162999896,,,,,,,,,,,,,,,,,,,,,,,,,,,,,,,,,,,,,,,,,,,,,,,,,,,,,,,,,,,,265.2953253000014,265.3112162999896,265.8115190999961,265.8115190999961,265.8115190999961,265.8115190999961,265.8115190999961,266.11181619999115,266.11181619999115,266.11181619999115,266.5124777000019,z,0.6963125000038417,None,266.51290940000035,266.52861799999664,267.5291664999968,267.5126057000016,,,,,,,,,,,,,,,,,,,,,,,,,,,,,,,,,,,,,,,,,,,,,,,,,,,,,,,,,,,,,,,,,,,,,,,,,,,,,A_14,001,2024-11-30_12h34.22.487,untitled,2024.1.5,None,2024-11-30 12h34.38.875069 +0530,
triangle.png,stranger,0,Z,,,,,,,,,15,2,62,3,,,,,,,,,267.5291664999968,,,,,,,,,,,,,,,,,,,,,,,,,,,,,,,,,,,,,,,,,,,,,,,,,,,,,,,,,,,,267.5130530999886,267.5291664999968,268.01262270000007,268.01262270000007,268.01262270000007,268.01262270000007,268.0292738999997,268.31276790000265,268.31276790000265,268.31276790000265,268.8302762999956,z,0.8118631999968784,None,268.83070919998863,268.84649830000126,269.8470426999993,269.83055069998954,,,,,,,,,,,,,,,,,,,,,,,,,,,,,,,,,,,,,,,,,,,,,,,,,,,,,,,,,,,,,,,,,,,,,,,,,,,,,A_14,001,2024-11-30_12h34.22.487,untitled,2024.1.5,None,2024-11-30 12h34.38.875069 +0530,
triangle.png,you,1,M,,,,,,,,,15,3,63,1,,,,,,,,,269.8470426999993,,,,,,,,,,,,,,,,,,,,,,,,,,,,,,,,,,,,,,,,,,,,,,,,,,,,,,,,,,,,269.83090309999534,269.8470426999993,270.33073319999676,270.33073319999676,270.33073319999676,270.33073319999676,270.3473107000027,270.6305807999888,270.6305807999888,270.6305807999888,271.34832559998904,m,1.0164031000022078,None,271.348756899999,271.3642465000012,272.3649315999937,272.34859219999635,,,,,,,,,,,,,,,,,,,,,,,,,,,,,,,,,,,,,,,,,,,,,,,,,,,,,,,,,,,,,,,,,,,,,,,,,,,,,A_14,001,2024-11-30_12h34.22.487,untitled,2024.1.5,None,2024-11-30 12h34.38.875069 +0530,
square.png,you,0,Z,,,,,,,,,16,0,64,2,,,,,,,,,272.3649315999937,,,,,,,,,,,,,,,,,,,,,,,,,,,,,,,,,,,,,,,,,,,,,,,,,,,,,,,,,,,,272.34895049998886,272.3649315999937,272.8484948999976,272.8484948999976,272.8484948999976,272.8484948999976,272.86500309999974,273.14861979999114,273.14861979999114,273.14861979999114,273.5662924999924,z,0.7119095000089146,None,273.56671889999416,273.5822863999929,274.5829559999984,274.5665488999948,,,,,,,,,,,,,,,,,,,,,,,,,,,,,,,,,,,,,,,,,,,,,,,,,,,,,,,,,,,,,,,,,,,,,,,,,,,,,A_14,001,2024-11-30_12h34.22.487,untitled,2024.1.5,None,2024-11-30 12h34.38.875069 +0530,
triangle.png,you,1,M,,,,,,,,,16,1,65,1,,,,,,,,,274.5829559999984,,,,,,,,,,,,,,,,,,,,,,,,,,,,,,,,,,,,,,,,,,,,,,,,,,,,,,,,,,,,274.56690649999655,274.5829559999984,275.06619359999604,275.06619359999604,275.06619359999604,275.06619359999604,275.08307939999213,275.3663607999915,275.3663607999915,275.3663607999915,276.0674304999993,m,0.9895929000049364,None,276.06786439999996,276.0833000999992,277.08396150000044,277.0678528999997,,,,,,,,,,,,,,,,,,,,,,,,,,,,,,,,,,,,,,,,,,,,,,,,,,,,,,,,,,,,,,,,,,,,,,,,,,,,,A_14,001,2024-11-30_12h34.22.487,untitled,2024.1.5,None,2024-11-30 12h34.38.875069 +0530,
square.png,stranger,1,M,,,,,,,,,16,2,66,0,,,,,,,,,277.08396150000044,,,,,,,,,,,,,,,,,,,,,,,,,,,,,,,,,,,,,,,,,,,,,,,,,,,,,,,,,,,,277.0682031999895,277.08396150000044,277.56768880000163,277.56768880000163,277.56768880000163,277.56768880000163,277.5841875999904,277.867614399991,277.867614399991,277.867614399991,278.20185339999443,m,0.6239732999965781,None,278.20230939998874,278.2179439999891,279.21829959999013,279.2022982999915,,,,,,,,,,,,,,,,,,,,,,,,,,,,,,,,,,,,,,,,,,,,,,,,,,,,,,,,,,,,,,,,,,,,,,,,,,,,,A_14,001,2024-11-30_12h34.22.487,untitled,2024.1.5,None,2024-11-30 12h34.38.875069 +0530,
triangle.png,stranger,0,Z,,,,,,,,,16,3,67,3,,,,,,,,,279.21829959999013,,,,,,,,,,,,,,,,,,,,,,,,,,,,,,,,,,,,,,,,,,,,,,,,,,,,,,,,,,,,279.20264989999123,279.21829959999013,279.70214799999667,279.70214799999667,279.70214799999667,279.70214799999667,279.71856569999363,280.0021255999891,280.0021255999891,280.0021255999891,280.31958899999154,z,0.6058441999921342,None,280.32002400000056,280.335465199998,281.3361117000022,281.3199076000019,,,,,,,,,,,,,,,,,,,,,,,,,,,,,,,,,,,,,,,,,,,,,,,,,,,,,,,,,,,,,,,,,,,,,,,,,,,,,A_14,001,2024-11-30_12h34.22.487,untitled,2024.1.5,None,2024-11-30 12h34.38.875069 +0530,
square.png,stranger,1,M,,,,,,,,,17,0,68,0,,,,,,,,,281.3361117000022,,,,,,,,,,,,,,,,,,,,,,,,,,,,,,,,,,,,,,,,,,,,,,,,,,,,,,,,,,,,281.3202690999897,281.3361117000022,281.81992919999175,281.81992919999175,281.81992919999175,281.81992919999175,281.83631709999463,282.1198405999894,282.1198405999894,282.1198405999894,282.5874446999951,m,0.7518201999919256,None,282.5878776999889,282.6033788999921,283.6039888999949,283.58753569998953,,,,,,,,,,,,,,,,,,,,,,,,,,,,,,,,,,,,,,,,,,,,,,,,,,,,,,,,,,,,,,,,,,,,,,,,,,,,,A_14,001,2024-11-30_12h34.22.487,untitled,2024.1.5,None,2024-11-30 12h34.38.875069 +0530,
triangle.png,you,1,M,,,,,,,,,17,1,69,1,,,,,,,,,283.6039888999949,,,,,,,,,,,,,,,,,,,,,,,,,,,,,,,,,,,,,,,,,,,,,,,,,,,,,,,,,,,,283.58789019999676,283.6039888999949,284.08758799999487,284.08758799999487,284.08758799999487,284.08758799999487,284.1043906999985,284.38768999998865,284.38768999998865,284.38768999998865,284.7218998000026,z,0.6287029000086477,None,284.72233309999865,284.73773899998923,285.7385406999965,285.72205009999743,,,,,,,,,,,,,,,,,,,,,,,,,,,,,,,,,,,,,,,,,,,,,,,,,,,,,,,,,,,,,,,,,,,,,,,,,,,,,A_14,001,2024-11-30_12h34.22.487,untitled,2024.1.5,None,2024-11-30 12h34.38.875069 +0530,
square.png,you,0,Z,,,,,,,,,17,2,70,2,,,,,,,,,285.7385406999965,,,,,,,,,,,,,,,,,,,,,,,,,,,,,,,,,,,,,,,,,,,,,,,,,,,,,,,,,,,,285.72240529999544,285.7385406999965,286.2221764999995,286.2221764999995,286.2221764999995,286.2221764999995,286.23869179999747,286.5218901999906,286.5218901999906,286.5218901999906,286.90634390000196,z,0.6818220999994082,None,286.90677809999033,286.9221822999971,287.9226396000013,287.90650109999115,,,,,,,,,,,,,,,,,,,,,,,,,,,,,,,,,,,,,,,,,,,,,,,,,,,,,,,,,,,,,,,,,,,,,,,,,,,,,A_14,001,2024-11-30_12h34.22.487,untitled,2024.1.5,None,2024-11-30 12h34.38.875069 +0530,
triangle.png,stranger,0,Z,,,,,,,,,17,3,71,3,,,,,,,,,287.9226396000013,,,,,,,,,,,,,,,,,,,,,,,,,,,,,,,,,,,,,,,,,,,,,,,,,,,,,,,,,,,,287.9068632999988,287.9226396000013,288.40648639999563,288.40648639999563,288.40648639999563,288.40648639999563,288.4232871999993,288.7065312999912,288.7065312999912,288.7065312999912,289.0907404000027,z,0.6761933000088902,None,289.09120009999606,289.1069325999997,290.1073614999914,290.09085680000135,,,,,,,,,,,,,,,,,,,,,,,,,,,,,,,,,,,,,,,,,,,,,,,,,,,,,,,,,,,,,,,,,,,,,,,,,,,,,A_14,001,2024-11-30_12h34.22.487,untitled,2024.1.5,None,2024-11-30 12h34.38.875069 +0530,
square.png,stranger,1,M,,,,,,,,,18,0,72,0,,,,,,,,,290.1073614999914,,,,,,,,,,,,,,,,,,,,,,,,,,,,,,,,,,,,,,,,,,,,,,,,,,,,,,,,,,,,290.09121230000164,290.1073614999914,290.59102589999384,290.59102589999384,290.59102589999384,290.59102589999384,290.6076904999936,290.8910954000021,290.8910954000021,290.8910954000021,291.2252652999887,m,0.619720500006224,None,291.22569870000007,291.2410428000003,292.24185439999565,292.22535269999935,,,,,,,,,,,,,,,,,,,,,,,,,,,,,,,,,,,,,,,,,,,,,,,,,,,,,,,,,,,,,,,,,,,,,,,,,,,,,A_14,001,2024-11-30_12h34.22.487,untitled,2024.1.5,None,2024-11-30 12h34.38.875069 +0530,
square.png,you,0,Z,,,,,,,,,18,1,73,2,,,,,,,,,292.24185439999565,,,,,,,,,,,,,,,,,,,,,,,,,,,,,,,,,,,,,,,,,,,,,,,,,,,,,,,,,,,,292.22571079999034,292.24185439999565,292.72523699999147,292.72523699999147,292.72523699999147,292.72523699999147,292.74220409999543,293.0253209999937,293.0253209999937,293.0253209999937,293.3431978000008,m,0.6068929000030039,None,293.3436243999895,293.35926169999584,294.3595736999996,294.3431511999952,,,,,,,,,,,,,,,,,,,,,,,,,,,,,,,,,,,,,,,,,,,,,,,,,,,,,,,,,,,,,,,,,,,,,,,,,,,,,A_14,001,2024-11-30_12h34.22.487,untitled,2024.1.5,None,2024-11-30 12h34.38.875069 +0530,
triangle.png,you,1,M,,,,,,,,,18,2,74,1,,,,,,,,,294.3595736999996,,,,,,,,,,,,,,,,,,,,,,,,,,,,,,,,,,,,,,,,,,,,,,,,,,,,,,,,,,,,294.3435096999892,294.3595736999996,294.84329059999436,294.84329059999436,294.84329059999436,294.84329059999436,294.86003929999424,295.14300399999775,295.14300399999775,295.14300399999775,295.4440872999985,m,0.585280999992392,None,295.44451899999694,295.4600378999894,296.4604282999935,296.4441397999908,,,,,,,,,,,,,,,,,,,,,,,,,,,,,,,,,,,,,,,,,,,,,,,,,,,,,,,,,,,,,,,,,,,,,,,,,,,,,A_14,001,2024-11-30_12h34.22.487,untitled,2024.1.5,None,2024-11-30 12h34.38.875069 +0530,
triangle.png,stranger,0,Z,,,,,,,,,18,3,75,3,,,,,,,,,296.4604282999935,,,,,,,,,,,,,,,,,,,,,,,,,,,,,,,,,,,,,,,,,,,,,,,,,,,,,,,,,,,,296.44449979999627,296.4604282999935,296.94412489999377,296.94412489999377,296.94412489999377,296.94412489999377,296.9608084999927,297.24421749998874,297.24421749998874,297.24421749998874,297.5949308999989,z,0.6434943000058411,None,297.5953964999935,297.61101079999935,298.6114751999994,298.59530619998986,,,,,,,,,,,,,,,,,,,,,,,,,,,,,,,,,,,,,,,,,,,,,,,,,,,,,,,,,,,,,,,,,,,,,,,,,,,,,A_14,001,2024-11-30_12h34.22.487,untitled,2024.1.5,None,2024-11-30 12h34.38.875069 +0530,
square.png,stranger,1,M,,,,,,,,,19,0,76,0,,,,,,,,,298.6114751999994,,,,,,,,,,,,,,,,,,,,,,,,,,,,,,,,,,,,,,,,,,,,,,,,,,,,,,,,,,,,298.59566759999143,298.6114751999994,299.0954066999984,299.0954066999984,299.0954066999984,299.0954066999984,299.1118647999974,299.3952779999963,299.3952779999963,299.3952779999963,299.6627412999951,m,0.5521874999976717,None,299.66316499999084,299.6790316999977,300.6793625999999,300.66304509999463,,,,,,,,,,,,,,,,,,,,,,,,,,,,,,,,,,,,,,,,,,,,,,,,,,,,,,,,,,,,,,,,,,,,,,,,,,,,,A_14,001,2024-11-30_12h34.22.487,untitled,2024.1.5,None,2024-11-30 12h34.38.875069 +0530,
square.png,you,0,Z,,,,,,,,,19,1,77,2,,,,,,,,,300.6793625999999,,,,,,,,,,,,,,,,,,,,,,,,,,,,,,,,,,,,,,,,,,,,,,,,,,,,,,,,,,,,300.66339829999197,300.6793625999999,301.16310689999955,301.16310689999955,301.16310689999955,301.16310689999955,301.179715899998,301.46278509999684,301.46278509999684,301.46278509999684,301.93081299999903,z,0.7649445999995805,None,301.93124009999156,301.9466626999929,302.94704569999885,302.9307387000008,,,,,,,,,,,,,,,,,,,,,,,,,,,,,,,,,,,,,,,,,,,,,,,,,,,,,,,,,,,,,,,,,,,,,,,,,,,,,A_14,001,2024-11-30_12h34.22.487,untitled,2024.1.5,None,2024-11-30 12h34.38.875069 +0530,
triangle.png,you,1,M,,,,,,,,,19,2,78,1,,,,,,,,,302.94704569999885,,,,,,,,,,,,,,,,,,,,,,,,,,,,,,,,,,,,,,,,,,,,,,,,,,,,,,,,,,,,302.9310991999955,302.94704569999885,303.43095470000117,303.43095470000117,303.43095470000117,303.43095470000117,303.44755689999147,303.73069179999584,303.73069179999584,303.73069179999584,303.9483859999891,m,0.501868999999715,None,303.9488219999912,303.9641963999893,304.96473120000155,304.9484708999953,,,,,,,,,,,,,,,,,,,,,,,,,,,,,,,,,,,,,,,,,,,,,,,,,,,,,,,,,,,,,,,,,,,,,,,,,,,,,A_14,001,2024-11-30_12h34.22.487,untitled,2024.1.5,None,2024-11-30 12h34.38.875069 +0530,
triangle.png,stranger,0,Z,,,,,,,,,19,3,79,3,,,,,,,,,304.96473120000155,,,,,,,,,,,,,,,,,,,,,,,,,,,,,,,,,,,,,,,,,,,,,,,,,,,,,,,,,,,,304.9488272000017,304.96473120000155,305.4484611999942,305.4484611999942,305.4484611999942,305.4484611999942,305.4651138999907,305.7485965999949,305.7485965999949,305.7485965999949,306.0997282000026,z,0.643522700003814,None,306.1001506999892,306.11536019999767,307.1159961999947,307.09957649999706,,,,,,,,,,,,,,,,,,,,,,,,,,,,,,,,,,,,,,,,,,,,,,,,,,,,,,,,,,,,,,,,,,,,,,,,,,,,,A_14,001,2024-11-30_12h34.22.487,untitled,2024.1.5,None,2024-11-30 12h34.38.875069 +0530,
square.png,stranger,1,M,,,,,,,,,20,0,80,0,,,,,,,,,307.1159961999947,,,,,,,,,,,,,,,,,,,,,,,,,,,,,,,,,,,,,,,,,,,,,,,,,,,,,,,,,,,,307.0999310999905,307.1159961999947,307.5998374999908,307.5998374999908,307.5998374999908,307.5998374999908,307.6163285999937,307.8997393999889,307.8997393999889,307.8997393999889,308.1838590999978,m,0.5721194000070682,None,308.184282000002,308.1999494999909,309.2004952999996,309.18429049999395,,,,,,,,,,,,,,,,,,,,,,,,,,,,,,,,,,,,,,,,,,,,,,,,,,,,,,,,,,,,,,,,,,,,,,,,,,,,,A_14,001,2024-11-30_12h34.22.487,untitled,2024.1.5,None,2024-11-30 12h34.38.875069 +0530,
square.png,you,0,Z,,,,,,,,,20,1,81,2,,,,,,,,,309.2004952999996,,,,,,,,,,,,,,,,,,,,,,,,,,,,,,,,,,,,,,,,,,,,,,,,,,,,,,,,,,,,309.1846375000023,309.2004952999996,309.68401159999485,309.68401159999485,309.68401159999485,309.68401159999485,309.7006773999892,309.9840284999955,309.9840284999955,309.9840284999955,310.38507849999587,z,0.6962204000010388,None,310.3855151000025,310.40145209999173,311.401340899989,311.3852060999925,,,,,,,,,,,,,,,,,,,,,,,,,,,,,,,,,,,,,,,,,,,,,,,,,,,,,,,,,,,,,,,,,,,,,,,,,,,,,A_14,001,2024-11-30_12h34.22.487,untitled,2024.1.5,None,2024-11-30 12h34.38.875069 +0530,
triangle.png,stranger,0,Z,,,,,,,,,20,2,82,3,,,,,,,,,311.401340899989,,,,,,,,,,,,,,,,,,,,,,,,,,,,,,,,,,,,,,,,,,,,,,,,,,,,,,,,,,,,311.3855688999902,311.401340899989,311.88515570000163,311.88515570000163,311.88515570000163,311.88515570000163,311.9019954999967,312.18508629999997,312.18508629999997,312.18508629999997,312.96926089999033,None,,,312.9694545999955,312.9856529999961,313.9862282999966,313.9700784000015,312.9856529999961,,,,,,,,,,,,,,,,,,,,,,,,,,,,,,,,,,,,,,,,,,,,,,,,,,,,,,,,,,,,,,,,,,,,,,,,,,,,A_14,001,2024-11-30_12h34.22.487,untitled,2024.1.5,None,2024-11-30 12h34.38.875069 +0530,
triangle.png,you,1,M,,,,,,,,,20,3,83,1,,,,,,,,,313.9862282999966,,,,,,,,,,,,,,,,,,,,,,,,,,,,,,,,,,,,,,,,,,,,,,,,,,,,,,,,,,,,313.9704356000002,313.9862282999966,314.486436399995,314.486436399995,314.486436399995,314.486436399995,314.486436399995,314.78662669999176,314.78662669999176,314.78662669999176,315.08748429999105,m,0.5973914999922272,None,315.08790449998924,315.10328359999403,316.10401539999293,316.087664199993,,,,,,,,,,,,,,,,,,,,,,,,,,,,,,,,,,,,,,,,,,,,,,,,,,,,,,,,,,,,,,,,,,,,,,,,,,,,,A_14,001,2024-11-30_12h34.22.487,untitled,2024.1.5,None,2024-11-30 12h34.38.875069 +0530,
triangle.png,stranger,0,Z,,,,,,,,,21,0,84,3,,,,,,,,,316.10401539999293,,,,,,,,,,,,,,,,,,,,,,,,,,,,,,,,,,,,,,,,,,,,,,,,,,,,,,,,,,,,316.0880130000005,316.10401539999293,316.58762829999614,316.58762829999614,316.58762829999614,316.58762829999614,316.60417189999134,316.8875059999991,316.8875059999991,316.8875059999991,317.2887025999953,z,0.6964825000031851,None,317.2891371000005,317.3044249999948,318.30503959998896,318.2888349999994,,,,,,,,,,,,,,,,,,,,,,,,,,,,,,,,,,,,,,,,,,,,,,,,,,,,,,,,,,,,,,,,,,,,,,,,,,,,,A_14,001,2024-11-30_12h34.22.487,untitled,2024.1.5,None,2024-11-30 12h34.38.875069 +0530,
square.png,you,0,Z,,,,,,,,,21,1,85,2,,,,,,,,,318.30503959998896,,,,,,,,,,,,,,,,,,,,,,,,,,,,,,,,,,,,,,,,,,,,,,,,,,,,,,,,,,,,318.28918669999985,318.30503959998896,318.78859229999944,318.78859229999944,318.78859229999944,318.78859229999944,318.80528459999186,319.0887282999902,319.0887282999902,319.0887282999902,319.4228060999885,m,0.6188685999950394,None,319.42323669999314,319.4389353000006,320.43954769999254,320.42309149999346,,,,,,,,,,,,,,,,,,,,,,,,,,,,,,,,,,,,,,,,,,,,,,,,,,,,,,,,,,,,,,,,,,,,,,,,,,,,,A_14,001,2024-11-30_12h34.22.487,untitled,2024.1.5,None,2024-11-30 12h34.38.875069 +0530,
triangle.png,you,1,M,,,,,,,,,21,2,86,1,,,,,,,,,320.43954769999254,,,,,,,,,,,,,,,,,,,,,,,,,,,,,,,,,,,,,,,,,,,,,,,,,,,,,,,,,,,,320.42344420000154,320.43954769999254,320.9229983999976,320.9229983999976,320.9229983999976,320.9229983999976,320.9399643999932,321.22320890000265,321.22320890000265,321.22320890000265,321.457322199989,m,0.5325162999943132,None,321.4577624999947,321.47325889999047,322.4737871999969,322.457619599998,,,,,,,,,,,,,,,,,,,,,,,,,,,,,,,,,,,,,,,,,,,,,,,,,,,,,,,,,,,,,,,,,,,,,,,,,,,,,A_14,001,2024-11-30_12h34.22.487,untitled,2024.1.5,None,2024-11-30 12h34.38.875069 +0530,
square.png,stranger,1,M,,,,,,,,,21,3,87,0,,,,,,,,,322.4737871999969,,,,,,,,,,,,,,,,,,,,,,,,,,,,,,,,,,,,,,,,,,,,,,,,,,,,,,,,,,,,322.4579744999937,322.4737871999969,322.95765499999106,322.95765499999106,322.95765499999106,322.95765499999106,322.97407450000173,323.25748020000174,323.25748020000174,323.25748020000174,323.6083123999997,m,0.6350770999997621,None,323.6087387000007,323.62452810000104,324.6248437999893,324.60881459999655,,,,,,,,,,,,,,,,,,,,,,,,,,,,,,,,,,,,,,,,,,,,,,,,,,,,,,,,,,,,,,,,,,,,,,,,,,,,,A_14,001,2024-11-30_12h34.22.487,untitled,2024.1.5,None,2024-11-30 12h34.38.875069 +0530,
square.png,stranger,1,M,,,,,,,,,22,0,88,0,,,,,,,,,324.6248437999893,,,,,,,,,,,,,,,,,,,,,,,,,,,,,,,,,,,,,,,,,,,,,,,,,,,,,,,,,,,,324.60917179999524,324.6248437999893,325.1087006000016,325.1087006000016,325.1087006000016,325.1087006000016,325.1251341999887,325.40848449998884,325.40848449998884,325.40848449998884,325.592659499991,m,0.47131910000462085,None,325.5930915999925,325.6086561999982,326.60918980000133,326.5930425999977,,,,,,,,,,,,,,,,,,,,,,,,,,,,,,,,,,,,,,,,,,,,,,,,,,,,,,,,,,,,,,,,,,,,,,,,,,,,,A_14,001,2024-11-30_12h34.22.487,untitled,2024.1.5,None,2024-11-30 12h34.38.875069 +0530,
triangle.png,stranger,0,Z,,,,,,,,,22,1,89,3,,,,,,,,,326.60918980000133,,,,,,,,,,,,,,,,,,,,,,,,,,,,,,,,,,,,,,,,,,,,,,,,,,,,,,,,,,,,326.59339969999564,326.60918980000133,327.09311859999434,327.09311859999434,327.09311859999434,327.09311859999434,327.1095104999986,327.3928416999988,327.3928416999988,327.3928416999988,327.92708359999233,z,0.8262332000012975,None,327.92751339999086,327.94326569999976,328.9436655999889,328.92761430000246,,,,,,,,,,,,,,,,,,,,,,,,,,,,,,,,,,,,,,,,,,,,,,,,,,,,,,,,,,,,,,,,,,,,,,,,,,,,,A_14,001,2024-11-30_12h34.22.487,untitled,2024.1.5,None,2024-11-30 12h34.38.875069 +0530,
square.png,you,0,Z,,,,,,,,,22,2,90,2,,,,,,,,,328.9436655999889,,,,,,,,,,,,,,,,,,,,,,,,,,,,,,,,,,,,,,,,,,,,,,,,,,,,,,,,,,,,328.927978599997,328.9436655999889,329.42759829999704,329.42759829999704,329.42759829999704,329.42759829999704,329.4439474999963,329.72750039999664,329.72750039999664,329.72750039999664,329.8949617999897,m,0.4560044999961974,None,329.8953952000011,329.91082299999835,330.91138439999486,330.89514249999775,,,,,,,,,,,,,,,,,,,,,,,,,,,,,,,,,,,,,,,,,,,,,,,,,,,,,,,,,,,,,,,,,,,,,,,,,,,,,A_14,001,2024-11-30_12h34.22.487,untitled,2024.1.5,None,2024-11-30 12h34.38.875069 +0530,
triangle.png,you,1,M,,,,,,,,,22,3,91,1,,,,,,,,,330.91138439999486,,,,,,,,,,,,,,,,,,,,,,,,,,,,,,,,,,,,,,,,,,,,,,,,,,,,,,,,,,,,330.8955019999994,330.91138439999486,331.3951245999924,331.3951245999924,331.3951245999924,331.3951245999924,331.4117316999909,331.6951163999911,331.6951163999911,331.6951163999911,331.9292226999969,m,0.5289582000114024,None,331.9296544999961,331.9454907999898,332.94591929999297,332.9297297000012,,,,,,,,,,,,,,,,,,,,,,,,,,,,,,,,,,,,,,,,,,,,,,,,,,,,,,,,,,,,,,,,,,,,,,,,,,,,,A_14,001,2024-11-30_12h34.22.487,untitled,2024.1.5,None,2024-11-30 12h34.38.875069 +0530,
triangle.png,you,1,M,,,,,,,,,23,0,92,1,,,,,,,,,332.94591929999297,,,,,,,,,,,,,,,,,,,,,,,,,,,,,,,,,,,,,,,,,,,,,,,,,,,,,,,,,,,,332.93007869999565,332.94591929999297,333.4294482999976,333.4294482999976,333.4294482999976,333.4294482999976,333.4461939999892,333.7292460999888,333.7292460999888,333.7292460999888,333.9967658999958,m,0.5615846000000602,None,333.99719759999425,334.01271359999373,335.01341030000185,334.99716119999357,,,,,,,,,,,,,,,,,,,,,,,,,,,,,,,,,,,,,,,,,,,,,,,,,,,,,,,,,,,,,,,,,,,,,,,,,,,,,A_14,001,2024-11-30_12h34.22.487,untitled,2024.1.5,None,2024-11-30 12h34.38.875069 +0530,
square.png,you,0,Z,,,,,,,,,23,1,93,2,,,,,,,,,335.01341030000185,,,,,,,,,,,,,,,,,,,,,,,,,,,,,,,,,,,,,,,,,,,,,,,,,,,,,,,,,,,,334.9975216000021,335.01341030000185,335.4972374999925,335.4972374999925,335.4972374999925,335.4972374999925,335.514119799991,335.7973442999937,335.7973442999937,335.7973442999937,336.0312772999896,m,0.522265099993092,None,336.03170500000124,336.04729139999836,337.0479054999887,337.03149100000155,,,,,,,,,,,,,,,,,,,,,,,,,,,,,,,,,,,,,,,,,,,,,,,,,,,,,,,,,,,,,,,,,,,,,,,,,,,,,A_14,001,2024-11-30_12h34.22.487,untitled,2024.1.5,None,2024-11-30 12h34.38.875069 +0530,
triangle.png,stranger,0,Z,,,,,,,,,23,2,94,3,,,,,,,,,337.0479054999887,,,,,,,,,,,,,,,,,,,,,,,,,,,,,,,,,,,,,,,,,,,,,,,,,,,,,,,,,,,,337.031845599995,337.0479054999887,337.5316890999966,337.5316890999966,337.5316890999966,337.5316890999966,337.54822099999,337.83154719999584,337.83154719999584,337.83154719999584,338.33270449998963,z,0.7884693999949377,None,338.33313819998875,338.3485690999951,339.34919219999574,339.33295489999,,,,,,,,,,,,,,,,,,,,,,,,,,,,,,,,,,,,,,,,,,,,,,,,,,,,,,,,,,,,,,,,,,,,,,,,,,,,,A_14,001,2024-11-30_12h34.22.487,untitled,2024.1.5,None,2024-11-30 12h34.38.875069 +0530,
square.png,stranger,1,M,,,,,,,,,23,3,95,0,,,,,,,,,339.34919219999574,,,,,,,,,,,,,,,,,,,,,,,,,,,,,,,,,,,,,,,,,,,,,,,,,,,,,,,,,,,,339.33330399999977,339.34919219999574,339.8327608999971,339.8327608999971,339.8327608999971,339.8327608999971,339.84931039999356,340.1328993999923,340.1328993999923,340.1328993999923,340.617284699998,z,0.7780300000013085,None,340.6177098999906,340.63323419999506,341.63362439999764,341.6174078999902,,,,,,,,,,,,,,,,,,,,,,,,,,,,,,,,,,,,,,,,,,,,,,,,,,,,,,,,,,,,,,,,,,,,,,,,,,,,,A_14,001,2024-11-30_12h34.22.487,untitled,2024.1.5,None,2024-11-30 12h34.38.875069 +0530,
triangle.png,stranger,0,Z,,,,,,,,,24,0,96,3,,,,,,,,,341.63362439999764,,,,,,,,,,,,,,,,,,,,,,,,,,,,,,,,,,,,,,,,,,,,,,,,,,,,,,,,,,,,341.6177699999971,341.63362439999764,342.1173521000019,342.1173521000019,342.1173521000019,342.1173521000019,342.1338617000001,342.41746499999135,342.41746499999135,342.41746499999135,343.05185789999086,z,0.9305498000030639,None,343.05228999999235,343.06787339999573,344.0682247999939,344.05184129999543,,,,,,,,,,,,,,,,,,,,,,,,,,,,,,,,,,,,,,,,,,,,,,,,,,,,,,,,,,,,,,,,,,,,,,,,,,,,,A_14,001,2024-11-30_12h34.22.487,untitled,2024.1.5,None,2024-11-30 12h34.38.875069 +0530,
square.png,stranger,1,M,,,,,,,,,24,1,97,0,,,,,,,,,344.0682247999939,,,,,,,,,,,,,,,,,,,,,,,,,,,,,,,,,,,,,,,,,,,,,,,,,,,,,,,,,,,,344.0521965999942,344.0682247999939,344.55180219998874,344.55180219998874,344.55180219998874,344.55180219998874,344.5685817999911,344.8518846999941,344.8518846999941,344.8518846999941,345.2361724999937,m,0.668184599999222,None,345.23660199998994,345.2521148999949,346.25256880000234,346.23623450000014,,,,,,,,,,,,,,,,,,,,,,,,,,,,,,,,,,,,,,,,,,,,,,,,,,,,,,,,,,,,,,,,,,,,,,,,,,,,,A_14,001,2024-11-30_12h34.22.487,untitled,2024.1.5,None,2024-11-30 12h34.38.875069 +0530,
triangle.png,you,1,M,,,,,,,,,24,2,98,1,,,,,,,,,346.25256880000234,,,,,,,,,,,,,,,,,,,,,,,,,,,,,,,,,,,,,,,,,,,,,,,,,,,,,,,,,,,,346.23658499999146,346.25256880000234,346.7364744999941,346.7364744999941,346.7364744999941,346.7364744999941,346.7527934999962,347.0362502999924,347.0362502999924,347.0362502999924,347.3371824999922,m,0.591534799998044,None,347.3376377999957,347.3533020999894,348.3537740999891,348.33735249999154,,,,,,,,,,,,,,,,,,,,,,,,,,,,,,,,,,,,,,,,,,,,,,,,,,,,,,,,,,,,,,,,,,,,,,,,,,,,,A_14,001,2024-11-30_12h34.22.487,untitled,2024.1.5,None,2024-11-30 12h34.38.875069 +0530,
square.png,you,0,Z,,,,,,,,,24,3,99,2,,,,,,,,,348.3537740999891,,,,,,,,,,,,,,,,,,,,,,,,,,,,,,,,,,,,,,,,,,,,,,,,,,,,,,,,,,,,348.33770819999336,348.3537740999891,348.837443899989,348.837443899989,348.837443899989,348.837443899989,348.85403919999953,349.1374327999947,349.1374327999947,349.1374327999947,349.5048492999922,z,0.6586667999945348,None,349.50528149999445,349.5209160999948,350.5215498999896,350.50529099999403,,,,,,,,,,,,,,,,,,,,,,,,,,,,,,,,,,,,,,,,,,,,,,,,,,,,,,,,,,,,,,,,,,,,,,,,,,,,,A_14,001,2024-11-30_12h34.22.487,untitled,2024.1.5,None,2024-11-30 12h34.38.875069 +0530,
square.png,stranger,1,M,,,,,,,,,25,0,100,0,,,,,,,,,350.5215498999896,,,,,,,,,,,,,,,,,,,,,,,,,,,,,,,,,,,,,,,,,,,,,,,,,,,,,,,,,,,,350.5056477999897,350.5215498999896,351.0051528999902,351.0051528999902,351.0051528999902,351.0051528999902,351.0218363000022,351.3052621999959,351.3052621999959,351.3052621999959,351.9396909999923,z,0.9263066999992589,None,351.9401241000014,351.9553217999928,352.95617639999546,352.93967979999434,,,,,,,,,,,,,,,,,,,,,,,,,,,,,,,,,,,,,,,,,,,,,,,,,,,,,,,,,,,,,,,,,,,,,,,,,,,,,A_14,001,2024-11-30_12h34.22.487,untitled,2024.1.5,None,2024-11-30 12h34.38.875069 +0530,
triangle.png,you,1,M,,,,,,,,,25,1,101,1,,,,,,,,,352.95617639999546,,,,,,,,,,,,,,,,,,,,,,,,,,,,,,,,,,,,,,,,,,,,,,,,,,,,,,,,,,,,352.94003579999844,352.95617639999546,353.43969169999764,353.43969169999764,353.43969169999764,353.43969169999764,353.4563436000026,353.7397418999899,353.7397418999899,353.7397418999899,353.97395790000155,m,0.5204767999966862,None,353.97439139999915,353.9899990999984,354.99052059999667,354.9742819999956,,,,,,,,,,,,,,,,,,,,,,,,,,,,,,,,,,,,,,,,,,,,,,,,,,,,,,,,,,,,,,,,,,,,,,,,,,,,,A_14,001,2024-11-30_12h34.22.487,untitled,2024.1.5,None,2024-11-30 12h34.38.875069 +0530,
square.png,you,0,Z,,,,,,,,,25,2,102,2,,,,,,,,,354.99052059999667,,,,,,,,,,,,,,,,,,,,,,,,,,,,,,,,,,,,,,,,,,,,,,,,,,,,,,,,,,,,354.97463119999156,354.99052059999667,355.47406449999835,355.47406449999835,355.47406449999835,355.47406449999835,355.49082890000136,355.7741421999963,355.7741421999963,355.7741421999963,355.9751458999963,m,0.484710399992764,None,355.9755667999998,355.991102999993,356.9914865000028,356.9750161999982,,,,,,,,,,,,,,,,,,,,,,,,,,,,,,,,,,,,,,,,,,,,,,,,,,,,,,,,,,,,,,,,,,,,,,,,,,,,,A_14,001,2024-11-30_12h34.22.487,untitled,2024.1.5,None,2024-11-30 12h34.38.875069 +0530,
triangle.png,stranger,0,Z,,,,,,,,,25,3,103,3,,,,,,,,,356.9914865000028,,,,,,,,,,,,,,,,,,,,,,,,,,,,,,,,,,,,,,,,,,,,,,,,,,,,,,,,,,,,356.97536799999943,356.9914865000028,357.47515929999645,357.47515929999645,357.47515929999645,357.47515929999645,357.4918287999899,357.77497779999976,357.77497779999976,357.77497779999976,358.3765818999964,m,0.9002956999902381,None,358.3770167999901,358.3919928999967,359.3925770999922,359.37651019998884,,,,,,,,,,,,,,,,,,,,,,,,,,,,,,,,,,,,,,,,,,,,,,,,,,,,,,,,,,,,,,,,,,,,,,,,,,,,,A_14,001,2024-11-30_12h34.22.487,untitled,2024.1.5,None,2024-11-30 12h34.38.875069 +0530,
triangle.png,stranger,0,Z,,,,,,,,,26,0,104,3,,,,,,,,,359.3925770999922,,,,,,,,,,,,,,,,,,,,,,,,,,,,,,,,,,,,,,,,,,,,,,,,,,,,,,,,,,,,359.3768640999915,359.3925770999922,359.87636329999077,359.87636329999077,359.87636329999077,359.87636329999077,359.89304589999665,360.1765391999943,360.1765391999943,360.1765391999943,360.710794899991,z,0.826183500001207,None,360.7112202999997,360.72687439998845,361.72746259999985,361.7109133999911,,,,,,,,,,,,,,,,,,,,,,,,,,,,,,,,,,,,,,,,,,,,,,,,,,,,,,,,,,,,,,,,,,,,,,,,,,,,,A_14,001,2024-11-30_12h34.22.487,untitled,2024.1.5,None,2024-11-30 12h34.38.875069 +0530,
triangle.png,you,1,M,,,,,,,,,26,1,105,1,,,,,,,,,361.72746259999985,,,,,,,,,,,,,,,,,,,,,,,,,,,,,,,,,,,,,,,,,,,,,,,,,,,,,,,,,,,,361.7112624000001,361.72746259999985,362.2109601999982,362.2109601999982,362.2109601999982,362.2109601999982,362.2275998999976,362.51101489999564,362.51101489999564,362.51101489999564,363.028602099992,m,0.812931499996921,None,363.0290246999939,363.0447273000027,364.0451463999925,364.0288731999899,,,,,,,,,,,,,,,,,,,,,,,,,,,,,,,,,,,,,,,,,,,,,,,,,,,,,,,,,,,,,,,,,,,,,,,,,,,,,A_14,001,2024-11-30_12h34.22.487,untitled,2024.1.5,None,2024-11-30 12h34.38.875069 +0530,
square.png,stranger,1,M,,,,,,,,,26,2,106,0,,,,,,,,,364.0451463999925,,,,,,,,,,,,,,,,,,,,,,,,,,,,,,,,,,,,,,,,,,,,,,,,,,,,,,,,,,,,364.0292194999929,364.0451463999925,364.52859249999165,364.52859249999165,364.52859249999165,364.52859249999165,364.54549069999484,364.8288829999947,364.8288829999947,364.8288829999947,365.19615249999333,m,0.6518204000021797,None,365.19658839999465,365.21217389999947,366.212772400002,366.1965048999991,,,,,,,,,,,,,,,,,,,,,,,,,,,,,,,,,,,,,,,,,,,,,,,,,,,,,,,,,,,,,,,,,,,,,,,,,,,,,A_14,001,2024-11-30_12h34.22.487,untitled,2024.1.5,None,2024-11-30 12h34.38.875069 +0530,
square.png,you,0,Z,,,,,,,,,26,3,107,2,,,,,,,,,366.212772400002,,,,,,,,,,,,,,,,,,,,,,,,,,,,,,,,,,,,,,,,,,,,,,,,,,,,,,,,,,,,366.1968599999964,366.212772400002,366.69669329999306,366.69669329999306,366.69669329999306,366.69669329999306,366.71316859999206,366.9964891999989,366.9964891999989,366.9964891999989,367.36385470000096,m,0.6659332000126597,None,367.36429399999906,367.38014680000197,368.3806781000021,368.36426689999644,,,,,,,,,,,,,,,,,,,,,,,,,,,,,,,,,,,,,,,,,,,,,,,,,,,,,,,,,,,,,,,,,,,,,,,,,,,,,A_14,001,2024-11-30_12h34.22.487,untitled,2024.1.5,None,2024-11-30 12h34.38.875069 +0530,
triangle.png,you,1,M,,,,,,,,,27,0,108,1,,,,,,,,,368.3806781000021,,,,,,,,,,,,,,,,,,,,,,,,,,,,,,,,,,,,,,,,,,,,,,,,,,,,,,,,,,,,368.36461429999326,368.3806781000021,368.86441399999603,368.86441399999603,368.86441399999603,368.86441399999603,368.88103740000224,369.16437980000046,369.16437980000046,369.16437980000046,369.5650733999937,m,0.6918291000038153,None,369.5655039999983,369.5812919000018,370.5818123999925,370.5653806999908,,,,,,,,,,,,,,,,,,,,,,,,,,,,,,,,,,,,,,,,,,,,,,,,,,,,,,,,,,,,,,,,,,,,,,,,,,,,,A_14,001,2024-11-30_12h34.22.487,untitled,2024.1.5,None,2024-11-30 12h34.38.875069 +0530,
triangle.png,stranger,0,Z,,,,,,,,,27,1,109,3,,,,,,,,,370.5818123999925,,,,,,,,,,,,,,,,,,,,,,,,,,,,,,,,,,,,,,,,,,,,,,,,,,,,,,,,,,,,370.5657358999888,370.5818123999925,371.0655929999921,371.0655929999921,371.0655929999921,371.0655929999921,371.08205830000225,371.3656290999934,371.3656290999934,371.3656290999934,371.9663933999982,z,0.8898119999939809,None,371.9668183999893,371.9825952999963,372.9830413000018,372.9667941999942,,,,,,,,,,,,,,,,,,,,,,,,,,,,,,,,,,,,,,,,,,,,,,,,,,,,,,,,,,,,,,,,,,,,,,,,,,,,,A_14,001,2024-11-30_12h34.22.487,untitled,2024.1.5,None,2024-11-30 12h34.38.875069 +0530,
square.png,stranger,1,M,,,,,,,,,27,2,110,0,,,,,,,,,372.9830413000018,,,,,,,,,,,,,,,,,,,,,,,,,,,,,,,,,,,,,,,,,,,,,,,,,,,,,,,,,,,,372.9671551999927,372.9830413000018,373.46656499999517,373.46656499999517,373.46656499999517,373.46656499999517,373.483335500001,373.76669350000157,373.76669350000157,373.76669350000157,374.30091510000057,m,0.828731899993727,None,374.30135319998953,374.31681389998994,375.3175862999924,375.301092099995,,,,,,,,,,,,,,,,,,,,,,,,,,,,,,,,,,,,,,,,,,,,,,,,,,,,,,,,,,,,,,,,,,,,,,,,,,,,,A_14,001,2024-11-30_12h34.22.487,untitled,2024.1.5,None,2024-11-30 12h34.38.875069 +0530,
square.png,you,0,Z,,,,,,,,,27,3,111,2,,,,,,,,,375.3175862999924,,,,,,,,,,,,,,,,,,,,,,,,,,,,,,,,,,,,,,,,,,,,,,,,,,,,,,,,,,,,375.30144669998845,375.3175862999924,375.80121819999476,375.80121819999476,375.80121819999476,375.80121819999476,375.81766129999596,376.1011908999935,376.1011908999935,376.1011908999935,376.6354502999893,z,0.8308735000027809,None,376.6358765999903,376.65143119999266,377.6517817999993,377.6357283999969,,,,,,,,,,,,,,,,,,,,,,,,,,,,,,,,,,,,,,,,,,,,,,,,,,,,,,,,,,,,,,,,,,,,,,,,,,,,,A_14,001,2024-11-30_12h34.22.487,untitled,2024.1.5,None,2024-11-30 12h34.38.875069 +0530,
square.png,you,0,Z,,,,,,,,,28,0,112,2,,,,,,,,,377.6517817999993,,,,,,,,,,,,,,,,,,,,,,,,,,,,,,,,,,,,,,,,,,,,,,,,,,,,,,,,,,,,377.6360835999949,377.6517817999993,378.13589689999935,378.13589689999935,378.13589689999935,378.13589689999935,378.15224909999233,378.4355271999957,378.4355271999957,378.4355271999957,379.15339179999137,z,1.008131599999615,None,379.15382439999667,379.16950219999126,380.17001380000147,380.15392040000006,,,,,,,,,,,,,,,,,,,,,,,,,,,,,,,,,,,,,,,,,,,,,,,,,,,,,,,,,,,,,,,,,,,,,,,,,,,,,A_14,001,2024-11-30_12h34.22.487,untitled,2024.1.5,None,2024-11-30 12h34.38.875069 +0530,
triangle.png,stranger,0,Z,,,,,,,,,28,1,113,3,,,,,,,,,380.17001380000147,,,,,,,,,,,,,,,,,,,,,,,,,,,,,,,,,,,,,,,,,,,,,,,,,,,,,,,,,,,,380.1542667999893,380.17001380000147,380.65359439999156,380.65359439999156,380.65359439999156,380.65359439999156,380.67011659999844,380.9537868999905,380.9537868999905,380.9537868999905,381.33804339999915,m,0.6783771000045817,None,381.33846549999726,381.3540740000026,382.35442779998994,382.33827069999825,,,,,,,,,,,,,,,,,,,,,,,,,,,,,,,,,,,,,,,,,,,,,,,,,,,,,,,,,,,,,,,,,,,,,,,,,,,,,A_14,001,2024-11-30_12h34.22.487,untitled,2024.1.5,None,2024-11-30 12h34.38.875069 +0530,
triangle.png,you,1,M,,,,,,,,,28,2,114,1,,,,,,,,,382.35442779998994,,,,,,,,,,,,,,,,,,,,,,,,,,,,,,,,,,,,,,,,,,,,,,,,,,,,,,,,,,,,382.33862949999457,382.35442779998994,382.8380773999961,382.8380773999961,382.8380773999961,382.8380773999961,382.8548022999894,383.1379780999996,383.1379780999996,383.1379780999996,383.4394615999918,m,0.5965963000053307,None,383.43988179998996,383.45496789999015,384.45562249999784,384.43947549999575,,,,,,,,,,,,,,,,,,,,,,,,,,,,,,,,,,,,,,,,,,,,,,,,,,,,,,,,,,,,,,,,,,,,,,,,,,,,,A_14,001,2024-11-30_12h34.22.487,untitled,2024.1.5,None,2024-11-30 12h34.38.875069 +0530,
square.png,stranger,1,M,,,,,,,,,28,3,115,0,,,,,,,,,384.45562249999784,,,,,,,,,,,,,,,,,,,,,,,,,,,,,,,,,,,,,,,,,,,,,,,,,,,,,,,,,,,,384.4398285999923,384.45562249999784,384.95590249999077,384.95590249999077,384.95590249999077,384.95590249999077,384.95590249999077,385.2560031999892,385.2560031999892,385.2560031999892,385.9239554999949,m,0.9671920999971917,None,385.9243992999982,385.93951129999186,386.9400404999906,386.9238326999912,,,,,,,,,,,,,,,,,,,,,,,,,,,,,,,,,,,,,,,,,,,,,,,,,,,,,,,,,,,,,,,,,,,,,,,,,,,,,A_14,001,2024-11-30_12h34.22.487,untitled,2024.1.5,None,2024-11-30 12h34.38.875069 +0530,
triangle.png,you,1,M,,,,,,,,,29,0,116,1,,,,,,,,,386.9400404999906,,,,,,,,,,,,,,,,,,,,,,,,,,,,,,,,,,,,,,,,,,,,,,,,,,,,,,,,,,,,386.92418679999537,386.9400404999906,387.42380219999177,387.42380219999177,387.42380219999177,387.42380219999177,387.44029579999915,387.7239353999903,387.7239353999903,387.7239353999903,388.0580704000022,m,0.6239216000103625,None,388.05849369999487,388.07399859999714,389.0745978999912,389.05811879999237,,,,,,,,,,,,,,,,,,,,,,,,,,,,,,,,,,,,,,,,,,,,,,,,,,,,,,,,,,,,,,,,,,,,,,,,,,,,,A_14,001,2024-11-30_12h34.22.487,untitled,2024.1.5,None,2024-11-30 12h34.38.875069 +0530,
square.png,you,0,Z,,,,,,,,,29,1,117,2,,,,,,,,,389.0745978999912,,,,,,,,,,,,,,,,,,,,,,,,,,,,,,,,,,,,,,,,,,,,,,,,,,,,,,,,,,,,389.0584822999954,389.0745978999912,389.55818379999255,389.55818379999255,389.55818379999255,389.55818379999255,389.5747296999907,389.85827729999437,389.85827729999437,389.85827729999437,390.32586739999533,z,0.7618208999920171,None,390.32630089999293,390.3418623999896,391.3424139999988,391.3262312000006,,,,,,,,,,,,,,,,,,,,,,,,,,,,,,,,,,,,,,,,,,,,,,,,,,,,,,,,,,,,,,,,,,,,,,,,,,,,,A_14,001,2024-11-30_12h34.22.487,untitled,2024.1.5,None,2024-11-30 12h34.38.875069 +0530,
square.png,stranger,1,M,,,,,,,,,29,2,118,0,,,,,,,,,391.3424139999988,,,,,,,,,,,,,,,,,,,,,,,,,,,,,,,,,,,,,,,,,,,,,,,,,,,,,,,,,,,,391.3265895999939,391.3424139999988,391.82595610000135,391.82595610000135,391.82595610000135,391.82595610000135,391.84261870000046,392.1259957000002,392.1259957000002,392.1259957000002,392.4604485000018,m,0.6332117000129074,None,392.46087939999416,392.4764412999939,393.4769240000023,393.46062849999,,,,,,,,,,,,,,,,,,,,,,,,,,,,,,,,,,,,,,,,,,,,,,,,,,,,,,,,,,,,,,,,,,,,,,,,,,,,,A_14,001,2024-11-30_12h34.22.487,untitled,2024.1.5,None,2024-11-30 12h34.38.875069 +0530,
triangle.png,stranger,0,Z,,,,,,,,,29,3,119,3,,,,,,,,,393.4769240000023,,,,,,,,,,,,,,,,,,,,,,,,,,,,,,,,,,,,,,,,,,,,,,,,,,,,,,,,,,,,393.46098119999806,393.4769240000023,393.9605492999981,393.9605492999981,393.9605492999981,393.9605492999981,393.9770179999905,394.2605184999993,394.2605184999993,394.2605184999993,394.81135629999335,z,0.842882600001758,None,394.8118298999907,394.82753879998927,395.8278588999965,395.81182889999764,,,,,,,,,,,,,,,,,,,,,,,,,,,,,,,,,,,,,,,,,,,,,,,,,,,,,,,,,,,,,,,,,,,,,,,,,,,,,A_14,001,2024-11-30_12h34.22.487,untitled,2024.1.5,None,2024-11-30 12h34.38.875069 +0530,
triangle.png,stranger,0,Z,,,,,,,,,30,0,120,3,,,,,,,,,395.8278588999965,,,,,,,,,,,,,,,,,,,,,,,,,,,,,,,,,,,,,,,,,,,,,,,,,,,,,,,,,,,,395.8121811000019,395.8278588999965,396.3117726999917,396.3117726999917,396.3117726999917,396.3117726999917,396.32819010000094,396.6116675999947,396.6116675999947,396.6116675999947,397.0128055999958,z,0.6883885000133887,None,397.01323050000065,397.0285012999957,398.029149199996,398.01296880000154,,,,,,,,,,,,,,,,,,,,,,,,,,,,,,,,,,,,,,,,,,,,,,,,,,,,,,,,,,,,,,,,,,,,,,,,,,,,,A_14,001,2024-11-30_12h34.22.487,untitled,2024.1.5,None,2024-11-30 12h34.38.875069 +0530,
triangle.png,you,1,M,,,,,,,,,30,1,121,1,,,,,,,,,398.029149199996,,,,,,,,,,,,,,,,,,,,,,,,,,,,,,,,,,,,,,,,,,,,,,,,,,,,,,,,,,,,398.01331689998915,398.029149199996,398.5128476999962,398.5128476999962,398.5128476999962,398.5128476999962,398.52922499999113,398.8128632000007,398.8128632000007,398.8128632000007,399.1136273000011,m,0.5911819000029936,None,399.11406379999244,399.12950309998996,400.13021819999267,400.1137632000027,,,,,,,,,,,,,,,,,,,,,,,,,,,,,,,,,,,,,,,,,,,,,,,,,,,,,,,,,,,,,,,,,,,,,,,,,,,,,A_14,001,2024-11-30_12h34.22.487,untitled,2024.1.5,None,2024-11-30 12h34.38.875069 +0530,
square.png,you,0,Z,,,,,,,,,30,2,122,2,,,,,,,,,400.13021819999267,,,,,,,,,,,,,,,,,,,,,,,,,,,,,,,,,,,,,,,,,,,,,,,,,,,,,,,,,,,,400.1141169999901,400.13021819999267,400.6139150999952,400.6139150999952,400.6139150999952,400.6139150999952,400.63025429999107,400.91373439999006,400.91373439999006,400.91373439999006,401.28122749998874,m,0.6615786000038497,None,401.28166199999396,401.29750200000126,402.2979792999977,402.281585299992,,,,,,,,,,,,,,,,,,,,,,,,,,,,,,,,,,,,,,,,,,,,,,,,,,,,,,,,,,,,,,,,,,,,,,,,,,,,,A_14,001,2024-11-30_12h34.22.487,untitled,2024.1.5,None,2024-11-30 12h34.38.875069 +0530,
square.png,stranger,1,M,,,,,,,,,30,3,123,0,,,,,,,,,402.2979792999977,,,,,,,,,,,,,,,,,,,,,,,,,,,,,,,,,,,,,,,,,,,,,,,,,,,,,,,,,,,,402.2819409999938,402.2979792999977,402.78180989999964,402.78180989999964,402.78180989999964,402.78180989999964,402.79813679998915,403.08173419999366,403.08173419999366,403.08173419999366,403.43252299999585,m,0.6412908000056632,None,403.4329706999997,403.4484564000013,404.448851299996,404.4328029999888,,,,,,,,,,,,,,,,,,,,,,,,,,,,,,,,,,,,,,,,,,,,,,,,,,,,,,,,,,,,,,,,,,,,,,,,,,,,,A_14,001,2024-11-30_12h34.22.487,untitled,2024.1.5,None,2024-11-30 12h34.38.875069 +0530,
triangle.png,stranger,0,Z,,,,,,,,,31,0,124,3,,,,,,,,,404.448851299996,,,,,,,,,,,,,,,,,,,,,,,,,,,,,,,,,,,,,,,,,,,,,,,,,,,,,,,,,,,,404.4331622000027,404.448851299996,404.932787999991,404.932787999991,404.932787999991,404.932787999991,404.9494590999966,405.2327845999971,405.2327845999971,405.2327845999971,405.7502717000025,z,0.8028365000063786,None,405.75071310000203,405.76638580000144,406.7668840999977,406.7506949999952,,,,,,,,,,,,,,,,,,,,,,,,,,,,,,,,,,,,,,,,,,,,,,,,,,,,,,,,,,,,,,,,,,,,,,,,,,,,,A_14,001,2024-11-30_12h34.22.487,untitled,2024.1.5,None,2024-11-30 12h34.38.875069 +0530,
square.png,you,0,Z,,,,,,,,,31,1,125,2,,,,,,,,,406.7668840999977,,,,,,,,,,,,,,,,,,,,,,,,,,,,,,,,,,,,,,,,,,,,,,,,,,,,,,,,,,,,406.7510476000025,406.7668840999977,407.2506926999922,407.2506926999922,407.2506926999922,407.2506926999922,407.267353999996,407.55051580000145,407.55051580000145,407.55051580000145,408.1851361000008,m,0.9279042999987723,None,408.1856056999968,408.2008982999978,409.2015409000014,409.1851255999936,,,,,,,,,,,,,,,,,,,,,,,,,,,,,,,,,,,,,,,,,,,,,,,,,,,,,,,,,,,,,,,,,,,,,,,,,,,,,A_14,001,2024-11-30_12h34.22.487,untitled,2024.1.5,None,2024-11-30 12h34.38.875069 +0530,
square.png,stranger,1,M,,,,,,,,,31,2,126,0,,,,,,,,,409.2015409000014,,,,,,,,,,,,,,,,,,,,,,,,,,,,,,,,,,,,,,,,,,,,,,,,,,,,,,,,,,,,409.18547840000247,409.2015409000014,409.6852845999965,409.6852845999965,409.6852845999965,409.6852845999965,409.7018220000027,409.9851755999989,409.9851755999989,409.9851755999989,410.5195507000026,z,0.8266379999986384,None,410.51997019999544,410.53550309999264,411.5358137000003,411.5196977000014,,,,,,,,,,,,,,,,,,,,,,,,,,,,,,,,,,,,,,,,,,,,,,,,,,,,,,,,,,,,,,,,,,,,,,,,,,,,,A_14,001,2024-11-30_12h34.22.487,untitled,2024.1.5,None,2024-11-30 12h34.38.875069 +0530,
triangle.png,you,1,M,,,,,,,,,31,3,127,1,,,,,,,,,411.5358137000003,,,,,,,,,,,,,,,,,,,,,,,,,,,,,,,,,,,,,,,,,,,,,,,,,,,,,,,,,,,,411.5200533999887,411.5358137000003,412.0197756999987,412.0197756999987,412.0197756999987,412.0197756999987,412.0363628999912,412.3196394999977,412.3196394999977,412.3196394999977,412.970834199994,m,0.9353828000021167,None,412.971269799993,412.9866475000017,413.9873053999909,413.9708243999921,,,,,,,,,,,,,,,,,,,,,,,,,,,,,,,,,,,,,,,,,,,,,,,,,,,,,,,,,,,,,,,,,,,,,,,,,,,,,A_14,001,2024-11-30_12h34.22.487,untitled,2024.1.5,None,2024-11-30 12h34.38.875069 +0530,
square.png,you,0,Z,,,,,,,,,32,0,128,2,,,,,,,,,413.9873053999909,,,,,,,,,,,,,,,,,,,,,,,,,,,,,,,,,,,,,,,,,,,,,,,,,,,,,,,,,,,,413.9711776999902,413.9873053999909,414.4710841999913,414.4710841999913,414.4710841999913,414.4710841999913,414.4874159000028,414.7710122999997,414.7710122999997,414.7710122999997,415.25513710000087,m,0.7807850000099279,None,415.2555697999924,415.2713928000012,416.2717105999909,416.255530800001,,,,,,,,,,,,,,,,,,,,,,,,,,,,,,,,,,,,,,,,,,,,,,,,,,,,,,,,,,,,,,,,,,,,,,,,,,,,,A_14,001,2024-11-30_12h34.22.487,untitled,2024.1.5,None,2024-11-30 12h34.38.875069 +0530,
triangle.png,stranger,0,Z,,,,,,,,,32,1,129,3,,,,,,,,,416.2717105999909,,,,,,,,,,,,,,,,,,,,,,,,,,,,,,,,,,,,,,,,,,,,,,,,,,,,,,,,,,,,416.2558829999907,416.2717105999909,416.75547219999135,416.75547219999135,416.75547219999135,416.75547219999135,416.772032199995,417.055600599997,417.055600599997,417.055600599997,417.62318779999623,z,0.8525243000040064,None,417.6236218999984,417.6391745000001,418.63957749999827,418.6233591999917,,,,,,,,,,,,,,,,,,,,,,,,,,,,,,,,,,,,,,,,,,,,,,,,,,,,,,,,,,,,,,,,,,,,,,,,,,,,,A_14,001,2024-11-30_12h34.22.487,untitled,2024.1.5,None,2024-11-30 12h34.38.875069 +0530,
square.png,stranger,1,M,,,,,,,,,32,2,130,0,,,,,,,,,418.63957749999827,,,,,,,,,,,,,,,,,,,,,,,,,,,,,,,,,,,,,,,,,,,,,,,,,,,,,,,,,,,,418.62372160000086,418.63957749999827,419.1232295999944,419.1232295999944,419.1232295999944,419.1232295999944,419.1398215999943,419.4233705999941,419.4233705999941,419.4233705999941,419.5741629999975,m,0.4407126000005519,None,419.574595099999,419.5901632999885,420.59046199999284,420.5745256999944,,,,,,,,,,,,,,,,,,,,,,,,,,,,,,,,,,,,,,,,,,,,,,,,,,,,,,,,,,,,,,,,,,,,,,,,,,,,,A_14,001,2024-11-30_12h34.22.487,untitled,2024.1.5,None,2024-11-30 12h34.38.875069 +0530,
triangle.png,you,1,M,,,,,,,,,32,3,131,1,,,,,,,,,420.59046199999284,,,,,,,,,,,,,,,,,,,,,,,,,,,,,,,,,,,,,,,,,,,,,,,,,,,,,,,,,,,,420.57487699999183,420.59046199999284,421.07431019999785,421.07431019999785,421.07431019999785,421.07431019999785,421.09083109999483,421.3743195999996,421.3743195999996,421.3743195999996,421.69194039999275,m,0.6087668999971356,None,421.69236639999144,421.7078814999986,422.7082614999963,422.6921591999999,,,,,,,,,,,,,,,,,,,,,,,,,,,,,,,,,,,,,,,,,,,,,,,,,,,,,,,,,,,,,,,,,,,,,,,,,,,,,A_14,001,2024-11-30_12h34.22.487,untitled,2024.1.5,None,2024-11-30 12h34.38.875069 +0530,
triangle.png,stranger,0,Z,,,,,,,,,33,0,132,3,,,,,,,,,422.7082614999963,,,,,,,,,,,,,,,,,,,,,,,,,,,,,,,,,,,,,,,,,,,,,,,,,,,,,,,,,,,,422.6925110000011,422.7082614999963,423.19192810000095,423.19192810000095,423.19192810000095,423.19192810000095,423.20893680000154,423.4921966999973,423.4921966999973,423.4921966999973,423.7262524999969,m,0.5235297999897739,None,423.72668399999384,423.74225949999527,424.74258929998905,424.72664280000026,,,,,,,,,,,,,,,,,,,,,,,,,,,,,,,,,,,,,,,,,,,,,,,,,,,,,,,,,,,,,,,,,,,,,,,,,,,,,A_14,001,2024-11-30_12h34.22.487,untitled,2024.1.5,None,2024-11-30 12h34.38.875069 +0530,
square.png,you,0,Z,,,,,,,,,33,1,133,2,,,,,,,,,424.74258929998905,,,,,,,,,,,,,,,,,,,,,,,,,,,,,,,,,,,,,,,,,,,,,,,,,,,,,,,,,,,,424.72701170000073,424.74258929998905,425.22639280000294,425.22639280000294,425.22639280000294,425.22639280000294,425.24288739998883,425.5262956999941,425.5262956999941,425.5262956999941,425.89384789999167,m,0.657660400000168,None,425.8942762999941,425.9100451999984,426.9104207999917,426.8942850000021,,,,,,,,,,,,,,,,,,,,,,,,,,,,,,,,,,,,,,,,,,,,,,,,,,,,,,,,,,,,,,,,,,,,,,,,,,,,,A_14,001,2024-11-30_12h34.22.487,untitled,2024.1.5,None,2024-11-30 12h34.38.875069 +0530,
triangle.png,you,1,M,,,,,,,,,33,2,134,1,,,,,,,,,426.9104207999917,,,,,,,,,,,,,,,,,,,,,,,,,,,,,,,,,,,,,,,,,,,,,,,,,,,,,,,,,,,,426.89464079999016,426.9104207999917,427.3941039999918,427.3941039999918,427.3941039999918,427.3941039999918,427.41085790000216,427.69418120000046,427.69418120000046,427.69418120000046,427.9449953000003,m,0.5366712999966694,None,427.9454298999917,427.9610363999964,428.9615216999955,428.9453280000016,,,,,,,,,,,,,,,,,,,,,,,,,,,,,,,,,,,,,,,,,,,,,,,,,,,,,,,,,,,,,,,,,,,,,,,,,,,,,A_14,001,2024-11-30_12h34.22.487,untitled,2024.1.5,None,2024-11-30 12h34.38.875069 +0530,
square.png,stranger,1,M,,,,,,,,,33,3,135,0,,,,,,,,,428.9615216999955,,,,,,,,,,,,,,,,,,,,,,,,,,,,,,,,,,,,,,,,,,,,,,,,,,,,,,,,,,,,428.94568699999945,428.9615216999955,429.4454343999969,429.4454343999969,429.4454343999969,429.4454343999969,429.46181739999156,429.74513299998944,429.74513299998944,429.74513299998944,430.0293584000028,m,0.5742068999970797,None,430.02978240000084,430.04545900000085,431.0458110999898,431.0297417999973,,,,,,,,,,,,,,,,,,,,,,,,,,,,,,,,,,,,,,,,,,,,,,,,,,,,,,,,,,,,,,,,,,,,,,,,,,,,,A_14,001,2024-11-30_12h34.22.487,untitled,2024.1.5,None,2024-11-30 12h34.38.875069 +0530,
triangle.png,you,1,M,,,,,,,,,34,0,136,1,,,,,,,,,431.0458110999898,,,,,,,,,,,,,,,,,,,,,,,,,,,,,,,,,,,,,,,,,,,,,,,,,,,,,,,,,,,,431.03009469999233,431.0458110999898,431.52968779999355,431.52968779999355,431.52968779999355,431.52968779999355,431.5463571,431.8295722999901,431.8295722999901,431.8295722999901,432.2472321999958,m,0.7135682999942219,None,432.2476638999942,432.26331499998923,433.26361689998885,433.2473556999903,,,,,,,,,,,,,,,,,,,,,,,,,,,,,,,,,,,,,,,,,,,,,,,,,,,,,,,,,,,,,,,,,,,,,,,,,,,,,A_14,001,2024-11-30_12h34.22.487,untitled,2024.1.5,None,2024-11-30 12h34.38.875069 +0530,
square.png,stranger,1,M,,,,,,,,,34,1,137,0,,,,,,,,,433.26361689998885,,,,,,,,,,,,,,,,,,,,,,,,,,,,,,,,,,,,,,,,,,,,,,,,,,,,,,,,,,,,433.2477085999999,433.26361689998885,433.7474312999984,433.7474312999984,433.7474312999984,433.7474312999984,433.7643296000024,434.0475812999939,434.0475812999939,434.0475812999939,434.39825309999287,m,0.6397988999960944,None,434.3986892999965,434.4144559999986,435.41483699998935,435.3984927999991,,,,,,,,,,,,,,,,,,,,,,,,,,,,,,,,,,,,,,,,,,,,,,,,,,,,,,,,,,,,,,,,,,,,,,,,,,,,,A_14,001,2024-11-30_12h34.22.487,untitled,2024.1.5,None,2024-11-30 12h34.38.875069 +0530,
triangle.png,stranger,0,Z,,,,,,,,,34,2,138,3,,,,,,,,,435.41483699998935,,,,,,,,,,,,,,,,,,,,,,,,,,,,,,,,,,,,,,,,,,,,,,,,,,,,,,,,,,,,435.39884419999726,435.41483699998935,435.898515199995,435.898515199995,435.898515199995,435.898515199995,435.915241900002,436.1985047999915,436.1985047999915,436.1985047999915,436.66611359998933,z,0.752033400000073,None,436.66654059999564,436.6820997999894,437.68253249999543,437.66647149999335,,,,,,,,,,,,,,,,,,,,,,,,,,,,,,,,,,,,,,,,,,,,,,,,,,,,,,,,,,,,,,,,,,,,,,,,,,,,,A_14,001,2024-11-30_12h34.22.487,untitled,2024.1.5,None,2024-11-30 12h34.38.875069 +0530,
