stimulus,label,is_match,shouldpress,stimulus_2,label_2,is_match_2,shouldpress_2,p_trials.thisRepN,p_trials.thisTrialN,p_trials.thisN,p_trials.thisIndex,trials.thisRepN,trials.thisTrialN,trials.thisN,trials.thisIndex,p_trials_2.thisRepN,p_trials_2.thisTrialN,p_trials_2.thisN,p_trials_2.thisIndex,trials_2.thisRepN,trials_2.thisTrialN,trials_2.thisN,trials_2.thisIndex,thisRow.t,notes,Intruduction.started,text_3.started,key_resp_2.started,Intruduction.stopped,key_resp_2.keys,key_resp_2.rt,key_resp_2.duration,self_other_instructions.started,text_4.started,key_resp_3.started,self_other_instructions.stopped,key_resp_3.keys,key_resp_3.rt,key_resp_3.duration,self_other_info.started,square_image.started,triangle_image.started,self_label.started,other_label.started,key_resp_4.started,text_5.started,self_other_info.stopped,key_resp_4.keys,key_resp_4.rt,key_resp_4.duration,self_other_starting_2.started,text_6.started,key_resp_5.started,self_other_starting_2.stopped,key_resp_5.keys,key_resp_5.rt,key_resp_5.duration,practice1.started,p_fication.started,p_fixation_3.started,p_text.started,key_resp_p.started,p_image.started,p_fication.stopped,p_fixation_3.stopped,p_text.stopped,p_image.stopped,practice1.stopped,key_resp_p.keys,key_resp_p.rt,key_resp_p.duration,p_feedback.started,text_15.started,text_15.stopped,p_feedback.stopped,key_resp_p.stopped,start2.started,start_2.started,key_resp_11.started,start2.stopped,key_resp_11.keys,key_resp_11.rt,key_resp_11.duration,trial.started,fixation.started,fixation_3.started,text.started,key_resp.started,image.started,fixation.stopped,fixation_3.stopped,text.stopped,image.stopped,trial.stopped,key_resp.keys,key_resp.rt,key_resp.duration,feedback.started,text_2.started,text_2.stopped,feedback.stopped,key_resp.stopped,break_3.started,text_13.started,text_14.started,key_resp_10.started,text_13.stopped,break_3.stopped,key_resp_10.keys,key_resp_10.rt,key_resp_10.duration,self_other_instructions_2.started,text_10.started,key_resp_7.started,self_other_instructions_2.stopped,key_resp_7.keys,key_resp_7.rt,key_resp_7.duration,self_other_intro_2.started,circle_image.started,diamond_image.started,Disgusting_self_lable.started,Desirable_self_lable.started,key_resp_8.started,text_11.started,self_other_intro_2.stopped,key_resp_8.keys,key_resp_8.rt,key_resp_8.duration,self_other_starting_3.started,text_12.started,key_resp_9.started,self_other_starting_3.stopped,key_resp_9.keys,key_resp_9.rt,key_resp_9.duration,practice2.started,p_fixation_2.started,p_fixation_4.started,p_text_8.started,key_resp_6_p.started,p_image_2.started,p_fixation_2.stopped,p_fixation_4.stopped,p_text_8.stopped,p_image_2.stopped,practice2.stopped,key_resp_6_p.keys,key_resp_6_p.rt,key_resp_6_p.duration,feedback_2_p.started,text_16.started,text_16.stopped,feedback_2_p.stopped,key_resp_6_p.stopped,trial_2.started,fixation_2.started,fixation_4.started,text_8.started,key_resp_6.started,image_2.started,fixation_2.stopped,fixation_4.stopped,text_8.stopped,image_2.stopped,trial_2.stopped,key_resp_6.keys,key_resp_6.rt,key_resp_6.duration,feedback_2.started,text_9.started,text_9.stopped,feedback_2.stopped,key_resp_6.stopped,Thank_you.started,text_7.started,text_7.stopped,Thank_you.stopped,participant,session,date,expName,psychopyVersion,frameRate,expStart,
,,,,,,,,,,,,,,,,,,,,,,,,,,0.0026830999995581806,0.006467900006100535,0.006467900006100535,3.3290934000106063,space,3.313533799999277,None,,,,,,,,,,,,,,,,,,,,,,,,,,,,,,,,,,,,,,,,,,,,,,,,,,,,,,,,,,,,,,,,,,,,,,,,,,,,,,,,,,,,,,,,,,,,,,,,,,,,,,,,,,,,,,,,,,,,,,,,,,,,,,,,,,,,,,,,,,,,,,,,,,,A_15,001,2024-11-30_14h41.40.932,untitled,2024.1.5,None,2024-11-30 14h41.53.679228 +0530,
,,,,,,,,,,,,,,,,,,,,,,,,,,,,,,,,,3.3291177000064636,3.343378000005032,3.343378000005032,23.421045200011577,space,20.061336600003415,None,,,,,,,,,,,,,,,,,,,,,,,,,,,,,,,,,,,,,,,,,,,,,,,,,,,,,,,,,,,,,,,,,,,,,,,,,,,,,,,,,,,,,,,,,,,,,,,,,,,,,,,,,,,,,,,,,,,,,,,,,,,,,,,,,,,,,,,,,,,,A_15,001,2024-11-30_14h41.40.932,untitled,2024.1.5,None,2024-11-30 14h41.53.679228 +0530,
,,,,,,,,,,,,,,,,,,,,,,,,,,,,,,,,,,,,,,,,23.42107140000735,23.45457480000914,23.45457480000914,23.45457480000914,23.45457480000914,23.45457480000914,23.45457480000914,111.86541540001053,space,88.40503130000434,None,,,,,,,,,,,,,,,,,,,,,,,,,,,,,,,,,,,,,,,,,,,,,,,,,,,,,,,,,,,,,,,,,,,,,,,,,,,,,,,,,,,,,,,,,,,,,,,,,,,,,,,,,,,,,,,,,,,,,,,,,,,,,,,,,A_15,001,2024-11-30_14h41.40.932,untitled,2024.1.5,None,2024-11-30 14h41.53.679228 +0530,
,,,,,,,,,,,,,,,,,,,,,,,,,,,,,,,,,,,,,,,,,,,,,,,,,,,111.86544720000529,111.88137760000245,111.88137760000245,118.2355244000064,space,6.339635800002725,None,,,,,,,,,,,,,,,,,,,,,,,,,,,,,,,,,,,,,,,,,,,,,,,,,,,,,,,,,,,,,,,,,,,,,,,,,,,,,,,,,,,,,,,,,,,,,,,,,,,,,,,,,,,,,,,,,,,,,,,,,,A_15,001,2024-11-30_14h41.40.932,untitled,2024.1.5,None,2024-11-30 14h41.53.679228 +0530,
triangle.png,you,1,M,,,,,0,0,0,1,,,,,,,,,,,,,118.25266680000641,,,,,,,,,,,,,,,,,,,,,,,,,,,,,,,,,,118.24165630000061,118.25266680000641,118.75095370000054,118.75095370000054,118.75095370000054,118.75095370000054,118.7679705000046,119.05106140000862,119.05106140000862,119.05106140000862,119.65239160000056,z,0.900020900007803,None,119.65276750001067,119.66827449999982,120.66859180000029,120.65255860000616,,,,,,,,,,,,,,,,,,,,,,,,,,,,,,,,,,,,,,,,,,,,,,,,,,,,,,,,,,,,,,,,,,,,,,,,,,,,,,,,,,,,,,,,,,,,,,,,,,,,,,,,A_15,001,2024-11-30_14h41.40.932,untitled,2024.1.5,None,2024-11-30 14h41.53.679228 +0530,
square.png,stranger,1,M,,,,,0,1,1,0,,,,,,,,,,,,,120.66859180000029,,,,,,,,,,,,,,,,,,,,,,,,,,,,,,,,,,120.6527894000028,120.66859180000029,121.15242410000064,121.15242410000064,121.15242410000064,121.15242410000064,121.16909330000635,121.45256480001262,121.45256480001262,121.45256480001262,121.5699830000085,m,0.41592970000056084,None,121.5702225999994,121.58597620000364,122.58656950001023,122.57029110001167,,,,,,,,,,,,,,,,,,,,,,,,,,,,,,,,,,,,,,,,,,,,,,,,,,,,,,,,,,,,,,,,,,,,,,,,,,,,,,,,,,,,,,,,,,,,,,,,,,,,,,,,A_15,001,2024-11-30_14h41.40.932,untitled,2024.1.5,None,2024-11-30 14h41.53.679228 +0530,
square.png,you,0,Z,,,,,0,2,2,2,,,,,,,,,,,,,122.58656950001023,,,,,,,,,,,,,,,,,,,,,,,,,,,,,,,,,,122.5705173000024,122.58656950001023,123.06996860000072,123.06996860000072,123.06996860000072,123.06996860000072,123.08657790000143,123.37011650000932,123.37011650000932,123.37011650000932,123.57101660000626,m,0.4981181000039214,None,123.5712601000123,123.58703650000098,124.58754990001034,124.57100000001083,,,,,,,,,,,,,,,,,,,,,,,,,,,,,,,,,,,,,,,,,,,,,,,,,,,,,,,,,,,,,,,,,,,,,,,,,,,,,,,,,,,,,,,,,,,,,,,,,,,,,,,,A_15,001,2024-11-30_14h41.40.932,untitled,2024.1.5,None,2024-11-30 14h41.53.679228 +0530,
triangle.png,stranger,0,Z,,,,,0,3,3,3,,,,,,,,,,,,,124.58754990001034,,,,,,,,,,,,,,,,,,,,,,,,,,,,,,,,,,124.57123050000519,124.58754990001034,125.07101770000008,125.07101770000008,125.07101770000008,125.07101770000008,125.08770129999903,125.37101719999919,125.37101719999919,125.37101719999919,125.60516620000999,m,0.5327800000086427,None,125.60540660000697,125.62130620000244,126.62182900001062,126.60548600000038,,,,,,,,,,,,,,,,,,,,,,,,,,,,,,,,,,,,,,,,,,,,,,,,,,,,,,,,,,,,,,,,,,,,,,,,,,,,,,,,,,,,,,,,,,,,,,,,,,,,,,,,A_15,001,2024-11-30_14h41.40.932,untitled,2024.1.5,None,2024-11-30 14h41.53.679228 +0530,
square.png,stranger,1,M,,,,,1,0,4,0,,,,,,,,,,,,,126.62182900001062,,,,,,,,,,,,,,,,,,,,,,,,,,,,,,,,,,126.60571410000557,126.62182900001062,127.10546750000503,127.10546750000503,127.10546750000503,127.10546750000503,127.12208320001082,127.40536780000548,127.40536780000548,127.40536780000548,128.00647460001346,m,0.8871681000018725,None,128.00671660000808,128.02251910000632,129.0232044000004,129.00672230000782,,,,,,,,,,,,,,,,,,,,,,,,,,,,,,,,,,,,,,,,,,,,,,,,,,,,,,,,,,,,,,,,,,,,,,,,,,,,,,,,,,,,,,,,,,,,,,,,,,,,,,,,A_15,001,2024-11-30_14h41.40.932,untitled,2024.1.5,None,2024-11-30 14h41.53.679228 +0530,
triangle.png,stranger,0,Z,,,,,1,1,5,3,,,,,,,,,,,,,129.0232044000004,,,,,,,,,,,,,,,,,,,,,,,,,,,,,,,,,,129.00695560000895,129.0232044000004,129.5065556000045,129.5065556000045,129.5065556000045,129.5065556000045,129.52357530000154,129.8066392000037,129.8066392000037,129.8066392000037,129.8407683000114,z,0.33253830000467133,None,129.84100710001076,129.85688410000876,130.8574321000051,130.84090720000677,,,,,,,,,,,,,,,,,,,,,,,,,,,,,,,,,,,,,,,,,,,,,,,,,,,,,,,,,,,,,,,,,,,,,,,,,,,,,,,,,,,,,,,,,,,,,,,,,,,,,,,,A_15,001,2024-11-30_14h41.40.932,untitled,2024.1.5,None,2024-11-30 14h41.53.679228 +0530,
square.png,you,0,Z,,,,,1,2,6,2,,,,,,,,,,,,,130.8574321000051,,,,,,,,,,,,,,,,,,,,,,,,,,,,,,,,,,130.8411300000007,130.8574321000051,131.34108080000442,131.34108080000442,131.34108080000442,131.34108080000442,131.3575419000117,131.64102500000445,131.64102500000445,131.64102500000445,132.0755235000106,m,0.7297725999960676,None,132.0757663000113,132.09126359999937,133.09183340000163,133.07549630000722,,,,,,,,,,,,,,,,,,,,,,,,,,,,,,,,,,,,,,,,,,,,,,,,,,,,,,,,,,,,,,,,,,,,,,,,,,,,,,,,,,,,,,,,,,,,,,,,,,,,,,,,A_15,001,2024-11-30_14h41.40.932,untitled,2024.1.5,None,2024-11-30 14h41.53.679228 +0530,
triangle.png,you,1,M,,,,,1,3,7,1,,,,,,,,,,,,,133.09183340000163,,,,,,,,,,,,,,,,,,,,,,,,,,,,,,,,,,133.07572400000936,133.09183340000163,133.5756015000079,133.5756015000079,133.5756015000079,133.5756015000079,133.59200350000174,133.87555290000455,133.87555290000455,133.87555290000455,134.02638720000687,z,0.43919659999664873,None,134.02663040001062,134.042202800003,135.0427805000072,135.02660270000342,,,,,,,,,,,,,,,,,,,,,,,,,,,,,,,,,,,,,,,,,,,,,,,,,,,,,,,,,,,,,,,,,,,,,,,,,,,,,,,,,,,,,,,,,,,,,,,,,,,,,,,,A_15,001,2024-11-30_14h41.40.932,untitled,2024.1.5,None,2024-11-30 14h41.53.679228 +0530,
triangle.png,you,1,M,,,,,2,0,8,1,,,,,,,,,,,,,135.0427805000072,,,,,,,,,,,,,,,,,,,,,,,,,,,,,,,,,,135.0268262000027,135.0427805000072,135.52664340000774,135.52664340000774,135.52664340000774,135.52664340000774,135.5429945000069,135.82642720000877,135.82642720000877,135.82642720000877,136.1605586000078,z,0.6327214000048116,None,136.16080850000435,136.1765260000102,137.17732890001207,137.16085900001053,,,,,,,,,,,,,,,,,,,,,,,,,,,,,,,,,,,,,,,,,,,,,,,,,,,,,,,,,,,,,,,,,,,,,,,,,,,,,,,,,,,,,,,,,,,,,,,,,,,,,,,,A_15,001,2024-11-30_14h41.40.932,untitled,2024.1.5,None,2024-11-30 14h41.53.679228 +0530,
square.png,you,0,Z,,,,,2,1,9,2,,,,,,,,,,,,,137.17732890001207,,,,,,,,,,,,,,,,,,,,,,,,,,,,,,,,,,137.1610856000043,137.17732890001207,137.66095889999997,137.66095889999997,137.66095889999997,137.66095889999997,137.67758290001075,137.9611472000106,137.9611472000106,137.9611472000106,138.74488779999956,None,,,138.74501969999983,138.76116550000734,139.76187530001334,139.74558740000066,138.76116550000734,,,,,,,,,,,,,,,,,,,,,,,,,,,,,,,,,,,,,,,,,,,,,,,,,,,,,,,,,,,,,,,,,,,,,,,,,,,,,,,,,,,,,,,,,,,,,,,,,,,,,,,A_15,001,2024-11-30_14h41.40.932,untitled,2024.1.5,None,2024-11-30 14h41.53.679228 +0530,
square.png,stranger,1,M,,,,,2,2,10,0,,,,,,,,,,,,,139.76187530001334,,,,,,,,,,,,,,,,,,,,,,,,,,,,,,,,,,139.74581800001033,139.76187530001334,140.2623583000095,140.2623583000095,140.2623583000095,140.2623583000095,140.2623583000095,140.5625216000044,140.5625216000044,140.5625216000044,141.16334500000812,z,0.8973659000039333,None,141.16358480000054,141.17928490000486,142.17964230000507,142.16348690001178,,,,,,,,,,,,,,,,,,,,,,,,,,,,,,,,,,,,,,,,,,,,,,,,,,,,,,,,,,,,,,,,,,,,,,,,,,,,,,,,,,,,,,,,,,,,,,,,,,,,,,,,A_15,001,2024-11-30_14h41.40.932,untitled,2024.1.5,None,2024-11-30 14h41.53.679228 +0530,
triangle.png,stranger,0,Z,,,,,2,3,11,3,,,,,,,,,,,,,142.17964230000507,,,,,,,,,,,,,,,,,,,,,,,,,,,,,,,,,,142.16371340000478,142.17964230000507,142.66345520000323,142.66345520000323,142.66345520000323,142.66345520000323,142.67996560000756,142.96349960000953,142.96349960000953,142.96349960000953,143.28120100000524,m,0.6041432000056375,None,143.2814395000023,143.29693140000745,144.29758020000008,144.28147400000307,,,,,,,,,,,,,,,,,,,,,,,,,,,,,,,,,,,,,,,,,,,,,,,,,,,,,,,,,,,,,,,,,,,,,,,,,,,,,,,,,,,,,,,,,,,,,,,,,,,,,,,,A_15,001,2024-11-30_14h41.40.932,untitled,2024.1.5,None,2024-11-30 14h41.53.679228 +0530,
triangle.png,you,1,M,,,,,3,0,12,1,,,,,,,,,,,,,144.29758020000008,,,,,,,,,,,,,,,,,,,,,,,,,,,,,,,,,,144.28170070001215,144.29758020000008,144.78108450000582,144.78108450000582,144.78108450000582,144.78108450000582,144.79755850000947,145.08118860000104,145.08118860000104,145.08118860000104,145.5654416000034,m,0.773688499990385,None,145.56568150001112,145.58158019999973,146.5819857000024,146.5658953000093,,,,,,,,,,,,,,,,,,,,,,,,,,,,,,,,,,,,,,,,,,,,,,,,,,,,,,,,,,,,,,,,,,,,,,,,,,,,,,,,,,,,,,,,,,,,,,,,,,,,,,,,A_15,001,2024-11-30_14h41.40.932,untitled,2024.1.5,None,2024-11-30 14h41.53.679228 +0530,
square.png,you,0,Z,,,,,3,1,13,2,,,,,,,,,,,,,146.5819857000024,,,,,,,,,,,,,,,,,,,,,,,,,,,,,,,,,,146.56612050000695,146.5819857000024,147.06583210000827,147.06583210000827,147.06583210000827,147.06583210000827,147.0824156000017,147.36580330001016,147.36580330001016,147.36580330001016,147.7665044000023,z,0.6946333999949275,None,147.76674370000546,147.78252380000777,148.78322480000497,148.76685060000455,,,,,,,,,,,,,,,,,,,,,,,,,,,,,,,,,,,,,,,,,,,,,,,,,,,,,,,,,,,,,,,,,,,,,,,,,,,,,,,,,,,,,,,,,,,,,,,,,,,,,,,,A_15,001,2024-11-30_14h41.40.932,untitled,2024.1.5,None,2024-11-30 14h41.53.679228 +0530,
triangle.png,stranger,0,Z,,,,,3,2,14,3,,,,,,,,,,,,,148.78322480000497,,,,,,,,,,,,,,,,,,,,,,,,,,,,,,,,,,148.76707650000753,148.78322480000497,149.266915900007,149.266915900007,149.266915900007,149.266915900007,149.28340450000542,149.56697710001026,149.56697710001026,149.56697710001026,149.96783760000835,m,0.6932119999983115,None,149.96807900001295,149.9838427000068,150.98438920000626,150.96805140000652,,,,,,,,,,,,,,,,,,,,,,,,,,,,,,,,,,,,,,,,,,,,,,,,,,,,,,,,,,,,,,,,,,,,,,,,,,,,,,,,,,,,,,,,,,,,,,,,,,,,,,,,A_15,001,2024-11-30_14h41.40.932,untitled,2024.1.5,None,2024-11-30 14h41.53.679228 +0530,
square.png,stranger,1,M,,,,,3,3,15,0,,,,,,,,,,,,,150.98438920000626,,,,,,,,,,,,,,,,,,,,,,,,,,,,,,,,,,150.9682778000133,150.98438920000626,151.46786460001022,151.46786460001022,151.46786460001022,151.46786460001022,151.48439330000838,151.76798590000544,151.76798590000544,151.76798590000544,152.55224090001138,None,,,152.55237160000252,152.56851380001171,153.56876639999973,153.55279490000976,152.56851380001171,,,,,,,,,,,,,,,,,,,,,,,,,,,,,,,,,,,,,,,,,,,,,,,,,,,,,,,,,,,,,,,,,,,,,,,,,,,,,,,,,,,,,,,,,,,,,,,,,,,,,,,A_15,001,2024-11-30_14h41.40.932,untitled,2024.1.5,None,2024-11-30 14h41.53.679228 +0530,
square.png,stranger,1,M,,,,,4,0,16,0,,,,,,,,,,,,,153.56876639999973,,,,,,,,,,,,,,,,,,,,,,,,,,,,,,,,,,153.55302190000657,153.56876639999973,154.06921530001273,154.06921530001273,154.06921530001273,154.06921530001273,154.06921530001273,154.36921090001124,154.36921090001124,154.36921090001124,154.55347900000925,m,0.4827233999967575,None,154.55372010001156,154.56931350000377,155.56982360000256,155.55378890001157,,,,,,,,,,,,,,,,,,,,,,,,,,,,,,,,,,,,,,,,,,,,,,,,,,,,,,,,,,,,,,,,,,,,,,,,,,,,,,,,,,,,,,,,,,,,,,,,,,,,,,,,A_15,001,2024-11-30_14h41.40.932,untitled,2024.1.5,None,2024-11-30 14h41.53.679228 +0530,
triangle.png,you,1,M,,,,,4,1,17,1,,,,,,,,,,,,,155.56982360000256,,,,,,,,,,,,,,,,,,,,,,,,,,,,,,,,,,155.55401550000533,155.56982360000256,156.05397130000347,156.05397130000347,156.05397130000347,156.05397130000347,156.07045860000653,156.35373680001067,156.35373680001067,156.35373680001067,156.72144940000726,m,0.6653613999951631,None,156.72168890001194,156.73721150000347,157.73773630001233,157.7213763000036,,,,,,,,,,,,,,,,,,,,,,,,,,,,,,,,,,,,,,,,,,,,,,,,,,,,,,,,,,,,,,,,,,,,,,,,,,,,,,,,,,,,,,,,,,,,,,,,,,,,,,,,A_15,001,2024-11-30_14h41.40.932,untitled,2024.1.5,None,2024-11-30 14h41.53.679228 +0530,
square.png,you,0,Z,,,,,4,2,18,2,,,,,,,,,,,,,157.73773630001233,,,,,,,,,,,,,,,,,,,,,,,,,,,,,,,,,,157.7216044000088,157.73773630001233,158.22151960000338,158.22151960000338,158.22151960000338,158.22151960000338,158.23806620000687,158.52138600000762,158.52138600000762,158.52138600000762,159.15583610000613,z,0.9185709999874234,None,159.15607450000243,159.1717040000076,160.1721983000025,160.15599090000615,,,,,,,,,,,,,,,,,,,,,,,,,,,,,,,,,,,,,,,,,,,,,,,,,,,,,,,,,,,,,,,,,,,,,,,,,,,,,,,,,,,,,,,,,,,,,,,,,,,,,,,,A_15,001,2024-11-30_14h41.40.932,untitled,2024.1.5,None,2024-11-30 14h41.53.679228 +0530,
triangle.png,stranger,0,Z,,,,,4,3,19,3,,,,,,,,,,,,,160.1721983000025,,,,,,,,,,,,,,,,,,,,,,,,,,,,,,,,,,160.15621530001226,160.1721983000025,160.6561905000126,160.6561905000126,160.6561905000126,160.6561905000126,160.67257170000812,160.95600390000618,160.95600390000618,160.95600390000618,161.1069767000008,z,0.44774870001128875,None,161.10721750000084,161.12281359999906,162.12350260000676,162.106995500013,,,,,,,,,,,,,,,,,,,,,,,,,,,,,,,,,,,,,,,,,,,,,,,,,,,,,,,,,,,,,,,,,,,,,,,,,,,,,,,,,,,,,,,,,,,,,,,,,,,,,,,,A_15,001,2024-11-30_14h41.40.932,untitled,2024.1.5,None,2024-11-30 14h41.53.679228 +0530,
,,,,,,,,,,,,,,,,,,,,,,,,,,,,,,,,,,,,,,,,,,,,,,,,,,,,,,,,,,,,,,,,,,,,,,,,,,,,,162.1070413000125,162.12350260000676,162.12350260000676,163.25788050000847,space,1.1208092000015313,None,,,,,,,,,,,,,,,,,,,,,,,,,,,,,,,,,,,,,,,,,,,,,,,,,,,,,,,,,,,,,,,,,,,,,,,,,,,,,,,,,,,,,,,,,,,,,,,,A_15,001,2024-11-30_14h41.40.932,untitled,2024.1.5,None,2024-11-30 14h41.53.679228 +0530,
triangle.png,you,1,M,,,,,,,,,0,0,0,1,,,,,,,,,163.27403360001335,,,,,,,,,,,,,,,,,,,,,,,,,,,,,,,,,,,,,,,,,,,,,,,,,,,,,,,,,,,,163.2630235000106,163.27403360001335,163.7576579000015,163.7576579000015,163.7576579000015,163.7576579000015,163.77422380000644,164.057627400005,164.057627400005,164.057627400005,164.57575680001173,m,0.817215999995824,None,164.57642700000724,164.5914929999999,165.59170560000348,165.57562270000926,,,,,,,,,,,,,,,,,,,,,,,,,,,,,,,,,,,,,,,,,,,,,,,,,,,,,,,,,,,,,,,,,,,,,,,,,,,,,,A_15,001,2024-11-30_14h41.40.932,untitled,2024.1.5,None,2024-11-30 14h41.53.679228 +0530,
triangle.png,stranger,0,Z,,,,,,,,,0,1,1,3,,,,,,,,,165.59170560000348,,,,,,,,,,,,,,,,,,,,,,,,,,,,,,,,,,,,,,,,,,,,,,,,,,,,,,,,,,,,165.5759723000083,165.59170560000348,166.0922159000038,166.0922159000038,166.0922159000038,166.0922159000038,166.0922159000038,166.39224390000163,166.39224390000163,166.39224390000163,166.45940420000989,m,0.36009920001379214,None,166.45983100000012,166.47553160000825,167.47585000000254,167.4597366000089,,,,,,,,,,,,,,,,,,,,,,,,,,,,,,,,,,,,,,,,,,,,,,,,,,,,,,,,,,,,,,,,,,,,,,,,,,,,,,A_15,001,2024-11-30_14h41.40.932,untitled,2024.1.5,None,2024-11-30 14h41.53.679228 +0530,
square.png,you,0,Z,,,,,,,,,0,2,2,2,,,,,,,,,167.47585000000254,,,,,,,,,,,,,,,,,,,,,,,,,,,,,,,,,,,,,,,,,,,,,,,,,,,,,,,,,,,,167.4600868000125,167.47585000000254,167.95985920001112,167.95985920001112,167.95985920001112,167.95985920001112,167.9763352000009,168.25982680000016,168.25982680000016,168.25982680000016,168.5272074000095,m,0.5557281999936095,None,168.52762700000312,168.54313450001064,169.54382630001055,169.52764490000845,,,,,,,,,,,,,,,,,,,,,,,,,,,,,,,,,,,,,,,,,,,,,,,,,,,,,,,,,,,,,,,,,,,,,,,,,,,,,,A_15,001,2024-11-30_14h41.40.932,untitled,2024.1.5,None,2024-11-30 14h41.53.679228 +0530,
square.png,stranger,1,M,,,,,,,,,0,3,3,0,,,,,,,,,169.54382630001055,,,,,,,,,,,,,,,,,,,,,,,,,,,,,,,,,,,,,,,,,,,,,,,,,,,,,,,,,,,,169.52799360000063,169.54382630001055,170.02729060000274,170.02729060000274,170.02729060000274,170.02729060000274,170.04392220001318,170.327532100011,170.327532100011,170.327532100011,170.52852620001067,m,0.48758109999471344,None,170.52894090001064,170.54443330000504,171.54484260000754,171.52849140000762,,,,,,,,,,,,,,,,,,,,,,,,,,,,,,,,,,,,,,,,,,,,,,,,,,,,,,,,,,,,,,,,,,,,,,,,,,,,,,A_15,001,2024-11-30_14h41.40.932,untitled,2024.1.5,None,2024-11-30 14h41.53.679228 +0530,
square.png,stranger,1,M,,,,,,,,,1,0,4,0,,,,,,,,,171.54484260000754,,,,,,,,,,,,,,,,,,,,,,,,,,,,,,,,,,,,,,,,,,,,,,,,,,,,,,,,,,,,171.52883330000623,171.54484260000754,172.02860190000501,172.02860190000501,172.02860190000501,172.02860190000501,172.04519090001122,172.3282986000122,172.3282986000122,172.3282986000122,173.11264640001173,None,,,173.11283180001192,173.12906780000776,174.12954900000477,174.11325120000402,173.12906780000776,,,,,,,,,,,,,,,,,,,,,,,,,,,,,,,,,,,,,,,,,,,,,,,,,,,,,,,,,,,,,,,,,,,,,,,,,,,,,A_15,001,2024-11-30_14h41.40.932,untitled,2024.1.5,None,2024-11-30 14h41.53.679228 +0530,
square.png,you,0,Z,,,,,,,,,1,1,5,2,,,,,,,,,174.12954900000477,,,,,,,,,,,,,,,,,,,,,,,,,,,,,,,,,,,,,,,,,,,,,,,,,,,,,,,,,,,,174.1136014000076,174.12954900000477,174.62958100000105,174.62958100000105,174.62958100000105,174.62958100000105,174.62958100000105,174.9299819000007,174.9299819000007,174.9299819000007,175.08074730000226,m,0.44995470000139903,None,175.0811723000079,175.09649690000515,176.0970154000097,176.08074130000023,,,,,,,,,,,,,,,,,,,,,,,,,,,,,,,,,,,,,,,,,,,,,,,,,,,,,,,,,,,,,,,,,,,,,,,,,,,,,,A_15,001,2024-11-30_14h41.40.932,untitled,2024.1.5,None,2024-11-30 14h41.53.679228 +0530,
triangle.png,you,1,M,,,,,,,,,1,2,6,1,,,,,,,,,176.0970154000097,,,,,,,,,,,,,,,,,,,,,,,,,,,,,,,,,,,,,,,,,,,,,,,,,,,,,,,,,,,,176.0810855000018,176.0970154000097,176.5807488999999,176.5807488999999,176.5807488999999,176.5807488999999,176.59730680000212,176.88075010001194,176.88075010001194,176.88075010001194,177.46533050001017,m,0.8739764000056311,None,177.46574710001005,177.48104640000383,178.48179210000671,178.46537800000806,,,,,,,,,,,,,,,,,,,,,,,,,,,,,,,,,,,,,,,,,,,,,,,,,,,,,,,,,,,,,,,,,,,,,,,,,,,,,,A_15,001,2024-11-30_14h41.40.932,untitled,2024.1.5,None,2024-11-30 14h41.53.679228 +0530,
triangle.png,stranger,0,Z,,,,,,,,,1,3,7,3,,,,,,,,,178.48179210000671,,,,,,,,,,,,,,,,,,,,,,,,,,,,,,,,,,,,,,,,,,,,,,,,,,,,,,,,,,,,178.46572079999896,178.48179210000671,178.96535500000755,178.96535500000755,178.96535500000755,178.96535500000755,178.98213899999973,179.26540660001046,179.26540660001046,179.26540660001046,179.8497975000064,z,0.8750695999915479,None,179.85021390000475,179.86550759999955,180.8663305000082,180.84991200000513,,,,,,,,,,,,,,,,,,,,,,,,,,,,,,,,,,,,,,,,,,,,,,,,,,,,,,,,,,,,,,,,,,,,,,,,,,,,,,A_15,001,2024-11-30_14h41.40.932,untitled,2024.1.5,None,2024-11-30 14h41.53.679228 +0530,
triangle.png,you,1,M,,,,,,,,,2,0,8,1,,,,,,,,,180.8663305000082,,,,,,,,,,,,,,,,,,,,,,,,,,,,,,,,,,,,,,,,,,,,,,,,,,,,,,,,,,,,180.85025410000526,180.8663305000082,181.34993380001106,181.34993380001106,181.34993380001106,181.34993380001106,181.36658330001228,181.64994010000373,181.64994010000373,181.64994010000373,182.00089920000755,m,0.6375778000074206,None,182.001316400012,182.01677010000276,183.01730330000282,183.00112460000673,,,,,,,,,,,,,,,,,,,,,,,,,,,,,,,,,,,,,,,,,,,,,,,,,,,,,,,,,,,,,,,,,,,,,,,,,,,,,,A_15,001,2024-11-30_14h41.40.932,untitled,2024.1.5,None,2024-11-30 14h41.53.679228 +0530,
square.png,you,0,Z,,,,,,,,,2,1,9,2,,,,,,,,,183.01730330000282,,,,,,,,,,,,,,,,,,,,,,,,,,,,,,,,,,,,,,,,,,,,,,,,,,,,,,,,,,,,183.00146750001295,183.01730330000282,183.50082570000086,183.50082570000086,183.50082570000086,183.50082570000086,183.5174975000118,183.80099670001073,183.80099670001073,183.80099670001073,184.23545490000106,z,0.7234969999990426,None,184.23586860000796,184.25116290000733,185.2516125000111,185.23537040001247,,,,,,,,,,,,,,,,,,,,,,,,,,,,,,,,,,,,,,,,,,,,,,,,,,,,,,,,,,,,,,,,,,,,,,,,,,,,,,A_15,001,2024-11-30_14h41.40.932,untitled,2024.1.5,None,2024-11-30 14h41.53.679228 +0530,
square.png,stranger,1,M,,,,,,,,,2,2,10,0,,,,,,,,,185.2516125000111,,,,,,,,,,,,,,,,,,,,,,,,,,,,,,,,,,,,,,,,,,,,,,,,,,,,,,,,,,,,185.23571940000693,185.2516125000111,185.7354813000129,185.7354813000129,185.7354813000129,185.7354813000129,185.75194620000548,186.03547800000524,186.03547800000524,186.03547800000524,186.5697450000007,m,0.8312686999997823,None,186.57017330000235,186.58578210000996,187.58643850000226,187.57001880000462,,,,,,,,,,,,,,,,,,,,,,,,,,,,,,,,,,,,,,,,,,,,,,,,,,,,,,,,,,,,,,,,,,,,,,,,,,,,,,A_15,001,2024-11-30_14h41.40.932,untitled,2024.1.5,None,2024-11-30 14h41.53.679228 +0530,
triangle.png,stranger,0,Z,,,,,,,,,2,3,11,3,,,,,,,,,187.58643850000226,,,,,,,,,,,,,,,,,,,,,,,,,,,,,,,,,,,,,,,,,,,,,,,,,,,,,,,,,,,,187.57036230000085,187.58643850000226,188.0700829000125,188.0700829000125,188.0700829000125,188.0700829000125,188.08666200000152,188.36986360000446,188.36986360000446,188.36986360000446,188.9209195000003,z,0.8376643000083277,None,188.92135010000493,188.9368395000056,189.93767240000307,189.92122240000754,,,,,,,,,,,,,,,,,,,,,,,,,,,,,,,,,,,,,,,,,,,,,,,,,,,,,,,,,,,,,,,,,,,,,,,,,,,,,,A_15,001,2024-11-30_14h41.40.932,untitled,2024.1.5,None,2024-11-30 14h41.53.679228 +0530,
triangle.png,stranger,0,Z,,,,,,,,,3,0,12,3,,,,,,,,,189.93767240000307,,,,,,,,,,,,,,,,,,,,,,,,,,,,,,,,,,,,,,,,,,,,,,,,,,,,,,,,,,,,189.9215733000019,189.93767240000307,190.42095540001174,190.42095540001174,190.42095540001174,190.42095540001174,190.4376889000123,190.7211862000113,190.7211862000113,190.7211862000113,191.28899260000617,m,0.8618567999947118,None,191.28941470000427,191.30477320001228,192.30539960000897,192.28928780001297,,,,,,,,,,,,,,,,,,,,,,,,,,,,,,,,,,,,,,,,,,,,,,,,,,,,,,,,,,,,,,,,,,,,,,,,,,,,,,A_15,001,2024-11-30_14h41.40.932,untitled,2024.1.5,None,2024-11-30 14h41.53.679228 +0530,
square.png,stranger,1,M,,,,,,,,,3,1,13,0,,,,,,,,,192.30539960000897,,,,,,,,,,,,,,,,,,,,,,,,,,,,,,,,,,,,,,,,,,,,,,,,,,,,,,,,,,,,192.28963680000743,192.30539960000897,192.78918890000205,192.78918890000205,192.78918890000205,192.78918890000205,192.80563310001162,193.08907929999987,193.08907929999987,193.08907929999987,193.87313880000147,None,,,193.87333360000048,193.88932780000323,194.89000700000906,194.87380100000883,193.88932780000323,,,,,,,,,,,,,,,,,,,,,,,,,,,,,,,,,,,,,,,,,,,,,,,,,,,,,,,,,,,,,,,,,,,,,,,,,,,,,A_15,001,2024-11-30_14h41.40.932,untitled,2024.1.5,None,2024-11-30 14h41.53.679228 +0530,
triangle.png,you,1,M,,,,,,,,,3,2,14,1,,,,,,,,,194.89000700000906,,,,,,,,,,,,,,,,,,,,,,,,,,,,,,,,,,,,,,,,,,,,,,,,,,,,,,,,,,,,194.87415300001157,194.89000700000906,195.3906713000033,195.3906713000033,195.3906713000033,195.3906713000033,195.3906713000033,195.69050609999977,195.69050609999977,195.69050609999977,195.90775890000805,m,0.5136408999969717,None,195.9081925000064,195.92386460000125,196.92422090000764,196.90799180000613,,,,,,,,,,,,,,,,,,,,,,,,,,,,,,,,,,,,,,,,,,,,,,,,,,,,,,,,,,,,,,,,,,,,,,,,,,,,,,A_15,001,2024-11-30_14h41.40.932,untitled,2024.1.5,None,2024-11-30 14h41.53.679228 +0530,
square.png,you,0,Z,,,,,,,,,3,3,15,2,,,,,,,,,196.92422090000764,,,,,,,,,,,,,,,,,,,,,,,,,,,,,,,,,,,,,,,,,,,,,,,,,,,,,,,,,,,,196.90836400000262,196.92422090000764,197.40806560000055,197.40806560000055,197.40806560000055,197.40806560000055,197.42465430000448,197.7079955000081,197.7079955000081,197.7079955000081,198.17589940001199,z,0.763444399999571,None,198.17633060000662,198.19182320000255,199.192183200008,199.17586280000978,,,,,,,,,,,,,,,,,,,,,,,,,,,,,,,,,,,,,,,,,,,,,,,,,,,,,,,,,,,,,,,,,,,,,,,,,,,,,,A_15,001,2024-11-30_14h41.40.932,untitled,2024.1.5,None,2024-11-30 14h41.53.679228 +0530,
square.png,stranger,1,M,,,,,,,,,4,0,16,0,,,,,,,,,199.192183200008,,,,,,,,,,,,,,,,,,,,,,,,,,,,,,,,,,,,,,,,,,,,,,,,,,,,,,,,,,,,199.17620780000289,199.192183200008,199.67603750000126,199.67603750000126,199.67603750000126,199.67603750000126,199.69260600001144,199.9758826000034,199.9758826000034,199.9758826000034,200.47703330000513,m,0.7914019000018016,None,200.4774524000095,200.4927849000087,201.4935540000006,201.47728410000855,,,,,,,,,,,,,,,,,,,,,,,,,,,,,,,,,,,,,,,,,,,,,,,,,,,,,,,,,,,,,,,,,,,,,,,,,,,,,,A_15,001,2024-11-30_14h41.40.932,untitled,2024.1.5,None,2024-11-30 14h41.53.679228 +0530,
triangle.png,stranger,0,Z,,,,,,,,,4,1,17,3,,,,,,,,,201.4935540000006,,,,,,,,,,,,,,,,,,,,,,,,,,,,,,,,,,,,,,,,,,,,,,,,,,,,,,,,,,,,201.47762710000097,201.4935540000006,201.97726660000626,201.97726660000626,201.97726660000626,201.97726660000626,201.99376029999985,202.27705350000178,202.27705350000178,202.27705350000178,202.74469790000876,z,0.7534133000008296,None,202.74511620000703,202.76086520000536,203.76136530000076,203.7449886000104,,,,,,,,,,,,,,,,,,,,,,,,,,,,,,,,,,,,,,,,,,,,,,,,,,,,,,,,,,,,,,,,,,,,,,,,,,,,,,A_15,001,2024-11-30_14h41.40.932,untitled,2024.1.5,None,2024-11-30 14h41.53.679228 +0530,
triangle.png,you,1,M,,,,,,,,,4,2,18,1,,,,,,,,,203.76136530000076,,,,,,,,,,,,,,,,,,,,,,,,,,,,,,,,,,,,,,,,,,,,,,,,,,,,,,,,,,,,203.74533350000274,203.76136530000076,204.24509820000094,204.24509820000094,204.24509820000094,204.24509820000094,204.26150990001042,204.5450978000008,204.5450978000008,204.5450978000008,204.979035700002,m,0.7304401000001235,None,204.97947050000948,204.9949867000105,205.99579680000897,205.97942110001168,,,,,,,,,,,,,,,,,,,,,,,,,,,,,,,,,,,,,,,,,,,,,,,,,,,,,,,,,,,,,,,,,,,,,,,,,,,,,,A_15,001,2024-11-30_14h41.40.932,untitled,2024.1.5,None,2024-11-30 14h41.53.679228 +0530,
square.png,you,0,Z,,,,,,,,,4,3,19,2,,,,,,,,,205.99579680000897,,,,,,,,,,,,,,,,,,,,,,,,,,,,,,,,,,,,,,,,,,,,,,,,,,,,,,,,,,,,205.97976480000943,205.99579680000897,206.47955060000822,206.47955060000822,206.47955060000822,206.47955060000822,206.49594730000535,206.779532200002,206.779532200002,206.779532200002,207.21375870000338,z,0.7246095000009518,None,207.21418480000284,207.22946310001134,208.23014670000703,208.2138898000121,,,,,,,,,,,,,,,,,,,,,,,,,,,,,,,,,,,,,,,,,,,,,,,,,,,,,,,,,,,,,,,,,,,,,,,,,,,,,,A_15,001,2024-11-30_14h41.40.932,untitled,2024.1.5,None,2024-11-30 14h41.53.679228 +0530,
triangle.png,you,1,M,,,,,,,,,5,0,20,1,,,,,,,,,208.23014670000703,,,,,,,,,,,,,,,,,,,,,,,,,,,,,,,,,,,,,,,,,,,,,,,,,,,,,,,,,,,,208.21423409999989,208.23014670000703,208.7135713000025,208.7135713000025,208.7135713000025,208.7135713000025,208.7301245000126,209.0135384000023,209.0135384000023,209.0135384000023,209.4144696000003,m,0.6851404000044568,None,209.41489369999908,209.43062520000967,210.43134510000527,210.4150809999992,,,,,,,,,,,,,,,,,,,,,,,,,,,,,,,,,,,,,,,,,,,,,,,,,,,,,,,,,,,,,,,,,,,,,,,,,,,,,,A_15,001,2024-11-30_14h41.40.932,untitled,2024.1.5,None,2024-11-30 14h41.53.679228 +0530,
triangle.png,stranger,0,Z,,,,,,,,,5,1,21,3,,,,,,,,,210.43134510000527,,,,,,,,,,,,,,,,,,,,,,,,,,,,,,,,,,,,,,,,,,,,,,,,,,,,,,,,,,,,210.41542600000685,210.43134510000527,210.91478340000322,210.91478340000322,210.91478340000322,210.91478340000322,210.93143480000435,211.215014100002,211.215014100002,211.215014100002,211.76610520000395,z,0.8372769999987213,None,211.766526300009,211.78206520000822,212.7825765000016,212.76654480000434,,,,,,,,,,,,,,,,,,,,,,,,,,,,,,,,,,,,,,,,,,,,,,,,,,,,,,,,,,,,,,,,,,,,,,,,,,,,,,A_15,001,2024-11-30_14h41.40.932,untitled,2024.1.5,None,2024-11-30 14h41.53.679228 +0530,
square.png,stranger,1,M,,,,,,,,,5,2,22,0,,,,,,,,,212.7825765000016,,,,,,,,,,,,,,,,,,,,,,,,,,,,,,,,,,,,,,,,,,,,,,,,,,,,,,,,,,,,212.76689270000497,212.7825765000016,213.26642130000982,213.26642130000982,213.26642130000982,213.26642130000982,213.283062100003,213.56632300000638,213.56632300000638,213.56632300000638,213.9838802000013,m,0.712991599997622,None,213.98429550000583,214.00003320000542,215.00040460001037,214.98419030000514,,,,,,,,,,,,,,,,,,,,,,,,,,,,,,,,,,,,,,,,,,,,,,,,,,,,,,,,,,,,,,,,,,,,,,,,,,,,,,A_15,001,2024-11-30_14h41.40.932,untitled,2024.1.5,None,2024-11-30 14h41.53.679228 +0530,
square.png,you,0,Z,,,,,,,,,5,3,23,2,,,,,,,,,215.00040460001037,,,,,,,,,,,,,,,,,,,,,,,,,,,,,,,,,,,,,,,,,,,,,,,,,,,,,,,,,,,,214.9845323000045,215.00040460001037,215.484065200013,215.484065200013,215.484065200013,215.484065200013,215.50052540001343,215.78393970000616,215.78393970000616,215.78393970000616,215.93500710000808,z,0.4478973000077531,None,215.93542930000694,215.95074820000445,216.9513091000117,216.93510660000902,,,,,,,,,,,,,,,,,,,,,,,,,,,,,,,,,,,,,,,,,,,,,,,,,,,,,,,,,,,,,,,,,,,,,,,,,,,,,,A_15,001,2024-11-30_14h41.40.932,untitled,2024.1.5,None,2024-11-30 14h41.53.679228 +0530,
square.png,you,0,Z,,,,,,,,,6,0,24,2,,,,,,,,,216.9513091000117,,,,,,,,,,,,,,,,,,,,,,,,,,,,,,,,,,,,,,,,,,,,,,,,,,,,,,,,,,,,216.93544980000297,216.9513091000117,217.4351861000032,217.4351861000032,217.4351861000032,217.4351861000032,217.45156600000337,217.73513430000457,217.73513430000457,217.73513430000457,218.15269550000085,m,0.7162844999984372,None,218.15312840000843,218.16842400000314,219.16918180001085,219.15268820000347,,,,,,,,,,,,,,,,,,,,,,,,,,,,,,,,,,,,,,,,,,,,,,,,,,,,,,,,,,,,,,,,,,,,,,,,,,,,,,A_15,001,2024-11-30_14h41.40.932,untitled,2024.1.5,None,2024-11-30 14h41.53.679228 +0530,
square.png,stranger,1,M,,,,,,,,,6,1,25,0,,,,,,,,,219.16918180001085,,,,,,,,,,,,,,,,,,,,,,,,,,,,,,,,,,,,,,,,,,,,,,,,,,,,,,,,,,,,219.1530533000041,219.16918180001085,219.65274280001177,219.65274280001177,219.65274280001177,219.65274280001177,219.6693387000123,219.9528055000119,219.9528055000119,219.9528055000119,220.50368020001042,m,0.8357206000073347,None,220.50409700001183,220.51982000000135,221.52045600001293,221.50418580000405,,,,,,,,,,,,,,,,,,,,,,,,,,,,,,,,,,,,,,,,,,,,,,,,,,,,,,,,,,,,,,,,,,,,,,,,,,,,,,A_15,001,2024-11-30_14h41.40.932,untitled,2024.1.5,None,2024-11-30 14h41.53.679228 +0530,
triangle.png,stranger,0,Z,,,,,,,,,6,2,26,3,,,,,,,,,221.52045600001293,,,,,,,,,,,,,,,,,,,,,,,,,,,,,,,,,,,,,,,,,,,,,,,,,,,,,,,,,,,,221.50453190000553,221.52045600001293,222.00416060000134,222.00416060000134,222.00416060000134,222.00416060000134,222.02052600000752,222.3040684000007,222.3040684000007,222.3040684000007,222.75518430001102,z,0.7479526000097394,None,222.7555999000033,222.77111400000285,223.7714139000018,223.7552194000018,,,,,,,,,,,,,,,,,,,,,,,,,,,,,,,,,,,,,,,,,,,,,,,,,,,,,,,,,,,,,,,,,,,,,,,,,,,,,,A_15,001,2024-11-30_14h41.40.932,untitled,2024.1.5,None,2024-11-30 14h41.53.679228 +0530,
triangle.png,you,1,M,,,,,,,,,6,3,27,1,,,,,,,,,223.7714139000018,,,,,,,,,,,,,,,,,,,,,,,,,,,,,,,,,,,,,,,,,,,,,,,,,,,,,,,,,,,,223.7555621000065,223.7714139000018,224.2551026000001,224.2551026000001,224.2551026000001,224.2551026000001,224.2717021999997,224.55518239999947,224.55518239999947,224.55518239999947,224.63922820000153,m,0.3727396000031149,None,224.63965780001308,224.65527380000276,225.65584300000046,225.63954540000123,,,,,,,,,,,,,,,,,,,,,,,,,,,,,,,,,,,,,,,,,,,,,,,,,,,,,,,,,,,,,,,,,,,,,,,,,,,,,,A_15,001,2024-11-30_14h41.40.932,untitled,2024.1.5,None,2024-11-30 14h41.53.679228 +0530,
square.png,stranger,1,M,,,,,,,,,7,0,28,0,,,,,,,,,225.65584300000046,,,,,,,,,,,,,,,,,,,,,,,,,,,,,,,,,,,,,,,,,,,,,,,,,,,,,,,,,,,,225.6399332000001,225.65584300000046,226.13941240000713,226.13941240000713,226.13941240000713,226.13941240000713,226.15599950001342,226.4393626000092,226.4393626000092,226.4393626000092,227.09044110000832,m,0.9482737000071211,None,227.09086400001252,227.10658040001,228.10686090000672,228.09057550001307,,,,,,,,,,,,,,,,,,,,,,,,,,,,,,,,,,,,,,,,,,,,,,,,,,,,,,,,,,,,,,,,,,,,,,,,,,,,,,A_15,001,2024-11-30_14h41.40.932,untitled,2024.1.5,None,2024-11-30 14h41.53.679228 +0530,
square.png,you,0,Z,,,,,,,,,7,1,29,2,,,,,,,,,228.10686090000672,,,,,,,,,,,,,,,,,,,,,,,,,,,,,,,,,,,,,,,,,,,,,,,,,,,,,,,,,,,,228.09091910001007,228.10686090000672,228.5907692000037,228.5907692000037,228.5907692000037,228.5907692000037,228.60735170000407,228.8908414000034,228.8908414000034,228.8908414000034,229.19177450001007,z,0.5934051999938674,None,229.19222380001156,229.20754270000907,230.20798680000007,230.19194150000112,,,,,,,,,,,,,,,,,,,,,,,,,,,,,,,,,,,,,,,,,,,,,,,,,,,,,,,,,,,,,,,,,,,,,,,,,,,,,,A_15,001,2024-11-30_14h41.40.932,untitled,2024.1.5,None,2024-11-30 14h41.53.679228 +0530,
triangle.png,you,1,M,,,,,,,,,7,2,30,1,,,,,,,,,230.20798680000007,,,,,,,,,,,,,,,,,,,,,,,,,,,,,,,,,,,,,,,,,,,,,,,,,,,,,,,,,,,,230.1922850000119,230.20798680000007,230.6918374000088,230.6918374000088,230.6918374000088,230.6918374000088,230.70844460000808,230.99168640001153,230.99168640001153,230.99168640001153,231.30942410000716,m,0.615708800003631,None,231.3098536000034,231.32547000001068,232.32594770001015,232.3097615000006,,,,,,,,,,,,,,,,,,,,,,,,,,,,,,,,,,,,,,,,,,,,,,,,,,,,,,,,,,,,,,,,,,,,,,,,,,,,,,A_15,001,2024-11-30_14h41.40.932,untitled,2024.1.5,None,2024-11-30 14h41.53.679228 +0530,
triangle.png,stranger,0,Z,,,,,,,,,7,3,31,3,,,,,,,,,232.32594770001015,,,,,,,,,,,,,,,,,,,,,,,,,,,,,,,,,,,,,,,,,,,,,,,,,,,,,,,,,,,,232.31010740000056,232.32594770001015,232.80965560000914,232.80965560000914,232.80965560000914,232.80965560000914,232.82611880000331,233.1095168000029,233.1095168000029,233.1095168000029,233.2437798000028,z,0.42977309999696445,None,233.2441955000104,233.25978780000878,234.26007540000137,234.24406680000538,,,,,,,,,,,,,,,,,,,,,,,,,,,,,,,,,,,,,,,,,,,,,,,,,,,,,,,,,,,,,,,,,,,,,,,,,,,,,,A_15,001,2024-11-30_14h41.40.932,untitled,2024.1.5,None,2024-11-30 14h41.53.679228 +0530,
square.png,stranger,1,M,,,,,,,,,8,0,32,0,,,,,,,,,234.26007540000137,,,,,,,,,,,,,,,,,,,,,,,,,,,,,,,,,,,,,,,,,,,,,,,,,,,,,,,,,,,,234.24441350001143,234.26007540000137,234.7436611000012,234.7436611000012,234.7436611000012,234.7436611000012,234.76047170000675,235.0439594000054,235.0439594000054,235.0439594000054,235.5114545000106,m,0.7628803999978118,None,235.51187870001013,235.52765090001049,236.52797740000824,236.5117167999997,,,,,,,,,,,,,,,,,,,,,,,,,,,,,,,,,,,,,,,,,,,,,,,,,,,,,,,,,,,,,,,,,,,,,,,,,,,,,,A_15,001,2024-11-30_14h41.40.932,untitled,2024.1.5,None,2024-11-30 14h41.53.679228 +0530,
triangle.png,stranger,0,Z,,,,,,,,,8,1,33,3,,,,,,,,,236.52797740000824,,,,,,,,,,,,,,,,,,,,,,,,,,,,,,,,,,,,,,,,,,,,,,,,,,,,,,,,,,,,236.51206100000127,236.52797740000824,237.01179980000597,237.01179980000597,237.01179980000597,237.01179980000597,237.02827290000278,237.31161710000015,237.31161710000015,237.31161710000015,238.04613810000592,m,1.0240549999871291,None,238.04657010000665,238.06220380000013,239.0626045000099,239.0464556000079,,,,,,,,,,,,,,,,,,,,,,,,,,,,,,,,,,,,,,,,,,,,,,,,,,,,,,,,,,,,,,,,,,,,,,,,,,,,,,A_15,001,2024-11-30_14h41.40.932,untitled,2024.1.5,None,2024-11-30 14h41.53.679228 +0530,
triangle.png,you,1,M,,,,,,,,,8,2,34,1,,,,,,,,,239.0626045000099,,,,,,,,,,,,,,,,,,,,,,,,,,,,,,,,,,,,,,,,,,,,,,,,,,,,,,,,,,,,239.04680390001158,239.0626045000099,239.54635490001237,239.54635490001237,239.54635490001237,239.54635490001237,239.56298040000547,239.8463247000036,239.8463247000036,239.8463247000036,240.21374520000245,m,0.661740399998962,None,240.21417710000242,240.2297091000073,241.2304237000062,241.2140623000014,,,,,,,,,,,,,,,,,,,,,,,,,,,,,,,,,,,,,,,,,,,,,,,,,,,,,,,,,,,,,,,,,,,,,,,,,,,,,,A_15,001,2024-11-30_14h41.40.932,untitled,2024.1.5,None,2024-11-30 14h41.53.679228 +0530,
square.png,you,0,Z,,,,,,,,,8,3,35,2,,,,,,,,,241.2304237000062,,,,,,,,,,,,,,,,,,,,,,,,,,,,,,,,,,,,,,,,,,,,,,,,,,,,,,,,,,,,241.21440920000896,241.2304237000062,241.71421770000597,241.71421770000597,241.71421770000597,241.71421770000597,241.73071390000405,242.01397110000835,242.01397110000835,242.01397110000835,242.7981892000098,None,,,242.79837830000906,242.81438960001105,243.81487610000477,243.79882270000235,242.81438960001105,,,,,,,,,,,,,,,,,,,,,,,,,,,,,,,,,,,,,,,,,,,,,,,,,,,,,,,,,,,,,,,,,,,,,,,,,,,,,A_15,001,2024-11-30_14h41.40.932,untitled,2024.1.5,None,2024-11-30 14h41.53.679228 +0530,
square.png,stranger,1,M,,,,,,,,,9,0,36,0,,,,,,,,,243.81487610000477,,,,,,,,,,,,,,,,,,,,,,,,,,,,,,,,,,,,,,,,,,,,,,,,,,,,,,,,,,,,243.7991655000078,243.81487610000477,244.31562620001205,244.31562620001205,244.31562620001205,244.31562620001205,244.31562620001205,244.61522289999994,244.61522289999994,244.61522289999994,244.86631290000514,m,0.5436037000035867,None,244.86677000000782,244.88241130000097,245.882603200007,245.8665064000088,,,,,,,,,,,,,,,,,,,,,,,,,,,,,,,,,,,,,,,,,,,,,,,,,,,,,,,,,,,,,,,,,,,,,,,,,,,,,,A_15,001,2024-11-30_14h41.40.932,untitled,2024.1.5,None,2024-11-30 14h41.53.679228 +0530,
triangle.png,stranger,0,Z,,,,,,,,,9,1,37,3,,,,,,,,,245.882603200007,,,,,,,,,,,,,,,,,,,,,,,,,,,,,,,,,,,,,,,,,,,,,,,,,,,,,,,,,,,,245.86685060001037,245.882603200007,246.3665583000111,246.3665583000111,246.3665583000111,246.3665583000111,246.3829909000051,246.66613560001133,246.66613560001133,246.66613560001133,247.0341660000122,z,0.6658510999986902,None,247.0345881000103,247.0499681000074,248.0505312000023,248.0343897999992,,,,,,,,,,,,,,,,,,,,,,,,,,,,,,,,,,,,,,,,,,,,,,,,,,,,,,,,,,,,,,,,,,,,,,,,,,,,,,A_15,001,2024-11-30_14h41.40.932,untitled,2024.1.5,None,2024-11-30 14h41.53.679228 +0530,
triangle.png,you,1,M,,,,,,,,,9,2,38,1,,,,,,,,,248.0505312000023,,,,,,,,,,,,,,,,,,,,,,,,,,,,,,,,,,,,,,,,,,,,,,,,,,,,,,,,,,,,248.0347441000049,248.0505312000023,248.5343933000113,248.5343933000113,248.5343933000113,248.5343933000113,248.5507612000074,248.83408250000502,248.83408250000502,248.83408250000502,249.11865620000754,m,0.5811779999930877,None,249.1190714000113,249.13436619999993,250.13480930001242,250.1186352000077,,,,,,,,,,,,,,,,,,,,,,,,,,,,,,,,,,,,,,,,,,,,,,,,,,,,,,,,,,,,,,,,,,,,,,,,,,,,,,A_15,001,2024-11-30_14h41.40.932,untitled,2024.1.5,None,2024-11-30 14h41.53.679228 +0530,
square.png,you,0,Z,,,,,,,,,9,3,39,2,,,,,,,,,250.13480930001242,,,,,,,,,,,,,,,,,,,,,,,,,,,,,,,,,,,,,,,,,,,,,,,,,,,,,,,,,,,,250.11897510000563,250.13480930001242,250.61866270001337,250.61866270001337,250.61866270001337,250.61866270001337,250.63528710001265,250.9187149000063,250.9187149000063,250.9187149000063,251.4362395000062,z,0.8092859000025783,None,251.4366665000125,251.45217520000006,252.45273309999902,252.43631960000494,,,,,,,,,,,,,,,,,,,,,,,,,,,,,,,,,,,,,,,,,,,,,,,,,,,,,,,,,,,,,,,,,,,,,,,,,,,,,,A_15,001,2024-11-30_14h41.40.932,untitled,2024.1.5,None,2024-11-30 14h41.53.679228 +0530,
triangle.png,you,1,M,,,,,,,,,10,0,40,1,,,,,,,,,252.45273309999902,,,,,,,,,,,,,,,,,,,,,,,,,,,,,,,,,,,,,,,,,,,,,,,,,,,,,,,,,,,,252.43666830001166,252.45273309999902,252.93639960000291,252.93639960000291,252.93639960000291,252.93639960000291,252.95296970001073,253.23638870001014,253.23638870001014,253.23638870001014,253.73754230000486,m,0.7941514999984065,None,253.73795940000855,253.75354700000025,254.75388490001205,254.7377051000076,,,,,,,,,,,,,,,,,,,,,,,,,,,,,,,,,,,,,,,,,,,,,,,,,,,,,,,,,,,,,,,,,,,,,,,,,,,,,,A_15,001,2024-11-30_14h41.40.932,untitled,2024.1.5,None,2024-11-30 14h41.53.679228 +0530,
triangle.png,stranger,0,Z,,,,,,,,,10,1,41,3,,,,,,,,,254.75388490001205,,,,,,,,,,,,,,,,,,,,,,,,,,,,,,,,,,,,,,,,,,,,,,,,,,,,,,,,,,,,254.73804710000695,254.75388490001205,255.23755950000486,255.23755950000486,255.23755950000486,255.23755950000486,255.25411820001318,255.5376527000044,255.5376527000044,255.5376527000044,256.0387342000031,z,0.7938020000001416,None,256.03915140000754,256.05467390001286,257.0553155000089,257.03885789999913,,,,,,,,,,,,,,,,,,,,,,,,,,,,,,,,,,,,,,,,,,,,,,,,,,,,,,,,,,,,,,,,,,,,,,,,,,,,,,A_15,001,2024-11-30_14h41.40.932,untitled,2024.1.5,None,2024-11-30 14h41.53.679228 +0530,
square.png,stranger,1,M,,,,,,,,,10,2,42,0,,,,,,,,,257.0553155000089,,,,,,,,,,,,,,,,,,,,,,,,,,,,,,,,,,,,,,,,,,,,,,,,,,,,,,,,,,,,257.03920180001296,257.0553155000089,257.53868880000664,257.53868880000664,257.53868880000664,257.53868880000664,257.5556268000073,257.8389133000019,257.8389133000019,257.8389133000019,258.30657770000107,m,0.7612962999992305,None,258.3070020000014,258.32235620000574,259.32313940000313,259.30654440000944,,,,,,,,,,,,,,,,,,,,,,,,,,,,,,,,,,,,,,,,,,,,,,,,,,,,,,,,,,,,,,,,,,,,,,,,,,,,,,A_15,001,2024-11-30_14h41.40.932,untitled,2024.1.5,None,2024-11-30 14h41.53.679228 +0530,
square.png,you,0,Z,,,,,,,,,10,3,43,2,,,,,,,,,259.32313940000313,,,,,,,,,,,,,,,,,,,,,,,,,,,,,,,,,,,,,,,,,,,,,,,,,,,,,,,,,,,,259.30689650001295,259.32313940000313,259.8065510000015,259.8065510000015,259.8065510000015,259.8065510000015,259.8231237,260.10674400000426,260.10674400000426,260.10674400000426,260.12411500001326,z,0.31326260000059847,None,260.1245334000123,260.1401035000017,261.1406946000061,261.12417429999914,,,,,,,,,,,,,,,,,,,,,,,,,,,,,,,,,,,,,,,,,,,,,,,,,,,,,,,,,,,,,,,,,,,,,,,,,,,,,,A_15,001,2024-11-30_14h41.40.932,untitled,2024.1.5,None,2024-11-30 14h41.53.679228 +0530,
square.png,stranger,1,M,,,,,,,,,11,0,44,0,,,,,,,,,261.1406946000061,,,,,,,,,,,,,,,,,,,,,,,,,,,,,,,,,,,,,,,,,,,,,,,,,,,,,,,,,,,,261.12451770000916,261.1406946000061,261.62435410000035,261.62435410000035,261.62435410000035,261.62435410000035,261.6409530000092,261.9242071000044,261.9242071000044,261.9242071000044,262.4086047000019,m,0.7830178000003798,None,262.40902330000245,262.4247147999995,263.4251293000125,263.40886260000116,,,,,,,,,,,,,,,,,,,,,,,,,,,,,,,,,,,,,,,,,,,,,,,,,,,,,,,,,,,,,,,,,,,,,,,,,,,,,,A_15,001,2024-11-30_14h41.40.932,untitled,2024.1.5,None,2024-11-30 14h41.53.679228 +0530,
triangle.png,you,1,M,,,,,,,,,11,1,45,1,,,,,,,,,263.4251293000125,,,,,,,,,,,,,,,,,,,,,,,,,,,,,,,,,,,,,,,,,,,,,,,,,,,,,,,,,,,,263.4092273000133,263.4251293000125,263.90881620001164,263.90881620001164,263.90881620001164,263.90881620001164,263.9252959000005,264.2088267000072,264.2088267000072,264.2088267000072,264.560021199999,m,0.6469040999945719,None,264.5604437000002,264.5755121000111,265.5762246000086,265.55978440000035,,,,,,,,,,,,,,,,,,,,,,,,,,,,,,,,,,,,,,,,,,,,,,,,,,,,,,,,,,,,,,,,,,,,,,,,,,,,,,A_15,001,2024-11-30_14h41.40.932,untitled,2024.1.5,None,2024-11-30 14h41.53.679228 +0530,
triangle.png,stranger,0,Z,,,,,,,,,11,2,46,3,,,,,,,,,265.5762246000086,,,,,,,,,,,,,,,,,,,,,,,,,,,,,,,,,,,,,,,,,,,,,,,,,,,,,,,,,,,,265.56013820000226,265.5762246000086,266.0599743000057,266.0599743000057,266.0599743000057,266.0599743000057,266.0763524000067,266.3597393000091,266.3597393000091,266.3597393000091,266.4939689000021,z,0.4194489999936195,None,266.4943983000121,266.5099688000046,267.5101314000058,267.49386090000917,,,,,,,,,,,,,,,,,,,,,,,,,,,,,,,,,,,,,,,,,,,,,,,,,,,,,,,,,,,,,,,,,,,,,,,,,,,,,,A_15,001,2024-11-30_14h41.40.932,untitled,2024.1.5,None,2024-11-30 14h41.53.679228 +0530,
square.png,you,0,Z,,,,,,,,,11,3,47,2,,,,,,,,,267.5101314000058,,,,,,,,,,,,,,,,,,,,,,,,,,,,,,,,,,,,,,,,,,,,,,,,,,,,,,,,,,,,267.4942047000077,267.5101314000058,267.99400470001274,267.99400470001274,267.99400470001274,267.99400470001274,268.01071930000035,268.29399560000456,268.29399560000456,268.29399560000456,268.3447182000091,z,0.3494568000023719,None,268.3451439000055,268.3609572999994,269.36123580001004,269.34512370001175,,,,,,,,,,,,,,,,,,,,,,,,,,,,,,,,,,,,,,,,,,,,,,,,,,,,,,,,,,,,,,,,,,,,,,,,,,,,,,A_15,001,2024-11-30_14h41.40.932,untitled,2024.1.5,None,2024-11-30 14h41.53.679228 +0530,
square.png,stranger,1,M,,,,,,,,,12,0,48,0,,,,,,,,,269.36123580001004,,,,,,,,,,,,,,,,,,,,,,,,,,,,,,,,,,,,,,,,,,,,,,,,,,,,,,,,,,,,269.34547960000054,269.36123580001004,269.8450859000004,269.8450859000004,269.8450859000004,269.8450859000004,269.8617066000006,270.1450230000046,270.1450230000046,270.1450230000046,270.5293187000061,m,0.6750699000112945,None,270.52973520000523,270.5454139000067,271.5459319000074,271.5295996000059,,,,,,,,,,,,,,,,,,,,,,,,,,,,,,,,,,,,,,,,,,,,,,,,,,,,,,,,,,,,,,,,,,,,,,,,,,,,,,A_15,001,2024-11-30_14h41.40.932,untitled,2024.1.5,None,2024-11-30 14h41.53.679228 +0530,
triangle.png,you,1,M,,,,,,,,,12,1,49,1,,,,,,,,,271.5459319000074,,,,,,,,,,,,,,,,,,,,,,,,,,,,,,,,,,,,,,,,,,,,,,,,,,,,,,,,,,,,271.52994190000754,271.5459319000074,272.02964240001165,272.02964240001165,272.02964240001165,272.02964240001165,272.04595430000336,272.32962980000593,272.32962980000593,272.32962980000593,273.11382450000383,None,,,273.114009900004,273.12992230000964,274.1303915000026,274.11424130000523,273.12992230000964,,,,,,,,,,,,,,,,,,,,,,,,,,,,,,,,,,,,,,,,,,,,,,,,,,,,,,,,,,,,,,,,,,,,,,,,,,,,,A_15,001,2024-11-30_14h41.40.932,untitled,2024.1.5,None,2024-11-30 14h41.53.679228 +0530,
square.png,you,0,Z,,,,,,,,,12,2,50,2,,,,,,,,,274.1303915000026,,,,,,,,,,,,,,,,,,,,,,,,,,,,,,,,,,,,,,,,,,,,,,,,,,,,,,,,,,,,274.1145860000106,274.1303915000026,274.63107930000115,274.63107930000115,274.63107930000115,274.63107930000115,274.63107930000115,274.93092389999947,274.93092389999947,274.93092389999947,275.1482396000065,m,0.5010135999909835,None,275.1486828000052,275.16445740000927,276.16487930000585,276.14877949999936,,,,,,,,,,,,,,,,,,,,,,,,,,,,,,,,,,,,,,,,,,,,,,,,,,,,,,,,,,,,,,,,,,,,,,,,,,,,,,A_15,001,2024-11-30_14h41.40.932,untitled,2024.1.5,None,2024-11-30 14h41.53.679228 +0530,
triangle.png,stranger,0,Z,,,,,,,,,12,3,51,3,,,,,,,,,276.16487930000585,,,,,,,,,,,,,,,,,,,,,,,,,,,,,,,,,,,,,,,,,,,,,,,,,,,,,,,,,,,,276.14912520001235,276.16487930000585,276.64878730000055,276.64878730000055,276.64878730000055,276.64878730000055,276.66527810000116,276.9486462000059,276.9486462000059,276.9486462000059,277.4830171000067,z,0.827047600003425,None,277.4834889000049,277.49892330000876,278.49937010000576,278.48295340000186,,,,,,,,,,,,,,,,,,,,,,,,,,,,,,,,,,,,,,,,,,,,,,,,,,,,,,,,,,,,,,,,,,,,,,,,,,,,,,A_15,001,2024-11-30_14h41.40.932,untitled,2024.1.5,None,2024-11-30 14h41.53.679228 +0530,
triangle.png,stranger,0,Z,,,,,,,,,13,0,52,3,,,,,,,,,278.49937010000576,,,,,,,,,,,,,,,,,,,,,,,,,,,,,,,,,,,,,,,,,,,,,,,,,,,,,,,,,,,,278.48330310000165,278.49937010000576,278.9831133000116,278.9831133000116,278.9831133000116,278.9831133000116,278.9998154000059,279.28309890000673,279.28309890000673,279.28309890000673,279.65065100000356,m,0.6607953000057023,None,279.651071100001,279.6668353000132,280.6673177000048,280.6510402000131,,,,,,,,,,,,,,,,,,,,,,,,,,,,,,,,,,,,,,,,,,,,,,,,,,,,,,,,,,,,,,,,,,,,,,,,,,,,,,A_15,001,2024-11-30_14h41.40.932,untitled,2024.1.5,None,2024-11-30 14h41.53.679228 +0530,
square.png,stranger,1,M,,,,,,,,,13,1,53,0,,,,,,,,,280.6673177000048,,,,,,,,,,,,,,,,,,,,,,,,,,,,,,,,,,,,,,,,,,,,,,,,,,,,,,,,,,,,280.651391300009,280.6673177000048,281.150827400008,281.150827400008,281.150827400008,281.150827400008,281.1674325000058,281.4507752000063,281.4507752000063,281.4507752000063,282.0686429000052,m,0.9050187999964692,None,282.069063700008,282.0847216000111,283.0852001000021,283.0689232000004,,,,,,,,,,,,,,,,,,,,,,,,,,,,,,,,,,,,,,,,,,,,,,,,,,,,,,,,,,,,,,,,,,,,,,,,,,,,,,A_15,001,2024-11-30_14h41.40.932,untitled,2024.1.5,None,2024-11-30 14h41.53.679228 +0530,
square.png,you,0,Z,,,,,,,,,13,2,54,2,,,,,,,,,283.0852001000021,,,,,,,,,,,,,,,,,,,,,,,,,,,,,,,,,,,,,,,,,,,,,,,,,,,,,,,,,,,,283.0692689000134,283.0852001000021,283.5688599000132,283.5688599000132,283.5688599000132,283.5688599000132,283.5852725000004,283.8688548000064,283.8688548000064,283.8688548000064,284.1531326000113,z,0.5746752999984892,None,284.15354800000205,284.16882920000353,285.1695834000129,285.15336510000634,,,,,,,,,,,,,,,,,,,,,,,,,,,,,,,,,,,,,,,,,,,,,,,,,,,,,,,,,,,,,,,,,,,,,,,,,,,,,,A_15,001,2024-11-30_14h41.40.932,untitled,2024.1.5,None,2024-11-30 14h41.53.679228 +0530,
triangle.png,you,1,M,,,,,,,,,13,3,55,1,,,,,,,,,285.1695834000129,,,,,,,,,,,,,,,,,,,,,,,,,,,,,,,,,,,,,,,,,,,,,,,,,,,,,,,,,,,,285.15370780001103,285.1695834000129,285.6532038000005,285.6532038000005,285.6532038000005,285.6532038000005,285.6698732000077,285.9532998000068,285.9532998000068,285.9532998000068,286.5043089000101,m,0.842648999998346,None,286.50472310000623,286.52004860001034,287.5207158000121,287.5042877000087,,,,,,,,,,,,,,,,,,,,,,,,,,,,,,,,,,,,,,,,,,,,,,,,,,,,,,,,,,,,,,,,,,,,,,,,,,,,,,A_15,001,2024-11-30_14h41.40.932,untitled,2024.1.5,None,2024-11-30 14h41.53.679228 +0530,
triangle.png,stranger,0,Z,,,,,,,,,14,0,56,3,,,,,,,,,287.5207158000121,,,,,,,,,,,,,,,,,,,,,,,,,,,,,,,,,,,,,,,,,,,,,,,,,,,,,,,,,,,,287.50463850000233,287.5207158000121,288.0045117000118,288.0045117000118,288.0045117000118,288.0045117000118,288.02104690000124,288.30427280000004,288.30427280000004,288.30427280000004,288.38881709999987,z,0.3819796000025235,None,288.38923470000736,288.40446150000207,289.4048649000033,289.38871220000146,,,,,,,,,,,,,,,,,,,,,,,,,,,,,,,,,,,,,,,,,,,,,,,,,,,,,,,,,,,,,,,,,,,,,,,,,,,,,,A_15,001,2024-11-30_14h41.40.932,untitled,2024.1.5,None,2024-11-30 14h41.53.679228 +0530,
triangle.png,you,1,M,,,,,,,,,14,1,57,1,,,,,,,,,289.4048649000033,,,,,,,,,,,,,,,,,,,,,,,,,,,,,,,,,,,,,,,,,,,,,,,,,,,,,,,,,,,,289.38906020000286,289.4048649000033,289.88879570001154,289.88879570001154,289.88879570001154,289.88879570001154,289.90530240000226,290.1888265000016,290.1888265000016,290.1888265000016,290.4562900000019,m,0.5578143999882741,None,290.45671300000686,290.4721474000107,291.47267710001324,291.45653520000633,,,,,,,,,,,,,,,,,,,,,,,,,,,,,,,,,,,,,,,,,,,,,,,,,,,,,,,,,,,,,,,,,,,,,,,,,,,,,,A_15,001,2024-11-30_14h41.40.932,untitled,2024.1.5,None,2024-11-30 14h41.53.679228 +0530,
square.png,stranger,1,M,,,,,,,,,14,2,58,0,,,,,,,,,291.47267710001324,,,,,,,,,,,,,,,,,,,,,,,,,,,,,,,,,,,,,,,,,,,,,,,,,,,,,,,,,,,,291.4568894000113,291.47267710001324,291.95637179999903,291.95637179999903,291.95637179999903,291.95637179999903,291.9729726000078,292.25631599999906,292.25631599999906,292.25631599999906,292.6742407000129,z,0.7152052000019467,None,292.6747527000116,292.6901254000113,293.6906677000079,293.67416540000704,,,,,,,,,,,,,,,,,,,,,,,,,,,,,,,,,,,,,,,,,,,,,,,,,,,,,,,,,,,,,,,,,,,,,,,,,,,,,,A_15,001,2024-11-30_14h41.40.932,untitled,2024.1.5,None,2024-11-30 14h41.53.679228 +0530,
square.png,you,0,Z,,,,,,,,,14,3,59,2,,,,,,,,,293.6906677000079,,,,,,,,,,,,,,,,,,,,,,,,,,,,,,,,,,,,,,,,,,,,,,,,,,,,,,,,,,,,293.6745174000098,293.6906677000079,294.17419040000823,294.17419040000823,294.17419040000823,294.17419040000823,294.1908354000043,294.4741706000059,294.4741706000059,294.4741706000059,294.9920248000126,z,0.813729899993632,None,294.99244900001213,295.007855200005,296.00828990001173,295.9921758000128,,,,,,,,,,,,,,,,,,,,,,,,,,,,,,,,,,,,,,,,,,,,,,,,,,,,,,,,,,,,,,,,,,,,,,,,,,,,,,A_15,001,2024-11-30_14h41.40.932,untitled,2024.1.5,None,2024-11-30 14h41.53.679228 +0530,
square.png,you,0,Z,,,,,,,,,15,0,60,2,,,,,,,,,296.00828990001173,,,,,,,,,,,,,,,,,,,,,,,,,,,,,,,,,,,,,,,,,,,,,,,,,,,,,,,,,,,,295.9925232000096,296.00828990001173,296.4920925000042,296.4920925000042,296.4920925000042,296.4920925000042,296.5086328000034,296.79211790001136,296.79211790001136,296.79211790001136,297.50978880000184,z,1.0110550000099465,None,297.5102121000091,297.52570040000137,298.52630040000076,298.51004570000805,,,,,,,,,,,,,,,,,,,,,,,,,,,,,,,,,,,,,,,,,,,,,,,,,,,,,,,,,,,,,,,,,,,,,,,,,,,,,,A_15,001,2024-11-30_14h41.40.932,untitled,2024.1.5,None,2024-11-30 14h41.53.679228 +0530,
square.png,stranger,1,M,,,,,,,,,15,1,61,0,,,,,,,,,298.52630040000076,,,,,,,,,,,,,,,,,,,,,,,,,,,,,,,,,,,,,,,,,,,,,,,,,,,,,,,,,,,,298.5103952000063,298.52630040000076,299.009899200013,299.009899200013,299.009899200013,299.009899200013,299.02669009999954,299.3100334000046,299.3100334000046,299.3100334000046,299.74444100000255,m,0.7301735000073677,None,299.7448629999999,299.76035900000716,300.7608508000121,300.7447077000106,,,,,,,,,,,,,,,,,,,,,,,,,,,,,,,,,,,,,,,,,,,,,,,,,,,,,,,,,,,,,,,,,,,,,,,,,,,,,,A_15,001,2024-11-30_14h41.40.932,untitled,2024.1.5,None,2024-11-30 14h41.53.679228 +0530,
triangle.png,you,1,M,,,,,,,,,15,2,62,1,,,,,,,,,300.7608508000121,,,,,,,,,,,,,,,,,,,,,,,,,,,,,,,,,,,,,,,,,,,,,,,,,,,,,,,,,,,,300.7450496000092,300.7608508000121,301.24458810000215,301.24458810000215,301.24458810000215,301.24458810000215,301.2609483000124,301.54446550000284,301.54446550000284,301.54446550000284,301.97886480001034,z,0.7178389000036987,None,301.9792836000124,301.99473400000716,302.99541540000064,302.9788731000008,,,,,,,,,,,,,,,,,,,,,,,,,,,,,,,,,,,,,,,,,,,,,,,,,,,,,,,,,,,,,,,,,,,,,,,,,,,,,,A_15,001,2024-11-30_14h41.40.932,untitled,2024.1.5,None,2024-11-30 14h41.53.679228 +0530,
triangle.png,stranger,0,Z,,,,,,,,,15,3,63,3,,,,,,,,,302.99541540000064,,,,,,,,,,,,,,,,,,,,,,,,,,,,,,,,,,,,,,,,,,,,,,,,,,,,,,,,,,,,302.97921470001165,302.99541540000064,303.47899830000824,303.47899830000824,303.47899830000824,303.47899830000824,303.49570310000854,303.7790917000093,303.7790917000093,303.7790917000093,303.99640320001345,z,0.5087587000016356,None,303.9968200000003,304.0125260000059,305.0130114000058,304.99656700000924,,,,,,,,,,,,,,,,,,,,,,,,,,,,,,,,,,,,,,,,,,,,,,,,,,,,,,,,,,,,,,,,,,,,,,,,,,,,,,A_15,001,2024-11-30_14h41.40.932,untitled,2024.1.5,None,2024-11-30 14h41.53.679228 +0530,
square.png,you,0,Z,,,,,,,,,16,0,64,2,,,,,,,,,305.0130114000058,,,,,,,,,,,,,,,,,,,,,,,,,,,,,,,,,,,,,,,,,,,,,,,,,,,,,,,,,,,,304.99691250000615,305.0130114000058,305.49658170000475,305.49658170000475,305.49658170000475,305.49658170000475,305.5133491000015,305.79661150000175,305.79661150000175,305.79661150000175,306.3143388000026,z,0.8105690999946091,None,306.31475520000095,306.3303222000104,307.3310281000013,307.31455670000287,,,,,,,,,,,,,,,,,,,,,,,,,,,,,,,,,,,,,,,,,,,,,,,,,,,,,,,,,,,,,,,,,,,,,,,,,,,,,,A_15,001,2024-11-30_14h41.40.932,untitled,2024.1.5,None,2024-11-30 14h41.53.679228 +0530,
square.png,stranger,1,M,,,,,,,,,16,1,65,0,,,,,,,,,307.3310281000013,,,,,,,,,,,,,,,,,,,,,,,,,,,,,,,,,,,,,,,,,,,,,,,,,,,,,,,,,,,,307.314901500009,307.3310281000013,307.8146059999999,307.8146059999999,307.8146059999999,307.8146059999999,307.8312455000123,308.114522200005,308.114522200005,308.114522200005,308.44856970000546,m,0.6198217000055593,None,308.4489998000063,308.46480169999995,309.4651081000047,309.4488554000127,,,,,,,,,,,,,,,,,,,,,,,,,,,,,,,,,,,,,,,,,,,,,,,,,,,,,,,,,,,,,,,,,,,,,,,,,,,,,,A_15,001,2024-11-30_14h41.40.932,untitled,2024.1.5,None,2024-11-30 14h41.53.679228 +0530,
triangle.png,you,1,M,,,,,,,,,16,2,66,1,,,,,,,,,309.4651081000047,,,,,,,,,,,,,,,,,,,,,,,,,,,,,,,,,,,,,,,,,,,,,,,,,,,,,,,,,,,,309.4492073000001,309.4651081000047,309.9489641000109,309.9489641000109,309.9489641000109,309.9489641000109,309.9653607000073,310.2489765000064,310.2489765000064,310.2489765000064,310.3996876000019,m,0.4351024000061443,None,310.40010959999927,310.4157675000024,311.41628650001076,311.3999451000127,,,,,,,,,,,,,,,,,,,,,,,,,,,,,,,,,,,,,,,,,,,,,,,,,,,,,,,,,,,,,,,,,,,,,,,,,,,,,,A_15,001,2024-11-30_14h41.40.932,untitled,2024.1.5,None,2024-11-30 14h41.53.679228 +0530,
triangle.png,stranger,0,Z,,,,,,,,,16,3,67,3,,,,,,,,,311.41628650001076,,,,,,,,,,,,,,,,,,,,,,,,,,,,,,,,,,,,,,,,,,,,,,,,,,,,,,,,,,,,311.4002903000073,311.41628650001076,311.9000350000133,311.9000350000133,311.9000350000133,311.9000350000133,311.916672700012,312.1997320000082,312.1997320000082,312.1997320000082,312.200479200008,z,0.28775420000602026,None,312.20090190001065,312.21695210000325,313.2171246000071,313.2010797000112,,,,,,,,,,,,,,,,,,,,,,,,,,,,,,,,,,,,,,,,,,,,,,,,,,,,,,,,,,,,,,,,,,,,,,,,,,,,,,A_15,001,2024-11-30_14h41.40.932,untitled,2024.1.5,None,2024-11-30 14h41.53.679228 +0530,
triangle.png,stranger,0,Z,,,,,,,,,17,0,68,3,,,,,,,,,313.2171246000071,,,,,,,,,,,,,,,,,,,,,,,,,,,,,,,,,,,,,,,,,,,,,,,,,,,,,,,,,,,,313.2014242000005,313.2171246000071,313.70093550000456,313.70093550000456,313.70093550000456,313.70093550000456,313.71749380000983,314.0008641000022,314.0008641000022,314.0008641000022,314.1850340000092,z,0.4749902000039583,None,314.18544380000094,314.20106980000855,315.2013341000129,315.1851272000058,,,,,,,,,,,,,,,,,,,,,,,,,,,,,,,,,,,,,,,,,,,,,,,,,,,,,,,,,,,,,,,,,,,,,,,,,,,,,,A_15,001,2024-11-30_14h41.40.932,untitled,2024.1.5,None,2024-11-30 14h41.53.679228 +0530,
square.png,you,0,Z,,,,,,,,,17,1,69,2,,,,,,,,,315.2013341000129,,,,,,,,,,,,,,,,,,,,,,,,,,,,,,,,,,,,,,,,,,,,,,,,,,,,,,,,,,,,315.1854779000132,315.2013341000129,315.6851740000129,315.6851740000129,315.6851740000129,315.6851740000129,315.7017221999995,315.9850959000032,315.9850959000032,315.9850959000032,316.16933200000494,m,0.47740310001245234,None,316.1697511000093,316.18543320000754,317.186011400001,317.1696024000121,,,,,,,,,,,,,,,,,,,,,,,,,,,,,,,,,,,,,,,,,,,,,,,,,,,,,,,,,,,,,,,,,,,,,,,,,,,,,,A_15,001,2024-11-30_14h41.40.932,untitled,2024.1.5,None,2024-11-30 14h41.53.679228 +0530,
triangle.png,you,1,M,,,,,,,,,17,2,70,1,,,,,,,,,317.186011400001,,,,,,,,,,,,,,,,,,,,,,,,,,,,,,,,,,,,,,,,,,,,,,,,,,,,,,,,,,,,317.16995520000637,317.186011400001,317.6696927000012,317.6696927000012,317.6696927000012,317.6696927000012,317.68639560000156,317.9693922000006,317.9693922000006,317.9693922000006,318.353775399999,m,0.6703591999976197,None,318.3541986000055,318.36996630000067,319.37035430000105,319.35406520000834,,,,,,,,,,,,,,,,,,,,,,,,,,,,,,,,,,,,,,,,,,,,,,,,,,,,,,,,,,,,,,,,,,,,,,,,,,,,,,A_15,001,2024-11-30_14h41.40.932,untitled,2024.1.5,None,2024-11-30 14h41.53.679228 +0530,
square.png,stranger,1,M,,,,,,,,,17,3,71,0,,,,,,,,,319.37035430000105,,,,,,,,,,,,,,,,,,,,,,,,,,,,,,,,,,,,,,,,,,,,,,,,,,,,,,,,,,,,319.354410800006,319.37035430000105,319.85383350000484,319.85383350000484,319.85383350000484,319.85383350000484,319.8708353000111,320.15386230000877,320.15386230000877,320.15386230000877,320.32136159999936,z,0.4577456999977585,None,320.3217738000094,320.33754550000594,321.33798780001234,321.32165370001167,,,,,,,,,,,,,,,,,,,,,,,,,,,,,,,,,,,,,,,,,,,,,,,,,,,,,,,,,,,,,,,,,,,,,,,,,,,,,,A_15,001,2024-11-30_14h41.40.932,untitled,2024.1.5,None,2024-11-30 14h41.53.679228 +0530,
square.png,you,0,Z,,,,,,,,,18,0,72,2,,,,,,,,,321.33798780001234,,,,,,,,,,,,,,,,,,,,,,,,,,,,,,,,,,,,,,,,,,,,,,,,,,,,,,,,,,,,321.32200020000164,321.33798780001234,321.8216892000055,321.8216892000055,321.8216892000055,321.8216892000055,321.83808169999975,322.1215061000112,322.1215061000112,322.1215061000112,322.37262490000285,z,0.5454699999972945,None,322.37304120000044,322.3885057000007,323.388952600013,323.3728340000089,,,,,,,,,,,,,,,,,,,,,,,,,,,,,,,,,,,,,,,,,,,,,,,,,,,,,,,,,,,,,,,,,,,,,,,,,,,,,,A_15,001,2024-11-30_14h41.40.932,untitled,2024.1.5,None,2024-11-30 14h41.53.679228 +0530,
triangle.png,stranger,0,Z,,,,,,,,,18,1,73,3,,,,,,,,,323.388952600013,,,,,,,,,,,,,,,,,,,,,,,,,,,,,,,,,,,,,,,,,,,,,,,,,,,,,,,,,,,,323.37318150000647,323.388952600013,323.8728123000037,323.8728123000037,323.8728123000037,323.8728123000037,323.8893894000066,324.1727913000068,324.1727913000068,324.1727913000068,324.3236690000049,m,0.4355711000098381,None,324.3240870000009,324.3394006000017,325.33996200001275,325.3238765000133,,,,,,,,,,,,,,,,,,,,,,,,,,,,,,,,,,,,,,,,,,,,,,,,,,,,,,,,,,,,,,,,,,,,,,,,,,,,,,A_15,001,2024-11-30_14h41.40.932,untitled,2024.1.5,None,2024-11-30 14h41.53.679228 +0530,
triangle.png,you,1,M,,,,,,,,,18,2,74,1,,,,,,,,,325.33996200001275,,,,,,,,,,,,,,,,,,,,,,,,,,,,,,,,,,,,,,,,,,,,,,,,,,,,,,,,,,,,325.3242207000003,325.33996200001275,325.8237685000058,325.8237685000058,325.8237685000058,325.8237685000058,325.84034120000433,326.1237509000057,326.1237509000057,326.1237509000057,326.32481890000054,m,0.4991278999950737,None,326.3252341000043,326.34063830001105,327.3410672000027,327.324663899999,,,,,,,,,,,,,,,,,,,,,,,,,,,,,,,,,,,,,,,,,,,,,,,,,,,,,,,,,,,,,,,,,,,,,,,,,,,,,,A_15,001,2024-11-30_14h41.40.932,untitled,2024.1.5,None,2024-11-30 14h41.53.679228 +0530,
square.png,stranger,1,M,,,,,,,,,18,3,75,0,,,,,,,,,327.3410672000027,,,,,,,,,,,,,,,,,,,,,,,,,,,,,,,,,,,,,,,,,,,,,,,,,,,,,,,,,,,,327.3250148000079,327.3410672000027,327.8247407000017,327.8247407000017,327.8247407000017,327.8247407000017,327.8411954000039,328.12483559999964,328.12483559999964,328.12483559999964,328.90873230001307,None,,,328.9089224000054,328.92500480001036,329.92562069999985,329.90955550000945,328.92500480001036,,,,,,,,,,,,,,,,,,,,,,,,,,,,,,,,,,,,,,,,,,,,,,,,,,,,,,,,,,,,,,,,,,,,,,,,,,,,,A_15,001,2024-11-30_14h41.40.932,untitled,2024.1.5,None,2024-11-30 14h41.53.679228 +0530,
square.png,stranger,1,M,,,,,,,,,19,0,76,0,,,,,,,,,329.92562069999985,,,,,,,,,,,,,,,,,,,,,,,,,,,,,,,,,,,,,,,,,,,,,,,,,,,,,,,,,,,,329.9098994000087,329.92562069999985,330.4262776000105,330.4262776000105,330.4262776000105,330.4262776000105,330.4262776000105,330.72619410000334,330.72619410000334,330.72619410000334,331.37711830000626,z,0.9361513000039849,None,331.37753760001215,331.39305640000384,332.3937095000001,332.3774986000062,,,,,,,,,,,,,,,,,,,,,,,,,,,,,,,,,,,,,,,,,,,,,,,,,,,,,,,,,,,,,,,,,,,,,,,,,,,,,,A_15,001,2024-11-30_14h41.40.932,untitled,2024.1.5,None,2024-11-30 14h41.53.679228 +0530,
triangle.png,you,1,M,,,,,,,,,19,1,77,1,,,,,,,,,332.3937095000001,,,,,,,,,,,,,,,,,,,,,,,,,,,,,,,,,,,,,,,,,,,,,,,,,,,,,,,,,,,,332.37784990000364,332.3937095000001,332.877462000004,332.877462000004,332.877462000004,332.877462000004,332.8939558999991,333.17730900000606,333.17730900000606,333.17730900000606,333.2280807000061,m,0.3370331000041915,None,333.22852870001225,333.2438678000035,334.2446963000111,334.2282004000008,,,,,,,,,,,,,,,,,,,,,,,,,,,,,,,,,,,,,,,,,,,,,,,,,,,,,,,,,,,,,,,,,,,,,,,,,,,,,,A_15,001,2024-11-30_14h41.40.932,untitled,2024.1.5,None,2024-11-30 14h41.53.679228 +0530,
square.png,you,0,Z,,,,,,,,,19,2,78,2,,,,,,,,,334.2446963000111,,,,,,,,,,,,,,,,,,,,,,,,,,,,,,,,,,,,,,,,,,,,,,,,,,,,,,,,,,,,334.22854560000997,334.2446963000111,334.72819620001246,334.72819620001246,334.72819620001246,334.72819620001246,334.74486120000074,335.0283419000043,335.0283419000043,335.0283419000043,335.21228790000896,m,0.47502349999558646,None,335.2127019000036,335.22845600001165,336.2288656000019,336.2126494000113,,,,,,,,,,,,,,,,,,,,,,,,,,,,,,,,,,,,,,,,,,,,,,,,,,,,,,,,,,,,,,,,,,,,,,,,,,,,,,A_15,001,2024-11-30_14h41.40.932,untitled,2024.1.5,None,2024-11-30 14h41.53.679228 +0530,
triangle.png,stranger,0,Z,,,,,,,,,19,3,79,3,,,,,,,,,336.2288656000019,,,,,,,,,,,,,,,,,,,,,,,,,,,,,,,,,,,,,,,,,,,,,,,,,,,,,,,,,,,,336.2129958000005,336.2288656000019,336.7124867000093,336.7124867000093,336.7124867000093,336.7124867000093,336.7292565000098,337.0125998000003,337.0125998000003,337.0125998000003,337.6805059000035,m,0.9617448999924818,None,337.6809218000126,337.69650080001156,338.69667290001235,338.6807547000062,,,,,,,,,,,,,,,,,,,,,,,,,,,,,,,,,,,,,,,,,,,,,,,,,,,,,,,,,,,,,,,,,,,,,,,,,,,,,,A_15,001,2024-11-30_14h41.40.932,untitled,2024.1.5,None,2024-11-30 14h41.53.679228 +0530,
triangle.png,stranger,0,Z,,,,,,,,,20,0,80,3,,,,,,,,,338.69667290001235,,,,,,,,,,,,,,,,,,,,,,,,,,,,,,,,,,,,,,,,,,,,,,,,,,,,,,,,,,,,338.68111090001184,338.69667290001235,339.18053430000145,339.18053430000145,339.18053430000145,339.18053430000145,339.19717720001063,339.4806493000069,339.4806493000069,339.4806493000069,339.64797700000054,z,0.4587549999996554,None,339.6484068999998,339.66400600000634,340.6643028000108,340.6481288000068,,,,,,,,,,,,,,,,,,,,,,,,,,,,,,,,,,,,,,,,,,,,,,,,,,,,,,,,,,,,,,,,,,,,,,,,,,,,,,A_15,001,2024-11-30_14h41.40.932,untitled,2024.1.5,None,2024-11-30 14h41.53.679228 +0530,
triangle.png,you,1,M,,,,,,,,,20,1,81,1,,,,,,,,,340.6643028000108,,,,,,,,,,,,,,,,,,,,,,,,,,,,,,,,,,,,,,,,,,,,,,,,,,,,,,,,,,,,340.64848060000804,340.6643028000108,341.14810210000724,341.14810210000724,341.14810210000724,341.14810210000724,341.16474460001336,341.44811019999906,341.44811019999906,341.44811019999906,341.7992384000099,m,0.6354439000133425,None,341.79966160000185,341.81492220000655,342.8155497000116,342.7994260000123,,,,,,,,,,,,,,,,,,,,,,,,,,,,,,,,,,,,,,,,,,,,,,,,,,,,,,,,,,,,,,,,,,,,,,,,,,,,,,A_15,001,2024-11-30_14h41.40.932,untitled,2024.1.5,None,2024-11-30 14h41.53.679228 +0530,
square.png,you,0,Z,,,,,,,,,20,2,82,2,,,,,,,,,342.8155497000116,,,,,,,,,,,,,,,,,,,,,,,,,,,,,,,,,,,,,,,,,,,,,,,,,,,,,,,,,,,,342.79977399999916,342.8155497000116,343.2993121000036,343.2993121000036,343.2993121000036,343.2993121000036,343.316035300013,343.5994633000082,343.5994633000082,343.5994633000082,343.98374180000974,z,0.6691447000048356,None,343.984156800012,343.9996400000091,344.9999412000034,344.9840064000018,,,,,,,,,,,,,,,,,,,,,,,,,,,,,,,,,,,,,,,,,,,,,,,,,,,,,,,,,,,,,,,,,,,,,,,,,,,,,,A_15,001,2024-11-30_14h41.40.932,untitled,2024.1.5,None,2024-11-30 14h41.53.679228 +0530,
square.png,stranger,1,M,,,,,,,,,20,3,83,0,,,,,,,,,344.9999412000034,,,,,,,,,,,,,,,,,,,,,,,,,,,,,,,,,,,,,,,,,,,,,,,,,,,,,,,,,,,,344.9843511000072,344.9999412000034,345.48396610000054,345.48396610000054,345.48396610000054,345.48396610000054,345.5007866000087,345.7835735000117,345.7835735000117,345.7835735000117,346.2180503000127,m,0.7263711999985389,None,346.2184702000086,346.2341490000108,347.23453940000036,347.21815260000585,,,,,,,,,,,,,,,,,,,,,,,,,,,,,,,,,,,,,,,,,,,,,,,,,,,,,,,,,,,,,,,,,,,,,,,,,,,,,,A_15,001,2024-11-30_14h41.40.932,untitled,2024.1.5,None,2024-11-30 14h41.53.679228 +0530,
triangle.png,you,1,M,,,,,,,,,21,0,84,1,,,,,,,,,347.23453940000036,,,,,,,,,,,,,,,,,,,,,,,,,,,,,,,,,,,,,,,,,,,,,,,,,,,,,,,,,,,,347.2185038000025,347.23453940000036,347.7182312000077,347.7182312000077,347.7182312000077,347.7182312000077,347.7347933000128,348.0182261000009,348.0182261000009,348.0182261000009,348.20240820001345,m,0.47361450000607874,None,348.2028371000051,348.2182998000062,349.2189512000041,349.20273050000833,,,,,,,,,,,,,,,,,,,,,,,,,,,,,,,,,,,,,,,,,,,,,,,,,,,,,,,,,,,,,,,,,,,,,,,,,,,,,,A_15,001,2024-11-30_14h41.40.932,untitled,2024.1.5,None,2024-11-30 14h41.53.679228 +0530,
square.png,stranger,1,M,,,,,,,,,21,1,85,0,,,,,,,,,349.2189512000041,,,,,,,,,,,,,,,,,,,,,,,,,,,,,,,,,,,,,,,,,,,,,,,,,,,,,,,,,,,,349.20307620000676,349.2189512000041,349.7027577000117,349.7027577000117,349.7027577000117,349.7027577000117,349.71926990000065,350.002751100008,350.002751100008,350.002751100008,350.32008660001156,z,0.6007077999965986,None,350.32055290001153,350.3360360000079,351.3366429000016,351.3204030000052,,,,,,,,,,,,,,,,,,,,,,,,,,,,,,,,,,,,,,,,,,,,,,,,,,,,,,,,,,,,,,,,,,,,,,,,,,,,,,A_15,001,2024-11-30_14h41.40.932,untitled,2024.1.5,None,2024-11-30 14h41.53.679228 +0530,
triangle.png,stranger,0,Z,,,,,,,,,21,2,86,3,,,,,,,,,351.3366429000016,,,,,,,,,,,,,,,,,,,,,,,,,,,,,,,,,,,,,,,,,,,,,,,,,,,,,,,,,,,,351.3207461000129,351.3366429000016,351.8202569999994,351.8202569999994,351.8202569999994,351.8202569999994,351.83676689999993,352.1201979000034,352.1201979000034,352.1201979000034,352.6879336999991,z,0.8554264999984298,None,352.6883906000003,352.7040823000134,353.70458320000034,353.68836759999976,,,,,,,,,,,,,,,,,,,,,,,,,,,,,,,,,,,,,,,,,,,,,,,,,,,,,,,,,,,,,,,,,,,,,,,,,,,,,,A_15,001,2024-11-30_14h41.40.932,untitled,2024.1.5,None,2024-11-30 14h41.53.679228 +0530,
square.png,you,0,Z,,,,,,,,,21,3,87,2,,,,,,,,,353.70458320000034,,,,,,,,,,,,,,,,,,,,,,,,,,,,,,,,,,,,,,,,,,,,,,,,,,,,,,,,,,,,353.6887590000115,353.70458320000034,354.1879205000005,354.1879205000005,354.1879205000005,354.1879205000005,354.20501770000556,354.48824020000757,354.48824020000757,354.48824020000757,354.9891157000093,m,0.7866910000011558,None,354.9895331000007,355.00538290000986,356.00568290000956,355.9896099000034,,,,,,,,,,,,,,,,,,,,,,,,,,,,,,,,,,,,,,,,,,,,,,,,,,,,,,,,,,,,,,,,,,,,,,,,,,,,,,A_15,001,2024-11-30_14h41.40.932,untitled,2024.1.5,None,2024-11-30 14h41.53.679228 +0530,
triangle.png,stranger,0,Z,,,,,,,,,22,0,88,3,,,,,,,,,356.00568290000956,,,,,,,,,,,,,,,,,,,,,,,,,,,,,,,,,,,,,,,,,,,,,,,,,,,,,,,,,,,,355.9899548000103,356.00568290000956,356.4892811000027,356.4892811000027,356.4892811000027,356.4892811000027,356.50617750000674,356.78943509999954,356.78943509999954,356.78943509999954,357.1068207000062,z,0.6024809999944409,None,357.1072367000015,357.12304900000163,358.123382100006,358.1073711000063,,,,,,,,,,,,,,,,,,,,,,,,,,,,,,,,,,,,,,,,,,,,,,,,,,,,,,,,,,,,,,,,,,,,,,,,,,,,,,A_15,001,2024-11-30_14h41.40.932,untitled,2024.1.5,None,2024-11-30 14h41.53.679228 +0530,
square.png,you,0,Z,,,,,,,,,22,1,89,2,,,,,,,,,358.123382100006,,,,,,,,,,,,,,,,,,,,,,,,,,,,,,,,,,,,,,,,,,,,,,,,,,,,,,,,,,,,358.1077306000079,358.123382100006,358.60722070001066,358.60722070001066,358.60722070001066,358.60722070001066,358.6236962000112,358.90716830000747,358.90716830000747,358.90716830000747,359.2246401000011,m,0.6127321999956621,None,359.2250551000034,359.24091720000433,360.24118130000716,360.2250547000003,,,,,,,,,,,,,,,,,,,,,,,,,,,,,,,,,,,,,,,,,,,,,,,,,,,,,,,,,,,,,,,,,,,,,,,,,,,,,,A_15,001,2024-11-30_14h41.40.932,untitled,2024.1.5,None,2024-11-30 14h41.53.679228 +0530,
triangle.png,you,1,M,,,,,,,,,22,2,90,1,,,,,,,,,360.24118130000716,,,,,,,,,,,,,,,,,,,,,,,,,,,,,,,,,,,,,,,,,,,,,,,,,,,,,,,,,,,,360.2253985999996,360.24118130000716,360.7248314000026,360.7248314000026,360.7248314000026,360.7248314000026,360.7415447000094,361.0248409000051,361.0248409000051,361.0248409000051,361.42554470000323,m,0.698458800005028,None,361.4259640000091,361.4418551000126,362.4422690000065,362.42603420000523,,,,,,,,,,,,,,,,,,,,,,,,,,,,,,,,,,,,,,,,,,,,,,,,,,,,,,,,,,,,,,,,,,,,,,,,,,,,,,A_15,001,2024-11-30_14h41.40.932,untitled,2024.1.5,None,2024-11-30 14h41.53.679228 +0530,
square.png,stranger,1,M,,,,,,,,,22,3,91,0,,,,,,,,,362.4422690000065,,,,,,,,,,,,,,,,,,,,,,,,,,,,,,,,,,,,,,,,,,,,,,,,,,,,,,,,,,,,362.42637660000764,362.4422690000065,362.92605190000904,362.92605190000904,362.92605190000904,362.92605190000904,362.94254440000805,363.22580500000913,363.22580500000913,363.22580500000913,363.44356480000715,z,0.5010849999962375,None,363.44397940000636,363.45943670001,364.4599164000101,364.443755100001,,,,,,,,,,,,,,,,,,,,,,,,,,,,,,,,,,,,,,,,,,,,,,,,,,,,,,,,,,,,,,,,,,,,,,,,,,,,,,A_15,001,2024-11-30_14h41.40.932,untitled,2024.1.5,None,2024-11-30 14h41.53.679228 +0530,
square.png,stranger,1,M,,,,,,,,,23,0,92,0,,,,,,,,,364.4599164000101,,,,,,,,,,,,,,,,,,,,,,,,,,,,,,,,,,,,,,,,,,,,,,,,,,,,,,,,,,,,364.4441063000122,364.4599164000101,364.9436268999998,364.9436268999998,364.9436268999998,364.9436268999998,364.9601716000034,365.24356070000795,365.24356070000795,365.24356070000795,365.7779213000031,m,0.826721000004909,None,365.77834010000515,365.79397530001006,366.79461530000845,366.77838590000465,,,,,,,,,,,,,,,,,,,,,,,,,,,,,,,,,,,,,,,,,,,,,,,,,,,,,,,,,,,,,,,,,,,,,,,,,,,,,,A_15,001,2024-11-30_14h41.40.932,untitled,2024.1.5,None,2024-11-30 14h41.53.679228 +0530,
triangle.png,stranger,0,Z,,,,,,,,,23,1,93,3,,,,,,,,,366.79461530000845,,,,,,,,,,,,,,,,,,,,,,,,,,,,,,,,,,,,,,,,,,,,,,,,,,,,,,,,,,,,366.7787296000024,366.79461530000845,367.27808840000944,367.27808840000944,367.27808840000944,367.27808840000944,367.29492030000256,367.57816610000737,367.57816610000737,367.57816610000737,368.0625280000095,z,0.7733473999978742,None,368.06294020000496,368.07853780000005,369.07905910001136,369.06292940001003,,,,,,,,,,,,,,,,,,,,,,,,,,,,,,,,,,,,,,,,,,,,,,,,,,,,,,,,,,,,,,,,,,,,,,,,,,,,,,A_15,001,2024-11-30_14h41.40.932,untitled,2024.1.5,None,2024-11-30 14h41.53.679228 +0530,
triangle.png,you,1,M,,,,,,,,,23,2,94,1,,,,,,,,,369.07905910001136,,,,,,,,,,,,,,,,,,,,,,,,,,,,,,,,,,,,,,,,,,,,,,,,,,,,,,,,,,,,369.0632706000033,369.07905910001136,369.56289780000225,369.56289780000225,369.56289780000225,369.56289780000225,369.5793801000109,369.86264970000775,369.86264970000775,369.86264970000775,370.2136111,m,0.6354809000040404,None,370.2140533000056,370.22972510001273,371.2301342999999,371.2137864000106,,,,,,,,,,,,,,,,,,,,,,,,,,,,,,,,,,,,,,,,,,,,,,,,,,,,,,,,,,,,,,,,,,,,,,,,,,,,,,A_15,001,2024-11-30_14h41.40.932,untitled,2024.1.5,None,2024-11-30 14h41.53.679228 +0530,
square.png,you,0,Z,,,,,,,,,23,3,95,2,,,,,,,,,371.2301342999999,,,,,,,,,,,,,,,,,,,,,,,,,,,,,,,,,,,,,,,,,,,,,,,,,,,,,,,,,,,,371.21413640001265,371.2301342999999,371.71385210000153,371.71385210000153,371.71385210000153,371.71385210000153,371.73031600000104,372.0138309000031,372.0138309000031,372.0138309000031,372.48153450000973,m,0.7530960000003688,None,372.4819618000038,372.49728130000585,373.4977789000113,373.481643600011,,,,,,,,,,,,,,,,,,,,,,,,,,,,,,,,,,,,,,,,,,,,,,,,,,,,,,,,,,,,,,,,,,,,,,,,,,,,,,A_15,001,2024-11-30_14h41.40.932,untitled,2024.1.5,None,2024-11-30 14h41.53.679228 +0530,
triangle.png,stranger,0,Z,,,,,,,,,24,0,96,3,,,,,,,,,373.4977789000113,,,,,,,,,,,,,,,,,,,,,,,,,,,,,,,,,,,,,,,,,,,,,,,,,,,,,,,,,,,,373.48199900001055,373.4977789000113,373.98161480001,373.98161480001,373.98161480001,373.98161480001,373.9983968000015,374.2815651000128,374.2815651000128,374.2815651000128,374.7324878000072,z,0.7496083000005456,None,374.7329022000049,374.748594100005,375.7492224000016,375.7326548000128,,,,,,,,,,,,,,,,,,,,,,,,,,,,,,,,,,,,,,,,,,,,,,,,,,,,,,,,,,,,,,,,,,,,,,,,,,,,,,A_15,001,2024-11-30_14h41.40.932,untitled,2024.1.5,None,2024-11-30 14h41.53.679228 +0530,
triangle.png,you,1,M,,,,,,,,,24,1,97,1,,,,,,,,,375.7492224000016,,,,,,,,,,,,,,,,,,,,,,,,,,,,,,,,,,,,,,,,,,,,,,,,,,,,,,,,,,,,375.7330018000066,375.7492224000016,376.2329432000115,376.2329432000115,376.2329432000115,376.2329432000115,376.24959550000494,376.5329486000119,376.5329486000119,376.5329486000119,376.91736940000555,m,0.6824625000008382,None,376.91778980000527,376.9330975000048,377.93354670000554,377.91716180001094,,,,,,,,,,,,,,,,,,,,,,,,,,,,,,,,,,,,,,,,,,,,,,,,,,,,,,,,,,,,,,,,,,,,,,,,,,,,,,A_15,001,2024-11-30_14h41.40.932,untitled,2024.1.5,None,2024-11-30 14h41.53.679228 +0530,
square.png,stranger,1,M,,,,,,,,,24,2,98,0,,,,,,,,,377.93354670000554,,,,,,,,,,,,,,,,,,,,,,,,,,,,,,,,,,,,,,,,,,,,,,,,,,,,,,,,,,,,377.9175019000104,377.93354670000554,378.4171934000042,378.4171934000042,378.4171934000042,378.4171934000042,378.4339081000071,378.71713610000734,378.71713610000734,378.71713610000734,379.23493090001284,z,0.8099880999943707,None,379.2353492000111,379.250884699999,380.25137800000084,380.2353320000111,,,,,,,,,,,,,,,,,,,,,,,,,,,,,,,,,,,,,,,,,,,,,,,,,,,,,,,,,,,,,,,,,,,,,,,,,,,,,,A_15,001,2024-11-30_14h41.40.932,untitled,2024.1.5,None,2024-11-30 14h41.53.679228 +0530,
square.png,you,0,Z,,,,,,,,,24,3,99,2,,,,,,,,,380.25137800000084,,,,,,,,,,,,,,,,,,,,,,,,,,,,,,,,,,,,,,,,,,,,,,,,,,,,,,,,,,,,380.2356836000108,380.25137800000084,380.73504550001235,380.73504550001235,380.73504550001235,380.73504550001235,380.75179970001045,381.0350432000123,381.0350432000123,381.0350432000123,381.38622050000413,m,0.6481672999943839,None,381.38667120000173,381.4021364000073,382.4026106000092,382.38623090001056,,,,,,,,,,,,,,,,,,,,,,,,,,,,,,,,,,,,,,,,,,,,,,,,,,,,,,,,,,,,,,,,,,,,,,,,,,,,,,A_15,001,2024-11-30_14h41.40.932,untitled,2024.1.5,None,2024-11-30 14h41.53.679228 +0530,
square.png,you,0,Z,,,,,,,,,25,0,100,2,,,,,,,,,382.4026106000092,,,,,,,,,,,,,,,,,,,,,,,,,,,,,,,,,,,,,,,,,,,,,,,,,,,,,,,,,,,,382.38656900000933,382.4026106000092,382.8861065000092,382.8861065000092,382.8861065000092,382.8861065000092,382.9026642000099,383.1861120000103,383.1861120000103,383.1861120000103,383.4705038000102,m,0.5687485999951605,None,383.4709287000005,383.48646520001057,384.48692930000834,384.47065800000564,,,,,,,,,,,,,,,,,,,,,,,,,,,,,,,,,,,,,,,,,,,,,,,,,,,,,,,,,,,,,,,,,,,,,,,,,,,,,,A_15,001,2024-11-30_14h41.40.932,untitled,2024.1.5,None,2024-11-30 14h41.53.679228 +0530,
triangle.png,stranger,0,Z,,,,,,,,,25,1,101,3,,,,,,,,,384.48692930000834,,,,,,,,,,,,,,,,,,,,,,,,,,,,,,,,,,,,,,,,,,,,,,,,,,,,,,,,,,,,384.471013900009,384.48692930000834,384.97071320000396,384.97071320000396,384.97071320000396,384.97071320000396,384.98734140000306,385.2706736000109,385.2706736000109,385.2706736000109,385.77152770000976,z,0.7851843999960693,None,385.77194320000126,385.7876961000002,386.78794200000993,386.77179670000623,,,,,,,,,,,,,,,,,,,,,,,,,,,,,,,,,,,,,,,,,,,,,,,,,,,,,,,,,,,,,,,,,,,,,,,,,,,,,,A_15,001,2024-11-30_14h41.40.932,untitled,2024.1.5,None,2024-11-30 14h41.53.679228 +0530,
triangle.png,you,1,M,,,,,,,,,25,2,102,1,,,,,,,,,386.78794200000993,,,,,,,,,,,,,,,,,,,,,,,,,,,,,,,,,,,,,,,,,,,,,,,,,,,,,,,,,,,,386.7721418000001,386.78794200000993,387.2720107000059,387.2720107000059,387.2720107000059,387.2720107000059,387.28824390000955,387.57184420000704,387.57184420000704,387.57184420000704,388.3559322000074,None,,,388.3561187000014,388.37247590000334,389.3724355000013,389.35619420000876,388.37247590000334,,,,,,,,,,,,,,,,,,,,,,,,,,,,,,,,,,,,,,,,,,,,,,,,,,,,,,,,,,,,,,,,,,,,,,,,,,,,,A_15,001,2024-11-30_14h41.40.932,untitled,2024.1.5,None,2024-11-30 14h41.53.679228 +0530,
square.png,stranger,1,M,,,,,,,,,25,3,103,0,,,,,,,,,389.3724355000013,,,,,,,,,,,,,,,,,,,,,,,,,,,,,,,,,,,,,,,,,,,,,,,,,,,,,,,,,,,,389.35654510000313,389.3724355000013,389.8729287000024,389.8729287000024,389.8729287000024,389.8729287000024,389.8729287000024,390.1731642000086,390.1731642000086,390.1731642000086,390.5071742,z,0.6221743999922182,None,390.5076141000027,390.5234505000117,391.5239552999992,391.50762470001064,,,,,,,,,,,,,,,,,,,,,,,,,,,,,,,,,,,,,,,,,,,,,,,,,,,,,,,,,,,,,,,,,,,,,,,,,,,,,,A_15,001,2024-11-30_14h41.40.932,untitled,2024.1.5,None,2024-11-30 14h41.53.679228 +0530,
triangle.png,you,1,M,,,,,,,,,26,0,104,1,,,,,,,,,391.5239552999992,,,,,,,,,,,,,,,,,,,,,,,,,,,,,,,,,,,,,,,,,,,,,,,,,,,,,,,,,,,,391.508044400005,391.5239552999992,392.00767070001166,392.00767070001166,392.00767070001166,392.00767070001166,392.0241368999996,392.30770550000307,392.30770550000307,392.30770550000307,392.541636000009,m,0.5280478000058793,None,392.5420579000056,392.55778570000257,393.55816450000566,393.5420951000124,,,,,,,,,,,,,,,,,,,,,,,,,,,,,,,,,,,,,,,,,,,,,,,,,,,,,,,,,,,,,,,,,,,,,,,,,,,,,,A_15,001,2024-11-30_14h41.40.932,untitled,2024.1.5,None,2024-11-30 14h41.53.679228 +0530,
triangle.png,stranger,0,Z,,,,,,,,,26,1,105,3,,,,,,,,,393.55816450000566,,,,,,,,,,,,,,,,,,,,,,,,,,,,,,,,,,,,,,,,,,,,,,,,,,,,,,,,,,,,393.54244100001233,393.55816450000566,394.0420255000063,394.0420255000063,394.0420255000063,394.0420255000063,394.058457200008,394.341974400013,394.341974400013,394.341974400013,394.94294370000716,z,0.8892169000027934,None,394.94336970000586,394.9590459000028,395.9593614000041,395.9432663000043,,,,,,,,,,,,,,,,,,,,,,,,,,,,,,,,,,,,,,,,,,,,,,,,,,,,,,,,,,,,,,,,,,,,,,,,,,,,,,A_15,001,2024-11-30_14h41.40.932,untitled,2024.1.5,None,2024-11-30 14h41.53.679228 +0530,
square.png,you,0,Z,,,,,,,,,26,2,106,2,,,,,,,,,395.9593614000041,,,,,,,,,,,,,,,,,,,,,,,,,,,,,,,,,,,,,,,,,,,,,,,,,,,,,,,,,,,,395.943620200007,395.9593614000041,396.4431857000018,396.4431857000018,396.4431857000018,396.4431857000018,396.45984610001324,396.74311890000536,396.74311890000536,396.74311890000536,397.1443425000034,m,0.6990882999962196,None,397.1447584000125,397.15994130000763,398.16071080000256,398.1443571000127,,,,,,,,,,,,,,,,,,,,,,,,,,,,,,,,,,,,,,,,,,,,,,,,,,,,,,,,,,,,,,,,,,,,,,,,,,,,,,A_15,001,2024-11-30_14h41.40.932,untitled,2024.1.5,None,2024-11-30 14h41.53.679228 +0530,
square.png,stranger,1,M,,,,,,,,,26,3,107,0,,,,,,,,,398.16071080000256,,,,,,,,,,,,,,,,,,,,,,,,,,,,,,,,,,,,,,,,,,,,,,,,,,,,,,,,,,,,398.1447135000053,398.16071080000256,398.64436930000375,398.64436930000375,398.64436930000375,398.64436930000375,398.6608042000007,398.94438920001267,398.94438920001267,398.94438920001267,399.3620695999998,z,0.7106367999949725,None,399.3624841000128,399.3780376000068,400.3784600000072,400.3621936000127,,,,,,,,,,,,,,,,,,,,,,,,,,,,,,,,,,,,,,,,,,,,,,,,,,,,,,,,,,,,,,,,,,,,,,,,,,,,,,A_15,001,2024-11-30_14h41.40.932,untitled,2024.1.5,None,2024-11-30 14h41.53.679228 +0530,
triangle.png,you,1,M,,,,,,,,,27,0,108,1,,,,,,,,,400.3784600000072,,,,,,,,,,,,,,,,,,,,,,,,,,,,,,,,,,,,,,,,,,,,,,,,,,,,,,,,,,,,400.3625364000036,400.3784600000072,400.8622355000116,400.8622355000116,400.8622355000116,400.8622355000116,400.87859630001185,401.1621815000108,401.1621815000108,401.1621815000108,401.76299480001035,m,0.8887299000052735,None,401.7634136000124,401.77907720000076,402.7797055000119,402.7634762000089,,,,,,,,,,,,,,,,,,,,,,,,,,,,,,,,,,,,,,,,,,,,,,,,,,,,,,,,,,,,,,,,,,,,,,,,,,,,,,A_15,001,2024-11-30_14h41.40.932,untitled,2024.1.5,None,2024-11-30 14h41.53.679228 +0530,
square.png,stranger,1,M,,,,,,,,,27,1,109,0,,,,,,,,,402.7797055000119,,,,,,,,,,,,,,,,,,,,,,,,,,,,,,,,,,,,,,,,,,,,,,,,,,,,,,,,,,,,402.7638242000103,402.7797055000119,403.263403200006,403.263403200006,403.263403200006,403.263403200006,403.2800791000045,403.56329480001295,403.56329480001295,403.56329480001295,403.9141665000061,z,0.6353974999947241,None,403.9146185999998,403.9301303000102,404.9307167000079,404.91434810000646,,,,,,,,,,,,,,,,,,,,,,,,,,,,,,,,,,,,,,,,,,,,,,,,,,,,,,,,,,,,,,,,,,,,,,,,,,,,,,A_15,001,2024-11-30_14h41.40.932,untitled,2024.1.5,None,2024-11-30 14h41.53.679228 +0530,
square.png,you,0,Z,,,,,,,,,27,2,110,2,,,,,,,,,404.9307167000079,,,,,,,,,,,,,,,,,,,,,,,,,,,,,,,,,,,,,,,,,,,,,,,,,,,,,,,,,,,,404.91469309999957,404.9307167000079,405.4143699000124,405.4143699000124,405.4143699000124,405.4143699000124,405.4309288000077,405.7144571000099,405.7144571000099,405.7144571000099,406.3320841000095,z,0.9119206000032136,None,406.3325035000016,406.34811450001143,407.34873190001235,407.33245070000703,,,,,,,,,,,,,,,,,,,,,,,,,,,,,,,,,,,,,,,,,,,,,,,,,,,,,,,,,,,,,,,,,,,,,,,,,,,,,,A_15,001,2024-11-30_14h41.40.932,untitled,2024.1.5,None,2024-11-30 14h41.53.679228 +0530,
triangle.png,stranger,0,Z,,,,,,,,,27,3,111,3,,,,,,,,,407.34873190001235,,,,,,,,,,,,,,,,,,,,,,,,,,,,,,,,,,,,,,,,,,,,,,,,,,,,,,,,,,,,407.3328298000124,407.34873190001235,407.83243010001024,407.83243010001024,407.83243010001024,407.83243010001024,407.8491035000043,408.13237650001247,408.13237650001247,408.13237650001247,408.5830871000071,z,0.7470801000017673,None,408.583524200003,408.59938320000947,409.5998428000021,409.5833405000012,,,,,,,,,,,,,,,,,,,,,,,,,,,,,,,,,,,,,,,,,,,,,,,,,,,,,,,,,,,,,,,,,,,,,,,,,,,,,,A_15,001,2024-11-30_14h41.40.932,untitled,2024.1.5,None,2024-11-30 14h41.53.679228 +0530,
triangle.png,you,1,M,,,,,,,,,28,0,112,1,,,,,,,,,409.5998428000021,,,,,,,,,,,,,,,,,,,,,,,,,,,,,,,,,,,,,,,,,,,,,,,,,,,,,,,,,,,,409.58368110000447,409.5998428000021,410.08339010000054,410.08339010000054,410.08339010000054,410.08339010000054,410.1001144000038,410.3833553000004,410.3833553000004,410.3833553000004,410.80137220000324,m,0.7160254000045825,None,410.80182440001226,410.8170106000034,411.8175756000128,411.8013711000094,,,,,,,,,,,,,,,,,,,,,,,,,,,,,,,,,,,,,,,,,,,,,,,,,,,,,,,,,,,,,,,,,,,,,,,,,,,,,,A_15,001,2024-11-30_14h41.40.932,untitled,2024.1.5,None,2024-11-30 14h41.53.679228 +0530,
square.png,you,0,Z,,,,,,,,,28,1,113,2,,,,,,,,,411.8175756000128,,,,,,,,,,,,,,,,,,,,,,,,,,,,,,,,,,,,,,,,,,,,,,,,,,,,,,,,,,,,411.80171340001107,411.8175756000128,412.3013279000006,412.3013279000006,412.3013279000006,412.3013279000006,412.3179853000038,412.6012741000013,412.6012741000013,412.6012741000013,413.085636600008,z,0.7775649999966845,None,413.0860529000056,413.10173249999934,414.1020850000059,414.08588760001294,,,,,,,,,,,,,,,,,,,,,,,,,,,,,,,,,,,,,,,,,,,,,,,,,,,,,,,,,,,,,,,,,,,,,,,,,,,,,,A_15,001,2024-11-30_14h41.40.932,untitled,2024.1.5,None,2024-11-30 14h41.53.679228 +0530,
triangle.png,stranger,0,Z,,,,,,,,,28,2,114,3,,,,,,,,,414.1020850000059,,,,,,,,,,,,,,,,,,,,,,,,,,,,,,,,,,,,,,,,,,,,,,,,,,,,,,,,,,,,414.0862361000036,414.1020850000059,414.58584710001014,414.58584710001014,414.58584710001014,414.58584710001014,414.60250940000697,414.8857044000033,414.8857044000033,414.8857044000033,415.3535394000064,z,0.7539685999945505,None,415.3539854000119,415.3692657000065,416.36974880000344,416.35363190001226,,,,,,,,,,,,,,,,,,,,,,,,,,,,,,,,,,,,,,,,,,,,,,,,,,,,,,,,,,,,,,,,,,,,,,,,,,,,,,A_15,001,2024-11-30_14h41.40.932,untitled,2024.1.5,None,2024-11-30 14h41.53.679228 +0530,
square.png,stranger,1,M,,,,,,,,,28,3,115,0,,,,,,,,,416.36974880000344,,,,,,,,,,,,,,,,,,,,,,,,,,,,,,,,,,,,,,,,,,,,,,,,,,,,,,,,,,,,416.35398500000883,416.36974880000344,416.85359400000016,416.85359400000016,416.85359400000016,416.85359400000016,416.87016440001025,417.15364460001,417.15364460001,417.15364460001,417.48779120000836,m,0.6219278000062332,None,417.48822110000765,417.503615900001,418.50425410000025,418.4878539000056,,,,,,,,,,,,,,,,,,,,,,,,,,,,,,,,,,,,,,,,,,,,,,,,,,,,,,,,,,,,,,,,,,,,,,,,,,,,,,A_15,001,2024-11-30_14h41.40.932,untitled,2024.1.5,None,2024-11-30 14h41.53.679228 +0530,
square.png,stranger,1,M,,,,,,,,,29,0,116,0,,,,,,,,,418.50425410000025,,,,,,,,,,,,,,,,,,,,,,,,,,,,,,,,,,,,,,,,,,,,,,,,,,,,,,,,,,,,418.48820270001306,418.50425410000025,418.98813150000933,418.98813150000933,418.98813150000933,418.98813150000933,419.0046513000125,419.287796900011,419.287796900011,419.287796900011,419.8222225000063,m,0.8234158999985084,None,419.82264140000916,419.8383754000097,420.8389204000123,420.8225291000126,,,,,,,,,,,,,,,,,,,,,,,,,,,,,,,,,,,,,,,,,,,,,,,,,,,,,,,,,,,,,,,,,,,,,,,,,,,,,,A_15,001,2024-11-30_14h41.40.932,untitled,2024.1.5,None,2024-11-30 14h41.53.679228 +0530,
triangle.png,stranger,0,Z,,,,,,,,,29,1,117,3,,,,,,,,,420.8389204000123,,,,,,,,,,,,,,,,,,,,,,,,,,,,,,,,,,,,,,,,,,,,,,,,,,,,,,,,,,,,420.82295349999913,420.8389204000123,421.32234840000456,421.32234840000456,421.32234840000456,421.32234840000456,421.3389836999995,421.6224680000014,421.6224680000014,421.6224680000014,422.04018680000445,z,0.7088046999997459,None,422.04060990001017,422.05603720000363,423.05673970001226,423.0405172000028,,,,,,,,,,,,,,,,,,,,,,,,,,,,,,,,,,,,,,,,,,,,,,,,,,,,,,,,,,,,,,,,,,,,,,,,,,,,,,A_15,001,2024-11-30_14h41.40.932,untitled,2024.1.5,None,2024-11-30 14h41.53.679228 +0530,
triangle.png,you,1,M,,,,,,,,,29,2,118,1,,,,,,,,,423.05673970001226,,,,,,,,,,,,,,,,,,,,,,,,,,,,,,,,,,,,,,,,,,,,,,,,,,,,,,,,,,,,423.0408587999991,423.05673970001226,423.54037940000126,423.54037940000126,423.54037940000126,423.54037940000126,423.55701200000476,423.8401462000038,423.8401462000038,423.8401462000038,424.24136470000667,m,0.6904828999977326,None,424.2417790000036,424.25715400000627,425.25769710000895,425.2417000000132,,,,,,,,,,,,,,,,,,,,,,,,,,,,,,,,,,,,,,,,,,,,,,,,,,,,,,,,,,,,,,,,,,,,,,,,,,,,,,A_15,001,2024-11-30_14h41.40.932,untitled,2024.1.5,None,2024-11-30 14h41.53.679228 +0530,
square.png,you,0,Z,,,,,,,,,29,3,119,2,,,,,,,,,425.25769710000895,,,,,,,,,,,,,,,,,,,,,,,,,,,,,,,,,,,,,,,,,,,,,,,,,,,,,,,,,,,,425.24204550001014,425.25769710000895,425.7412493000011,425.7412493000011,425.7412493000011,425.7412493000011,425.75787840000703,426.0415273000108,426.0415273000108,426.0415273000108,426.6424107000057,z,0.8942829000006896,None,426.6428442000033,426.6584825000027,427.65904290000617,427.6428455000132,,,,,,,,,,,,,,,,,,,,,,,,,,,,,,,,,,,,,,,,,,,,,,,,,,,,,,,,,,,,,,,,,,,,,,,,,,,,,,A_15,001,2024-11-30_14h41.40.932,untitled,2024.1.5,None,2024-11-30 14h41.53.679228 +0530,
square.png,you,0,Z,,,,,,,,,30,0,120,2,,,,,,,,,427.65904290000617,,,,,,,,,,,,,,,,,,,,,,,,,,,,,,,,,,,,,,,,,,,,,,,,,,,,,,,,,,,,427.6431880000018,427.65904290000617,428.1426320000028,428.1426320000028,428.1426320000028,428.1426320000028,428.1592963000003,428.442743800013,428.442743800013,428.442743800013,429.22694240001147,None,,,429.22712850000244,429.24316690000705,430.2436338000116,430.2274376000132,429.24316690000705,,,,,,,,,,,,,,,,,,,,,,,,,,,,,,,,,,,,,,,,,,,,,,,,,,,,,,,,,,,,,,,,,,,,,,,,,,,,,A_15,001,2024-11-30_14h41.40.932,untitled,2024.1.5,None,2024-11-30 14h41.53.679228 +0530,
triangle.png,stranger,0,Z,,,,,,,,,30,1,121,3,,,,,,,,,430.2436338000116,,,,,,,,,,,,,,,,,,,,,,,,,,,,,,,,,,,,,,,,,,,,,,,,,,,,,,,,,,,,430.2277782000019,430.2436338000116,430.7441409000021,430.7441409000021,430.7441409000021,430.7441409000021,430.7441409000021,431.04402560000017,431.04402560000017,431.04402560000017,431.5947875000129,z,0.8349410000082571,None,431.5952088000049,431.6109037000133,432.61142140001175,432.59549120000156,,,,,,,,,,,,,,,,,,,,,,,,,,,,,,,,,,,,,,,,,,,,,,,,,,,,,,,,,,,,,,,,,,,,,,,,,,,,,,A_15,001,2024-11-30_14h41.40.932,untitled,2024.1.5,None,2024-11-30 14h41.53.679228 +0530,
triangle.png,you,1,M,,,,,,,,,30,2,122,1,,,,,,,,,432.61142140001175,,,,,,,,,,,,,,,,,,,,,,,,,,,,,,,,,,,,,,,,,,,,,,,,,,,,,,,,,,,,432.5958418000082,432.61142140001175,433.0950385000033,433.0950385000033,433.0950385000033,433.0950385000033,433.1117251000105,433.39502429999993,433.39502429999993,433.39502429999993,433.8626607000042,m,0.7647323999990476,None,433.8630825,433.87884110001323,434.879334000012,434.86292620000313,,,,,,,,,,,,,,,,,,,,,,,,,,,,,,,,,,,,,,,,,,,,,,,,,,,,,,,,,,,,,,,,,,,,,,,,,,,,,,A_15,001,2024-11-30_14h41.40.932,untitled,2024.1.5,None,2024-11-30 14h41.53.679228 +0530,
square.png,stranger,1,M,,,,,,,,,30,3,123,0,,,,,,,,,434.879334000012,,,,,,,,,,,,,,,,,,,,,,,,,,,,,,,,,,,,,,,,,,,,,,,,,,,,,,,,,,,,434.86326910000935,434.879334000012,435.36315860001196,435.36315860001196,435.36315860001196,435.36315860001196,435.3795434000058,435.6630203000095,435.6630203000095,435.6630203000095,436.3643613000022,z,0.9924446999939391,None,436.3647733000107,436.3800302000018,437.38065360000473,437.3642976000119,,,,,,,,,,,,,,,,,,,,,,,,,,,,,,,,,,,,,,,,,,,,,,,,,,,,,,,,,,,,,,,,,,,,,,,,,,,,,,A_15,001,2024-11-30_14h41.40.932,untitled,2024.1.5,None,2024-11-30 14h41.53.679228 +0530,
square.png,you,0,Z,,,,,,,,,31,0,124,2,,,,,,,,,437.38065360000473,,,,,,,,,,,,,,,,,,,,,,,,,,,,,,,,,,,,,,,,,,,,,,,,,,,,,,,,,,,,437.3646452000103,437.38065360000473,437.8642080999998,437.8642080999998,437.8642080999998,437.8642080999998,437.8809619000094,438.1641063999996,438.1641063999996,438.1641063999996,438.6819575000118,z,0.8147586000122828,None,438.68237410001166,438.697983200007,439.69828060000145,439.6821831000125,,,,,,,,,,,,,,,,,,,,,,,,,,,,,,,,,,,,,,,,,,,,,,,,,,,,,,,,,,,,,,,,,,,,,,,,,,,,,,A_15,001,2024-11-30_14h41.40.932,untitled,2024.1.5,None,2024-11-30 14h41.53.679228 +0530,
triangle.png,stranger,0,Z,,,,,,,,,31,1,125,3,,,,,,,,,439.69828060000145,,,,,,,,,,,,,,,,,,,,,,,,,,,,,,,,,,,,,,,,,,,,,,,,,,,,,,,,,,,,439.6825342000084,439.69828060000145,440.18236800000886,440.18236800000886,440.18236800000886,440.18236800000886,440.19874710000295,440.4819187000103,440.4819187000103,440.4819187000103,440.88290250000136,z,0.6853936999978032,None,440.88332540000556,440.89909220000845,441.89945810000063,441.88331740000285,,,,,,,,,,,,,,,,,,,,,,,,,,,,,,,,,,,,,,,,,,,,,,,,,,,,,,,,,,,,,,,,,,,,,,,,,,,,,,A_15,001,2024-11-30_14h41.40.932,untitled,2024.1.5,None,2024-11-30 14h41.53.679228 +0530,
square.png,stranger,1,M,,,,,,,,,31,2,126,0,,,,,,,,,441.89945810000063,,,,,,,,,,,,,,,,,,,,,,,,,,,,,,,,,,,,,,,,,,,,,,,,,,,,,,,,,,,,441.88366120000137,441.89945810000063,442.38338920001115,442.38338920001115,442.38338920001115,442.38338920001115,442.39985310001066,442.6831999999995,442.6831999999995,442.6831999999995,443.2510079000058,m,0.8599845999997342,None,443.2514230000088,443.26675980001164,444.26725520000036,444.2510667000024,,,,,,,,,,,,,,,,,,,,,,,,,,,,,,,,,,,,,,,,,,,,,,,,,,,,,,,,,,,,,,,,,,,,,,,,,,,,,,A_15,001,2024-11-30_14h41.40.932,untitled,2024.1.5,None,2024-11-30 14h41.53.679228 +0530,
triangle.png,you,1,M,,,,,,,,,31,3,127,1,,,,,,,,,444.26725520000036,,,,,,,,,,,,,,,,,,,,,,,,,,,,,,,,,,,,,,,,,,,,,,,,,,,,,,,,,,,,444.2514100000117,444.26725520000036,444.7510176000069,444.7510176000069,444.7510176000069,444.7510176000069,444.76780190000136,445.0512529000116,445.0512529000116,445.0512529000116,445.518939600006,m,0.7523071999894455,None,445.5193572000135,445.53470210000523,446.5354607000045,446.51915200000803,,,,,,,,,,,,,,,,,,,,,,,,,,,,,,,,,,,,,,,,,,,,,,,,,,,,,,,,,,,,,,,,,,,,,,,,,,,,,,A_15,001,2024-11-30_14h41.40.932,untitled,2024.1.5,None,2024-11-30 14h41.53.679228 +0530,
triangle.png,stranger,0,Z,,,,,,,,,32,0,128,3,,,,,,,,,446.5354607000045,,,,,,,,,,,,,,,,,,,,,,,,,,,,,,,,,,,,,,,,,,,,,,,,,,,,,,,,,,,,446.5194973000034,446.5354607000045,447.01912280000397,447.01912280000397,447.01912280000397,447.01912280000397,447.0354832000012,447.31908700001077,447.31908700001077,447.31908700001077,447.9702449000033,z,0.9480614000058267,None,447.9706637000054,447.9862267999997,448.9867349000124,448.970541600007,,,,,,,,,,,,,,,,,,,,,,,,,,,,,,,,,,,,,,,,,,,,,,,,,,,,,,,,,,,,,,,,,,,,,,,,,,,,,,A_15,001,2024-11-30_14h41.40.932,untitled,2024.1.5,None,2024-11-30 14h41.53.679228 +0530,
square.png,you,0,Z,,,,,,,,,32,1,129,2,,,,,,,,,448.9867349000124,,,,,,,,,,,,,,,,,,,,,,,,,,,,,,,,,,,,,,,,,,,,,,,,,,,,,,,,,,,,448.9708842000109,448.9867349000124,449.4701398000034,449.4701398000034,449.4701398000034,449.4701398000034,449.4866563000105,449.7702128000092,449.7702128000092,449.7702128000092,450.3046711000061,z,0.8210499999986496,None,450.30508560000453,450.3207082000008,451.3210003999993,451.3047007000132,,,,,,,,,,,,,,,,,,,,,,,,,,,,,,,,,,,,,,,,,,,,,,,,,,,,,,,,,,,,,,,,,,,,,,,,,,,,,,A_15,001,2024-11-30_14h41.40.932,untitled,2024.1.5,None,2024-11-30 14h41.53.679228 +0530,
triangle.png,you,1,M,,,,,,,,,32,2,130,1,,,,,,,,,451.3210003999993,,,,,,,,,,,,,,,,,,,,,,,,,,,,,,,,,,,,,,,,,,,,,,,,,,,,,,,,,,,,451.3050499000092,451.3210003999993,451.8048722000094,451.8048722000094,451.8048722000094,451.8048722000094,451.8214736000082,452.1047099000134,452.1047099000134,452.1047099000134,452.5056142000103,m,0.6861647000041557,None,452.50603930000216,452.5216010000004,453.5220408000023,453.50604320000275,,,,,,,,,,,,,,,,,,,,,,,,,,,,,,,,,,,,,,,,,,,,,,,,,,,,,,,,,,,,,,,,,,,,,,,,,,,,,,A_15,001,2024-11-30_14h41.40.932,untitled,2024.1.5,None,2024-11-30 14h41.53.679228 +0530,
square.png,stranger,1,M,,,,,,,,,32,3,131,0,,,,,,,,,453.5220408000023,,,,,,,,,,,,,,,,,,,,,,,,,,,,,,,,,,,,,,,,,,,,,,,,,,,,,,,,,,,,453.50638920000347,453.5220408000023,454.00582310000027,454.00582310000027,454.00582310000027,454.00582310000027,454.0225014000025,454.30569630001264,454.30569630001264,454.30569630001264,454.45695230001,z,0.4492664999997942,None,454.4573980999994,454.47288230000413,455.4733203000069,455.4567798000062,,,,,,,,,,,,,,,,,,,,,,,,,,,,,,,,,,,,,,,,,,,,,,,,,,,,,,,,,,,,,,,,,,,,,,,,,,,,,,A_15,001,2024-11-30_14h41.40.932,untitled,2024.1.5,None,2024-11-30 14h41.53.679228 +0530,
square.png,stranger,1,M,,,,,,,,,33,0,132,0,,,,,,,,,455.4733203000069,,,,,,,,,,,,,,,,,,,,,,,,,,,,,,,,,,,,,,,,,,,,,,,,,,,,,,,,,,,,455.4571197000041,455.4733203000069,455.95701420000114,455.95701420000114,455.95701420000114,455.95701420000114,455.97343009999895,456.2568498000037,456.2568498000037,456.2568498000037,456.67458500000066,m,0.7137374000012642,None,456.6750689000037,456.6905289999995,457.69085540001106,457.67460640000354,,,,,,,,,,,,,,,,,,,,,,,,,,,,,,,,,,,,,,,,,,,,,,,,,,,,,,,,,,,,,,,,,,,,,,,,,,,,,,A_15,001,2024-11-30_14h41.40.932,untitled,2024.1.5,None,2024-11-30 14h41.53.679228 +0530,
triangle.png,you,1,M,,,,,,,,,33,1,133,1,,,,,,,,,457.69085540001106,,,,,,,,,,,,,,,,,,,,,,,,,,,,,,,,,,,,,,,,,,,,,,,,,,,,,,,,,,,,457.6749504000036,457.69085540001106,458.17470190000313,458.17470190000313,458.17470190000313,458.17470190000313,458.1914257000026,458.47450799999933,458.47450799999933,458.47450799999933,458.8595074000041,m,0.6839282000000821,None,458.85993090001284,458.87515279999934,459.87522159999935,459.8592168000032,,,,,,,,,,,,,,,,,,,,,,,,,,,,,,,,,,,,,,,,,,,,,,,,,,,,,,,,,,,,,,,,,,,,,,,,,,,,,,A_15,001,2024-11-30_14h41.40.932,untitled,2024.1.5,None,2024-11-30 14h41.53.679228 +0530,
triangle.png,stranger,0,Z,,,,,,,,,33,2,134,3,,,,,,,,,459.87522159999935,,,,,,,,,,,,,,,,,,,,,,,,,,,,,,,,,,,,,,,,,,,,,,,,,,,,,,,,,,,,459.85956570001144,459.87522159999935,460.3759316000069,460.3759316000069,460.3759316000069,460.3759316000069,460.3759316000069,460.6757537000085,460.6757537000085,460.6757537000085,460.89336750000075,m,0.5114680999977281,None,460.89378040000156,460.90924240001186,461.9096872000082,461.89346540000406,,,,,,,,,,,,,,,,,,,,,,,,,,,,,,,,,,,,,,,,,,,,,,,,,,,,,,,,,,,,,,,,,,,,,,,,,,,,,,A_15,001,2024-11-30_14h41.40.932,untitled,2024.1.5,None,2024-11-30 14h41.53.679228 +0530,
square.png,you,0,Z,,,,,,,,,33,3,135,2,,,,,,,,,461.9096872000082,,,,,,,,,,,,,,,,,,,,,,,,,,,,,,,,,,,,,,,,,,,,,,,,,,,,,,,,,,,,461.89380810000875,461.9096872000082,462.3934237000067,462.3934237000067,462.3934237000067,462.3934237000067,462.41017070000817,462.6934673000069,462.6934673000069,462.6934673000069,463.04439450000064,z,0.6460617999982787,None,463.0448352000094,463.06056910000916,464.0610318000108,464.04471710001235,,,,,,,,,,,,,,,,,,,,,,,,,,,,,,,,,,,,,,,,,,,,,,,,,,,,,,,,,,,,,,,,,,,,,,,,,,,,,,A_15,001,2024-11-30_14h41.40.932,untitled,2024.1.5,None,2024-11-30 14h41.53.679228 +0530,
square.png,stranger,1,M,,,,,,,,,34,0,136,0,,,,,,,,,464.0610318000108,,,,,,,,,,,,,,,,,,,,,,,,,,,,,,,,,,,,,,,,,,,,,,,,,,,,,,,,,,,,464.04506650000985,464.0610318000108,464.544667500013,464.544667500013,464.544667500013,464.544667500013,464.561418199999,464.84451629999967,464.84451629999967,464.84451629999967,465.3955108000082,m,0.8421202999888919,None,465.39592840000114,465.41141380000045,466.4119701000018,466.39618060000066,,,,,,,,,,,,,,,,,,,,,,,,,,,,,,,,,,,,,,,,,,,,,,,,,,,,,,,,,,,,,,,,,,,,,,,,,,,,,,A_15,001,2024-11-30_14h41.40.932,untitled,2024.1.5,None,2024-11-30 14h41.53.679228 +0530,
square.png,you,0,Z,,,,,,,,,34,1,137,2,,,,,,,,,466.4119701000018,,,,,,,,,,,,,,,,,,,,,,,,,,,,,,,,,,,,,,,,,,,,,,,,,,,,,,,,,,,,466.39653470000485,466.4119701000018,466.8959182000108,466.8959182000108,466.8959182000108,466.8959182000108,466.9124177000049,467.19582600001013,467.19582600001013,467.19582600001013,467.6632738000044,z,0.7587529000011273,None,467.66369880001,467.6794312000129,468.67976830000407,468.6637563000113,,,,,,,,,,,,,,,,,,,,,,,,,,,,,,,,,,,,,,,,,,,,,,,,,,,,,,,,,,,,,,,,,,,,,,,,,,,,,,A_15,001,2024-11-30_14h41.40.932,untitled,2024.1.5,None,2024-11-30 14h41.53.679228 +0530,
triangle.png,stranger,0,Z,,,,,,,,,34,2,138,3,,,,,,,,,468.67976830000407,,,,,,,,,,,,,,,,,,,,,,,,,,,,,,,,,,,,,,,,,,,,,,,,,,,,,,,,,,,,468.6640991000022,468.67976830000407,469.1637614000065,469.1637614000065,469.1637614000065,469.1637614000065,469.1801867000031,469.4636129999999,469.4636129999999,469.4636129999999,470.0146758000046,m,0.8435003999911714,None,470.0150966000074,470.0305437000061,471.03125310000905,471.01493770000525,,,,,,,,,,,,,,,,,,,,,,,,,,,,,,,,,,,,,,,,,,,,,,,,,,,,,,,,,,,,,,,,,,,,,,,,,,,,,,A_15,001,2024-11-30_14h41.40.932,untitled,2024.1.5,None,2024-11-30 14h41.53.679228 +0530,
