stimulus,label,is_match,shouldpress,stimulus_2,label_2,is_match_2,shouldpress_2,p_trials.thisRepN,p_trials.thisTrialN,p_trials.thisN,p_trials.thisIndex,trials.thisRepN,trials.thisTrialN,trials.thisN,trials.thisIndex,p_trials_2.thisRepN,p_trials_2.thisTrialN,p_trials_2.thisN,p_trials_2.thisIndex,trials_2.thisRepN,trials_2.thisTrialN,trials_2.thisN,trials_2.thisIndex,thisRow.t,notes,Intruduction.started,text_3.started,key_resp_2.started,Intruduction.stopped,key_resp_2.keys,key_resp_2.rt,key_resp_2.duration,self_other_instructions.started,text_4.started,key_resp_3.started,self_other_instructions.stopped,key_resp_3.keys,key_resp_3.rt,key_resp_3.duration,self_other_info.started,square_image.started,triangle_image.started,self_label.started,other_label.started,key_resp_4.started,text_5.started,self_other_info.stopped,key_resp_4.keys,key_resp_4.rt,key_resp_4.duration,self_other_starting_2.started,text_6.started,key_resp_5.started,self_other_starting_2.stopped,key_resp_5.keys,key_resp_5.rt,key_resp_5.duration,practice1.started,p_fication.started,p_fixation_3.started,p_text.started,key_resp_p.started,p_image.started,p_fication.stopped,p_fixation_3.stopped,p_text.stopped,p_image.stopped,key_resp_p.stopped,practice1.stopped,key_resp_p.keys,p_feedback.started,text_15.started,p_feedback.stopped,key_resp_p.rt,key_resp_p.duration,text_15.stopped,start2.started,start_2.started,key_resp_11.started,start2.stopped,key_resp_11.keys,key_resp_11.rt,key_resp_11.duration,trial.started,fixation.started,fixation_3.started,text.started,key_resp.started,image.started,fixation.stopped,fixation_3.stopped,text.stopped,image.stopped,key_resp.stopped,trial.stopped,key_resp.keys,feedback.started,text_2.started,text_2.stopped,feedback.stopped,key_resp.rt,key_resp.duration,break_3.started,text_13.started,text_14.started,key_resp_10.started,text_13.stopped,break_3.stopped,key_resp_10.keys,key_resp_10.rt,key_resp_10.duration,self_other_instructions_2.started,text_10.started,key_resp_7.started,self_other_instructions_2.stopped,key_resp_7.keys,key_resp_7.rt,key_resp_7.duration,self_other_intro_2.started,circle_image.started,diamond_image.started,Disgusting_self_lable.started,Desirable_self_lable.started,key_resp_8.started,text_11.started,self_other_intro_2.stopped,key_resp_8.keys,key_resp_8.rt,key_resp_8.duration,self_other_starting_3.started,text_12.started,key_resp_9.started,self_other_starting_3.stopped,key_resp_9.keys,key_resp_9.rt,key_resp_9.duration,practice2.started,p_fixation_2.started,p_fixation_2.stopped,p_fixation_4.started,p_text_8.started,key_resp_6_p.started,p_image_2.started,p_fixation_4.stopped,p_text_8.stopped,p_image_2.stopped,practice2.stopped,key_resp_6_p.keys,key_resp_6_p.rt,key_resp_6_p.duration,feedback_2_p.started,text_16.started,text_16.stopped,feedback_2_p.stopped,key_resp_6_p.stopped,trial_2.started,fixation_2.started,fixation_4.started,text_8.started,key_resp_6.started,image_2.started,fixation_2.stopped,fixation_4.stopped,text_8.stopped,image_2.stopped,trial_2.stopped,key_resp_6.keys,key_resp_6.rt,key_resp_6.duration,feedback_2.started,text_9.started,text_9.stopped,feedback_2.stopped,key_resp_6.stopped,Thank_you.started,text_7.started,text_7.stopped,Thank_you.stopped,participant,session,date,expName,psychopyVersion,frameRate,expStart,
,,,,,,,,,,,,,,,,,,,,,,,,,,0.002747899998212233,0.006534200001624413,0.006534200001624413,6.1501648999983445,space,6.1294854000007035,None,,,,,,,,,,,,,,,,,,,,,,,,,,,,,,,,,,,,,,,,,,,,,,,,,,,,,,,,,,,,,,,,,,,,,,,,,,,,,,,,,,,,,,,,,,,,,,,,,,,,,,,,,,,,,,,,,,,,,,,,,,,,,,,,,,,,,,,,,,,,,,,,,,,A_16,001,2024-11-30_16h42.46.675,untitled,2024.1.5,None,2024-11-30 16h42.59.171705 +0530,
,,,,,,,,,,,,,,,,,,,,,,,,,,,,,,,,,6.150189899999532,6.164447200004361,6.164447200004361,44.91847710000002,space,38.73821599999792,None,,,,,,,,,,,,,,,,,,,,,,,,,,,,,,,,,,,,,,,,,,,,,,,,,,,,,,,,,,,,,,,,,,,,,,,,,,,,,,,,,,,,,,,,,,,,,,,,,,,,,,,,,,,,,,,,,,,,,,,,,,,,,,,,,,,,,,,,,,,,A_16,001,2024-11-30_16h42.46.675,untitled,2024.1.5,None,2024-11-30 16h42.59.171705 +0530,
,,,,,,,,,,,,,,,,,,,,,,,,,,,,,,,,,,,,,,,,44.918504200002644,44.952191399992444,44.952191399992444,44.952191399992444,44.952191399992444,44.952191399992444,44.952191399992444,109.7173921999929,space,64.75532409999869,None,,,,,,,,,,,,,,,,,,,,,,,,,,,,,,,,,,,,,,,,,,,,,,,,,,,,,,,,,,,,,,,,,,,,,,,,,,,,,,,,,,,,,,,,,,,,,,,,,,,,,,,,,,,,,,,,,,,,,,,,,,,,,,,,,A_16,001,2024-11-30_16h42.46.675,untitled,2024.1.5,None,2024-11-30 16h42.59.171705 +0530,
,,,,,,,,,,,,,,,,,,,,,,,,,,,,,,,,,,,,,,,,,,,,,,,,,,,109.71742190000077,109.73326670000097,109.73326670000097,115.82091549999313,space,6.081925699996646,None,,,,,,,,,,,,,,,,,,,,,,,,,,,,,,,,,,,,,,,,,,,,,,,,,,,,,,,,,,,,,,,,,,,,,,,,,,,,,,,,,,,,,,,,,,,,,,,,,,,,,,,,,,,,,,,,,,,,,,,,,,A_16,001,2024-11-30_16h42.46.675,untitled,2024.1.5,None,2024-11-30 16h42.59.171705 +0530,
triangle.png,you,1,M,,,,,0,0,0,1,,,,,,,,,,,,,115.83792989999347,,,,,,,,,,,,,,,,,,,,,,,,,,,,,,,,,,115.8270257999975,115.83792989999347,116.33657309999398,116.33657309999398,116.33657309999398,116.33657309999398,116.35303879999265,116.63649879999866,116.63649879999866,116.63649879999866,117.4368303999945,117.42063540000527,None,117.42084609999438,117.4368303999945,118.42097730000387,,,,,,,,,,,,,,,,,,,,,,,,,,,,,,,,,,,,,,,,,,,,,,,,,,,,,,,,,,,,,,,,,,,,,,,,,,,,,,,,,,,,,,,,,,,,,,,,,,,,,,,,,,A_16,001,2024-11-30_16h42.46.675,untitled,2024.1.5,None,2024-11-30 16h42.59.171705 +0530,
square.png,stranger,1,M,,,,,0,1,1,0,,,,,,,,,,,,,118.43725699999777,,,,,,,,,,,,,,,,,,,,,,,,,,,,,,,,,,118.42121790000238,118.43725699999777,118.92116280000482,118.92116280000482,118.92116280000482,118.92116280000482,118.9377497999958,119.22112360000028,119.22112360000028,119.22112360000028,,119.35523159999866,m,119.35556219999853,119.37113959999988,120.35565719999431,0.42982930000289343,None,120.37168490000477,,,,,,,,,,,,,,,,,,,,,,,,,,,,,,,,,,,,,,,,,,,,,,,,,,,,,,,,,,,,,,,,,,,,,,,,,,,,,,,,,,,,,,,,,,,,,,,,,,,,,,,A_16,001,2024-11-30_16h42.46.675,untitled,2024.1.5,None,2024-11-30 16h42.59.171705 +0530,
square.png,you,0,Z,,,,,0,2,2,2,,,,,,,,,,,,,120.37168490000477,,,,,,,,,,,,,,,,,,,,,,,,,,,,,,,,,,120.35588669999561,120.37168490000477,120.85561250000319,120.85561250000319,120.85561250000319,120.85561250000319,120.87239540000155,121.15556889999425,121.15556889999425,121.15556889999425,,121.48992469999939,z,121.49016709999705,121.50570639999933,122.49010249999992,0.6321229999884963,None,122.50601860000461,,,,,,,,,,,,,,,,,,,,,,,,,,,,,,,,,,,,,,,,,,,,,,,,,,,,,,,,,,,,,,,,,,,,,,,,,,,,,,,,,,,,,,,,,,,,,,,,,,,,,,,A_16,001,2024-11-30_16h42.46.675,untitled,2024.1.5,None,2024-11-30 16h42.59.171705 +0530,
triangle.png,stranger,0,Z,,,,,0,3,3,3,,,,,,,,,,,,,122.50601860000461,,,,,,,,,,,,,,,,,,,,,,,,,,,,,,,,,,122.49032810000062,122.50601860000461,122.98974059999455,122.98974059999455,122.98974059999455,122.98974059999455,123.00645509999595,123.28998149999825,123.28998149999825,123.28998149999825,124.09012809999695,124.07391880000068,None,124.07405310000468,124.09012809999695,125.07447229999525,,,125.09099929999502,,,,,,,,,,,,,,,,,,,,,,,,,,,,,,,,,,,,,,,,,,,,,,,,,,,,,,,,,,,,,,,,,,,,,,,,,,,,,,,,,,,,,,,,,,,,,,,,,,,,,,,A_16,001,2024-11-30_16h42.46.675,untitled,2024.1.5,None,2024-11-30 16h42.59.171705 +0530,
square.png,stranger,1,M,,,,,1,0,4,0,,,,,,,,,,,,,125.09099929999502,,,,,,,,,,,,,,,,,,,,,,,,,,,,,,,,,,125.07470230000035,125.09099929999502,125.59131340000022,125.59131340000022,125.59131340000022,125.59131340000022,125.59131340000022,125.8911655999982,125.8911655999982,125.8911655999982,126.69164049999381,126.67546189999848,None,126.67559369999799,126.69164049999381,127.6760523999983,,,127.69218969999929,,,,,,,,,,,,,,,,,,,,,,,,,,,,,,,,,,,,,,,,,,,,,,,,,,,,,,,,,,,,,,,,,,,,,,,,,,,,,,,,,,,,,,,,,,,,,,,,,,,,,,,A_16,001,2024-11-30_16h42.46.675,untitled,2024.1.5,None,2024-11-30 16h42.59.171705 +0530,
square.png,you,0,Z,,,,,1,1,5,2,,,,,,,,,,,,,127.69218969999929,,,,,,,,,,,,,,,,,,,,,,,,,,,,,,,,,,127.67628030000196,127.69218969999929,128.19235969999863,128.19235969999863,128.19235969999863,128.19235969999863,128.19235969999863,128.49255860000267,128.49255860000267,128.49255860000267,,128.62648720000288,m,128.6267302000051,128.6427382999973,129.62700659999973,0.418498200000613,None,129.64318040000217,,,,,,,,,,,,,,,,,,,,,,,,,,,,,,,,,,,,,,,,,,,,,,,,,,,,,,,,,,,,,,,,,,,,,,,,,,,,,,,,,,,,,,,,,,,,,,,,,,,,,,,A_16,001,2024-11-30_16h42.46.675,untitled,2024.1.5,None,2024-11-30 16h42.59.171705 +0530,
triangle.png,you,1,M,,,,,1,2,6,1,,,,,,,,,,,,,129.64318040000217,,,,,,,,,,,,,,,,,,,,,,,,,,,,,,,,,,129.62723339999502,129.64318040000217,130.12698639999144,130.12698639999144,130.12698639999144,130.12698639999144,130.14352509999298,130.42680780000228,130.42680780000228,130.42680780000228,131.22724229999585,131.2111836999975,None,131.21131470000546,131.22724229999585,132.211550299995,,,132.22802710000542,,,,,,,,,,,,,,,,,,,,,,,,,,,,,,,,,,,,,,,,,,,,,,,,,,,,,,,,,,,,,,,,,,,,,,,,,,,,,,,,,,,,,,,,,,,,,,,,,,,,,,,A_16,001,2024-11-30_16h42.46.675,untitled,2024.1.5,None,2024-11-30 16h42.59.171705 +0530,
triangle.png,stranger,0,Z,,,,,1,3,7,3,,,,,,,,,,,,,132.22802710000542,,,,,,,,,,,,,,,,,,,,,,,,,,,,,,,,,,132.21177969999553,132.22802710000542,132.7282520000008,132.7282520000008,132.7282520000008,132.7282520000008,132.7282520000008,133.02819630000158,133.02819630000158,133.02819630000158,,133.21251660000416,z,133.21275959999184,133.22846869999194,134.21257609999157,0.4698134000063874,None,134.22890600000392,,,,,,,,,,,,,,,,,,,,,,,,,,,,,,,,,,,,,,,,,,,,,,,,,,,,,,,,,,,,,,,,,,,,,,,,,,,,,,,,,,,,,,,,,,,,,,,,,,,,,,,A_16,001,2024-11-30_16h42.46.675,untitled,2024.1.5,None,2024-11-30 16h42.59.171705 +0530,
triangle.png,stranger,0,Z,,,,,2,0,8,3,,,,,,,,,,,,,134.22890600000392,,,,,,,,,,,,,,,,,,,,,,,,,,,,,,,,,,134.2128134999948,134.22890600000392,134.71242840000195,134.71242840000195,134.71242840000195,134.71242840000195,134.72912809999252,135.01261710000108,135.01261710000108,135.01261710000108,,135.28020569999353,z,135.28045069999644,135.29600709999795,136.28026719999616,0.5517326000117464,None,136.2966124999948,,,,,,,,,,,,,,,,,,,,,,,,,,,,,,,,,,,,,,,,,,,,,,,,,,,,,,,,,,,,,,,,,,,,,,,,,,,,,,,,,,,,,,,,,,,,,,,,,,,,,,,A_16,001,2024-11-30_16h42.46.675,untitled,2024.1.5,None,2024-11-30 16h42.59.171705 +0530,
square.png,stranger,1,M,,,,,2,1,9,0,,,,,,,,,,,,,136.2966124999948,,,,,,,,,,,,,,,,,,,,,,,,,,,,,,,,,,136.2804940999922,136.2966124999948,136.78020259999903,136.78020259999903,136.78020259999903,136.78020259999903,136.79712669999572,137.08023639999737,137.08023639999737,137.08023639999737,137.8807369999995,137.86452370000188,None,137.86465580000367,137.8807369999995,138.86479350000445,,,138.88104189999285,,,,,,,,,,,,,,,,,,,,,,,,,,,,,,,,,,,,,,,,,,,,,,,,,,,,,,,,,,,,,,,,,,,,,,,,,,,,,,,,,,,,,,,,,,,,,,,,,,,,,,,A_16,001,2024-11-30_16h42.46.675,untitled,2024.1.5,None,2024-11-30 16h42.59.171705 +0530,
triangle.png,you,1,M,,,,,2,2,10,1,,,,,,,,,,,,,138.88104189999285,,,,,,,,,,,,,,,,,,,,,,,,,,,,,,,,,,138.86502800000017,138.88104189999285,139.38148949999595,139.38148949999595,139.38148949999595,139.38148949999595,139.38148949999595,139.68139969999902,139.68139969999902,139.68139969999902,140.48212739999872,140.46563959999185,None,140.46577100000286,140.48212739999872,141.46635010000318,,,141.48250440000265,,,,,,,,,,,,,,,,,,,,,,,,,,,,,,,,,,,,,,,,,,,,,,,,,,,,,,,,,,,,,,,,,,,,,,,,,,,,,,,,,,,,,,,,,,,,,,,,,,,,,,,A_16,001,2024-11-30_16h42.46.675,untitled,2024.1.5,None,2024-11-30 16h42.59.171705 +0530,
square.png,you,0,Z,,,,,2,3,11,2,,,,,,,,,,,,,141.48250440000265,,,,,,,,,,,,,,,,,,,,,,,,,,,,,,,,,,141.46657740000228,141.48250440000265,141.98282540000218,141.98282540000218,141.98282540000218,141.98282540000218,141.98282540000218,142.2829258999991,142.2829258999991,142.2829258999991,,142.3501982000016,m,142.35044280000147,142.36636820000422,143.35065259999828,0.3552022000076249,None,143.36678029999894,,,,,,,,,,,,,,,,,,,,,,,,,,,,,,,,,,,,,,,,,,,,,,,,,,,,,,,,,,,,,,,,,,,,,,,,,,,,,,,,,,,,,,,,,,,,,,,,,,,,,,,A_16,001,2024-11-30_16h42.46.675,untitled,2024.1.5,None,2024-11-30 16h42.59.171705 +0530,
triangle.png,stranger,0,Z,,,,,3,0,12,3,,,,,,,,,,,,,143.36678029999894,,,,,,,,,,,,,,,,,,,,,,,,,,,,,,,,,,143.35088600000017,143.36678029999894,143.85038590000477,143.85038590000477,143.85038590000477,143.85038590000477,143.86705559999973,144.15057260000322,144.15057260000322,144.15057260000322,,144.31801519999863,z,144.3182603000023,144.33392710000044,145.31843289999233,0.45691040001111105,None,145.33460750000086,,,,,,,,,,,,,,,,,,,,,,,,,,,,,,,,,,,,,,,,,,,,,,,,,,,,,,,,,,,,,,,,,,,,,,,,,,,,,,,,,,,,,,,,,,,,,,,,,,,,,,,A_16,001,2024-11-30_16h42.46.675,untitled,2024.1.5,None,2024-11-30 16h42.59.171705 +0530,
square.png,you,0,Z,,,,,3,1,13,2,,,,,,,,,,,,,145.33460750000086,,,,,,,,,,,,,,,,,,,,,,,,,,,,,,,,,,145.31866839999566,145.33460750000086,145.81823979999172,145.81823979999172,145.81823979999172,145.81823979999172,145.8347017000051,146.11826059999294,146.11826059999294,146.11826059999294,,146.28588769999624,z,146.2861309,146.3017749999999,147.28605169999355,0.4648947999958182,None,147.30222719999438,,,,,,,,,,,,,,,,,,,,,,,,,,,,,,,,,,,,,,,,,,,,,,,,,,,,,,,,,,,,,,,,,,,,,,,,,,,,,,,,,,,,,,,,,,,,,,,,,,,,,,,A_16,001,2024-11-30_16h42.46.675,untitled,2024.1.5,None,2024-11-30 16h42.59.171705 +0530,
square.png,stranger,1,M,,,,,3,2,14,0,,,,,,,,,,,,,147.30222719999438,,,,,,,,,,,,,,,,,,,,,,,,,,,,,,,,,,147.28631339999265,147.30222719999438,147.78598839999177,147.78598839999177,147.78598839999177,147.78598839999177,147.80241289999685,148.0857643000054,148.0857643000054,148.0857643000054,,148.20320459999493,z,148.20349590000114,148.21939519999432,149.2035104999959,0.4096276000054786,None,149.2196399999957,,,,,,,,,,,,,,,,,,,,,,,,,,,,,,,,,,,,,,,,,,,,,,,,,,,,,,,,,,,,,,,,,,,,,,,,,,,,,,,,,,,,,,,,,,,,,,,,,,,,,,,A_16,001,2024-11-30_16h42.46.675,untitled,2024.1.5,None,2024-11-30 16h42.59.171705 +0530,
triangle.png,you,1,M,,,,,3,3,15,1,,,,,,,,,,,,,149.2196399999957,,,,,,,,,,,,,,,,,,,,,,,,,,,,,,,,,,149.2037391000049,149.2196399999957,149.70358570000099,149.70358570000099,149.70358570000099,149.70358570000099,149.7199907000031,150.00349319999805,150.00349319999805,150.00349319999805,150.8039093999978,150.78785359999165,None,150.78798639999877,150.8039093999978,151.7881109000009,,,151.80456960000447,,,,,,,,,,,,,,,,,,,,,,,,,,,,,,,,,,,,,,,,,,,,,,,,,,,,,,,,,,,,,,,,,,,,,,,,,,,,,,,,,,,,,,,,,,,,,,,,,,,,,,,A_16,001,2024-11-30_16h42.46.675,untitled,2024.1.5,None,2024-11-30 16h42.59.171705 +0530,
triangle.png,stranger,0,Z,,,,,4,0,16,3,,,,,,,,,,,,,151.80456960000447,,,,,,,,,,,,,,,,,,,,,,,,,,,,,,,,,,151.7883395999961,151.80456960000447,152.30497319999267,152.30497319999267,152.30497319999267,152.30497319999267,152.30497319999267,152.6047794000042,152.6047794000042,152.6047794000042,,152.70558639999945,z,152.7058357999922,152.72170769999502,153.7057957999932,0.39442379999672994,None,153.72227379999822,,,,,,,,,,,,,,,,,,,,,,,,,,,,,,,,,,,,,,,,,,,,,,,,,,,,,,,,,,,,,,,,,,,,,,,,,,,,,,,,,,,,,,,,,,,,,,,,,,,,,,,A_16,001,2024-11-30_16h42.46.675,untitled,2024.1.5,None,2024-11-30 16h42.59.171705 +0530,
square.png,you,0,Z,,,,,4,1,17,2,,,,,,,,,,,,,153.72227379999822,,,,,,,,,,,,,,,,,,,,,,,,,,,,,,,,,,153.7060255999968,153.72227379999822,154.2058476999955,154.2058476999955,154.2058476999955,154.2058476999955,154.22231729999476,154.50576519999595,154.50576519999595,154.50576519999595,,154.55665699999372,m,154.5569017999951,154.57248200000322,155.5569312000007,0.34135329999844544,None,155.57304329999897,,,,,,,,,,,,,,,,,,,,,,,,,,,,,,,,,,,,,,,,,,,,,,,,,,,,,,,,,,,,,,,,,,,,,,,,,,,,,,,,,,,,,,,,,,,,,,,,,,,,,,,A_16,001,2024-11-30_16h42.46.675,untitled,2024.1.5,None,2024-11-30 16h42.59.171705 +0530,
square.png,stranger,1,M,,,,,4,2,18,0,,,,,,,,,,,,,155.57304329999897,,,,,,,,,,,,,,,,,,,,,,,,,,,,,,,,,,155.55715969999437,155.57304329999897,156.05669240000134,156.05669240000134,156.05669240000134,156.05669240000134,156.0735027000046,156.35659250000026,156.35659250000026,156.35659250000026,157.15737810000428,157.14104119999683,None,157.14117370000167,157.15737810000428,158.14153720000468,,,158.15772829999332,,,,,,,,,,,,,,,,,,,,,,,,,,,,,,,,,,,,,,,,,,,,,,,,,,,,,,,,,,,,,,,,,,,,,,,,,,,,,,,,,,,,,,,,,,,,,,,,,,,,,,,A_16,001,2024-11-30_16h42.46.675,untitled,2024.1.5,None,2024-11-30 16h42.59.171705 +0530,
triangle.png,you,1,M,,,,,4,3,19,1,,,,,,,,,,,,,158.15772829999332,,,,,,,,,,,,,,,,,,,,,,,,,,,,,,,,,,158.14176820000284,158.15772829999332,158.6579608000029,158.6579608000029,158.6579608000029,158.6579608000029,158.6579608000029,,,,,158.90893140000117,z,158.90918780000356,158.92461810000532,159.90884340000048,0.23607040000206325,None,159.92541260000144,,,,,,,,,,,,,,,,,,,,,,,,,,,,,,,,,,,,,,,,,,,,,,,,,,,,,,,,,,,,,,,,,,,,,,,,,,,,,,,,,,,,,,,,,,,,,,,,,,,,,,,A_16,001,2024-11-30_16h42.46.675,untitled,2024.1.5,None,2024-11-30 16h42.59.171705 +0530,
,,,,,,,,,,,,,,,,,,,,,,,,,,,,,,,,,,,,,,,,,,,,,,,,,,,,,,,,,,,,,,,,,,,,,,,,,,,,,159.90889019999304,159.92541260000144,159.92541260000144,161.0767188000027,space,1.136661099997582,None,,,,,,,,,,,,,,,,,,,,,,,,,,,,,,,,,,,,,,,,,,,,,,,,,,,,,,,,,,,,,,,,,,,,,,,,,,,,,,,,,,,,,,,,,,,,,,,,A_16,001,2024-11-30_16h42.46.675,untitled,2024.1.5,None,2024-11-30 16h42.59.171705 +0530,
triangle.png,stranger,0,Z,,,,,,,,,0,0,0,3,,,,,,,,,161.09259289999318,,,,,,,,,,,,,,,,,,,,,,,,,,,,,,,,,,,,,,,,,,,,,,,,,,,,,,,,,,,,161.08193149999715,161.09259289999318,161.57636269999784,161.57636269999784,161.57636269999784,161.57636269999784,161.5928864000016,161.87622360000387,161.87622360000387,161.87622360000387,162.6765551999997,162.6605481000006,None,162.66085709999606,162.6765551999997,163.67716769999242,163.66082499999902,,,,,,,,,,,,,,,,,,,,,,,,,,,,,,,,,,,,,,,,,,,,,,,,,,,,,,,,,,,,,,,,,,,,,,,,,,,,,,,A_16,001,2024-11-30_16h42.46.675,untitled,2024.1.5,None,2024-11-30 16h42.59.171705 +0530,
square.png,you,0,Z,,,,,,,,,0,1,1,2,,,,,,,,,163.67716769999242,,,,,,,,,,,,,,,,,,,,,,,,,,,,,,,,,,,,,,,,,,,,,,,,,,,,,,,,,,,,163.6611777999933,163.67716769999242,164.1777310000034,164.1777310000034,164.1777310000034,164.1777310000034,164.1777310000034,164.47754740000528,164.47754740000528,164.47754740000528,165.2778457999957,165.26172710000537,None,165.26192750000337,165.2778457999957,166.27852540000458,166.2622995999991,,,,,,,,,,,,,,,,,,,,,,,,,,,,,,,,,,,,,,,,,,,,,,,,,,,,,,,,,,,,,,,,,,,,,,,,,,,,,,,A_16,001,2024-11-30_16h42.46.675,untitled,2024.1.5,None,2024-11-30 16h42.59.171705 +0530,
triangle.png,you,1,M,,,,,,,,,0,2,2,1,,,,,,,,,166.27852540000458,,,,,,,,,,,,,,,,,,,,,,,,,,,,,,,,,,,,,,,,,,,,,,,,,,,,,,,,,,,,166.2626559999917,166.27852540000458,166.77909369999543,166.77909369999543,166.77909369999543,166.77909369999543,166.77909369999543,167.07898799999384,167.07898799999384,167.07898799999384,,167.24623609999253,z,167.24683489999734,167.26247269999294,168.26288339999155,168.24673250000342,0.45497909998812247,None,,,,,,,,,,,,,,,,,,,,,,,,,,,,,,,,,,,,,,,,,,,,,,,,,,,,,,,,,,,,,,,,,,,,,,,,,,,,,A_16,001,2024-11-30_16h42.46.675,untitled,2024.1.5,None,2024-11-30 16h42.59.171705 +0530,
square.png,stranger,1,M,,,,,,,,,0,3,3,0,,,,,,,,,168.26288339999155,,,,,,,,,,,,,,,,,,,,,,,,,,,,,,,,,,,,,,,,,,,,,,,,,,,,,,,,,,,,168.2470750999928,168.26288339999155,168.74673699999403,168.74673699999403,168.74673699999403,168.74673699999403,168.7631670999981,169.04656200000318,169.04656200000318,169.04656200000318,,169.2306716000021,m,169.23108919999504,169.24675779999234,170.24719860000187,170.2311047999974,0.47196430001349654,None,,,,,,,,,,,,,,,,,,,,,,,,,,,,,,,,,,,,,,,,,,,,,,,,,,,,,,,,,,,,,,,,,,,,,,,,,,,,,A_16,001,2024-11-30_16h42.46.675,untitled,2024.1.5,None,2024-11-30 16h42.59.171705 +0530,
square.png,you,0,Z,,,,,,,,,1,0,4,2,,,,,,,,,170.24719860000187,,,,,,,,,,,,,,,,,,,,,,,,,,,,,,,,,,,,,,,,,,,,,,,,,,,,,,,,,,,,170.23145150000346,170.24719860000187,170.73100410000188,170.73100410000188,170.73100410000188,170.73100410000188,170.74757059999683,171.030943699996,171.030943699996,171.030943699996,,171.04853379999986,m,171.04899539999315,171.06445960000565,172.06473850000475,172.04864069999894,0.3155226999951992,None,,,,,,,,,,,,,,,,,,,,,,,,,,,,,,,,,,,,,,,,,,,,,,,,,,,,,,,,,,,,,,,,,,,,,,,,,,,,,A_16,001,2024-11-30_16h42.46.675,untitled,2024.1.5,None,2024-11-30 16h42.59.171705 +0530,
triangle.png,you,1,M,,,,,,,,,1,1,5,1,,,,,,,,,172.06473850000475,,,,,,,,,,,,,,,,,,,,,,,,,,,,,,,,,,,,,,,,,,,,,,,,,,,,,,,,,,,,172.04899369999475,172.06473850000475,172.54842750000535,172.54842750000535,172.54842750000535,172.54842750000535,172.56515280000167,172.84841229999438,172.84841229999438,172.84841229999438,,172.9326313999918,z,172.9330653999932,172.9484373000014,173.9491105999914,173.9326968999958,0.37065549999533687,None,,,,,,,,,,,,,,,,,,,,,,,,,,,,,,,,,,,,,,,,,,,,,,,,,,,,,,,,,,,,,,,,,,,,,,,,,,,,,A_16,001,2024-11-30_16h42.46.675,untitled,2024.1.5,None,2024-11-30 16h42.59.171705 +0530,
triangle.png,stranger,0,Z,,,,,,,,,1,2,6,3,,,,,,,,,173.9491105999914,,,,,,,,,,,,,,,,,,,,,,,,,,,,,,,,,,,,,,,,,,,,,,,,,,,,,,,,,,,,173.93304380000336,173.9491105999914,174.43274350000138,174.43274350000138,174.43274350000138,174.43274350000138,174.44957499999146,174.73271310000564,174.73271310000564,174.73271310000564,175.5334176000033,175.5170719000016,None,175.51733329999843,175.5334176000033,176.53376710000157,176.51762959999905,,,,,,,,,,,,,,,,,,,,,,,,,,,,,,,,,,,,,,,,,,,,,,,,,,,,,,,,,,,,,,,,,,,,,,,,,,,,,,,A_16,001,2024-11-30_16h42.46.675,untitled,2024.1.5,None,2024-11-30 16h42.59.171705 +0530,
square.png,stranger,1,M,,,,,,,,,1,3,7,0,,,,,,,,,176.53376710000157,,,,,,,,,,,,,,,,,,,,,,,,,,,,,,,,,,,,,,,,,,,,,,,,,,,,,,,,,,,,176.517981099998,176.53376710000157,177.03423550000298,177.03423550000298,177.03423550000298,177.03423550000298,177.03423550000298,177.3341889000003,177.3341889000003,177.3341889000003,,177.33500219999405,z,177.33542239999224,177.3507363999961,178.35125910000352,178.3350694999972,0.28465739999955986,None,,,,,,,,,,,,,,,,,,,,,,,,,,,,,,,,,,,,,,,,,,,,,,,,,,,,,,,,,,,,,,,,,,,,,,,,,,,,,A_16,001,2024-11-30_16h42.46.675,untitled,2024.1.5,None,2024-11-30 16h42.59.171705 +0530,
triangle.png,you,1,M,,,,,,,,,2,0,8,1,,,,,,,,,178.35125910000352,,,,,,,,,,,,,,,,,,,,,,,,,,,,,,,,,,,,,,,,,,,,,,,,,,,,,,,,,,,,178.33542190000298,178.35125910000352,178.83513199999288,178.83513199999288,178.83513199999288,178.83513199999288,178.85181680000096,179.13519309999538,179.13519309999538,179.13519309999538,,179.25238320000062,m,179.25280390000262,179.26858279999578,180.2691507999989,180.2530046000029,0.41583539999555796,None,,,,,,,,,,,,,,,,,,,,,,,,,,,,,,,,,,,,,,,,,,,,,,,,,,,,,,,,,,,,,,,,,,,,,,,,,,,,,A_16,001,2024-11-30_16h42.46.675,untitled,2024.1.5,None,2024-11-30 16h42.59.171705 +0530,
square.png,stranger,1,M,,,,,,,,,2,1,9,0,,,,,,,,,180.2691507999989,,,,,,,,,,,,,,,,,,,,,,,,,,,,,,,,,,,,,,,,,,,,,,,,,,,,,,,,,,,,180.25336639999296,180.2691507999989,180.75258319999557,180.75258319999557,180.75258319999557,180.75258319999557,180.76957180000318,,,,,180.91996050000307,m,180.92039139999542,180.93610669999907,181.93644109999877,181.9202496999933,0.16611960000591353,None,,,,,,,,,,,,,,,,,,,,,,,,,,,,,,,,,,,,,,,,,,,,,,,,,,,,,,,,,,,,,,,,,,,,,,,,,,,,,A_16,001,2024-11-30_16h42.46.675,untitled,2024.1.5,None,2024-11-30 16h42.59.171705 +0530,
triangle.png,stranger,0,Z,,,,,,,,,2,2,10,3,,,,,,,,,181.93644109999877,,,,,,,,,,,,,,,,,,,,,,,,,,,,,,,,,,,,,,,,,,,,,,,,,,,,,,,,,,,,181.92059690000315,181.93644109999877,182.4200714000035,182.4200714000035,182.4200714000035,182.4200714000035,182.4368703999935,182.72025640000356,182.72025640000356,182.72025640000356,183.52063280000584,183.50458079999953,None,183.5047717999987,183.52063280000584,184.52116180000303,184.50502559999586,,,,,,,,,,,,,,,,,,,,,,,,,,,,,,,,,,,,,,,,,,,,,,,,,,,,,,,,,,,,,,,,,,,,,,,,,,,,,,,A_16,001,2024-11-30_16h42.46.675,untitled,2024.1.5,None,2024-11-30 16h42.59.171705 +0530,
square.png,you,0,Z,,,,,,,,,2,3,11,2,,,,,,,,,184.52116180000303,,,,,,,,,,,,,,,,,,,,,,,,,,,,,,,,,,,,,,,,,,,,,,,,,,,,,,,,,,,,184.50537800000166,184.52116180000303,185.02163849999488,185.02163849999488,185.02163849999488,185.02163849999488,185.02163849999488,185.3216345999972,185.3216345999972,185.3216345999972,,185.355905599994,m,185.35632619999524,185.3715397000051,186.37195869999414,186.3558614999929,0.32887579999805894,None,,,,,,,,,,,,,,,,,,,,,,,,,,,,,,,,,,,,,,,,,,,,,,,,,,,,,,,,,,,,,,,,,,,,,,,,,,,,,A_16,001,2024-11-30_16h42.46.675,untitled,2024.1.5,None,2024-11-30 16h42.59.171705 +0530,
square.png,you,0,Z,,,,,,,,,3,0,12,2,,,,,,,,,186.37195869999414,,,,,,,,,,,,,,,,,,,,,,,,,,,,,,,,,,,,,,,,,,,,,,,,,,,,,,,,,,,,186.35624599999574,186.37195869999414,186.85579960000177,186.85579960000177,186.85579960000177,186.85579960000177,186.8725975999987,187.15577589999884,187.15577589999884,187.15577589999884,,187.2399460000015,z,187.2403680999996,187.2558441000001,188.25629419999314,188.240318199998,0.3828575999941677,None,,,,,,,,,,,,,,,,,,,,,,,,,,,,,,,,,,,,,,,,,,,,,,,,,,,,,,,,,,,,,,,,,,,,,,,,,,,,,A_16,001,2024-11-30_16h42.46.675,untitled,2024.1.5,None,2024-11-30 16h42.59.171705 +0530,
triangle.png,you,1,M,,,,,,,,,3,1,13,1,,,,,,,,,188.25629419999314,,,,,,,,,,,,,,,,,,,,,,,,,,,,,,,,,,,,,,,,,,,,,,,,,,,,,,,,,,,,188.24066409999796,188.25629419999314,188.74010409999755,188.74010409999755,188.74010409999755,188.74010409999755,188.7566150999919,,,,,188.89090739999665,z,188.89133460000448,188.90661459999683,189.9072898000013,189.89092609999352,0.14299140000366606,None,,,,,,,,,,,,,,,,,,,,,,,,,,,,,,,,,,,,,,,,,,,,,,,,,,,,,,,,,,,,,,,,,,,,,,,,,,,,,A_16,001,2024-11-30_16h42.46.675,untitled,2024.1.5,None,2024-11-30 16h42.59.171705 +0530,
square.png,stranger,1,M,,,,,,,,,3,2,14,0,,,,,,,,,189.9072898000013,,,,,,,,,,,,,,,,,,,,,,,,,,,,,,,,,,,,,,,,,,,,,,,,,,,,,,,,,,,,189.89127259999805,189.9072898000013,190.39092540000274,190.39092540000274,190.39092540000274,190.39092540000274,190.40749650000362,190.69103319999704,190.69103319999704,190.69103319999704,,190.84193949999462,z,190.84238489999552,190.85762429999886,191.85840119999193,191.84193110000342,0.44032809999771416,None,,,,,,,,,,,,,,,,,,,,,,,,,,,,,,,,,,,,,,,,,,,,,,,,,,,,,,,,,,,,,,,,,,,,,,,,,,,,,A_16,001,2024-11-30_16h42.46.675,untitled,2024.1.5,None,2024-11-30 16h42.59.171705 +0530,
triangle.png,stranger,0,Z,,,,,,,,,3,3,15,3,,,,,,,,,191.85840119999193,,,,,,,,,,,,,,,,,,,,,,,,,,,,,,,,,,,,,,,,,,,,,,,,,,,,,,,,,,,,191.84227749999263,191.85840119999193,192.3421273999993,192.3421273999993,192.3421273999993,192.3421273999993,192.35867249999137,192.641947600001,192.641947600001,192.641947600001,,192.7094342999917,m,192.70987479999894,192.7253625000012,193.7257385999983,193.7097189000051,0.36459450000256766,None,,,,,,,,,,,,,,,,,,,,,,,,,,,,,,,,,,,,,,,,,,,,,,,,,,,,,,,,,,,,,,,,,,,,,,,,,,,,,A_16,001,2024-11-30_16h42.46.675,untitled,2024.1.5,None,2024-11-30 16h42.59.171705 +0530,
triangle.png,you,1,M,,,,,,,,,4,0,16,1,,,,,,,,,193.7257385999983,,,,,,,,,,,,,,,,,,,,,,,,,,,,,,,,,,,,,,,,,,,,,,,,,,,,,,,,,,,,193.7100741000031,193.7257385999983,194.20946630000253,194.20946630000253,194.20946630000253,194.20946630000253,194.22627499999362,194.50940369999444,194.50940369999444,194.50940369999444,,194.64378739999665,m,194.64421199999924,194.65986869999324,195.66022829999565,195.64412240000092,0.4185113999992609,None,,,,,,,,,,,,,,,,,,,,,,,,,,,,,,,,,,,,,,,,,,,,,,,,,,,,,,,,,,,,,,,,,,,,,,,,,,,,,A_16,001,2024-11-30_16h42.46.675,untitled,2024.1.5,None,2024-11-30 16h42.59.171705 +0530,
square.png,stranger,1,M,,,,,,,,,4,1,17,0,,,,,,,,,195.66022829999565,,,,,,,,,,,,,,,,,,,,,,,,,,,,,,,,,,,,,,,,,,,,,,,,,,,,,,,,,,,,195.64448010000342,195.66022829999565,196.1437592000002,196.1437592000002,196.1437592000002,196.1437592000002,196.16039390000515,196.44398949999595,196.44398949999595,196.44398949999595,,196.62823919999937,m,196.6286720999924,196.64402019999397,197.64448619999166,197.6284350999922,0.4748664000071585,None,,,,,,,,,,,,,,,,,,,,,,,,,,,,,,,,,,,,,,,,,,,,,,,,,,,,,,,,,,,,,,,,,,,,,,,,,,,,,A_16,001,2024-11-30_16h42.46.675,untitled,2024.1.5,None,2024-11-30 16h42.59.171705 +0530,
square.png,you,0,Z,,,,,,,,,4,2,18,2,,,,,,,,,197.64448619999166,,,,,,,,,,,,,,,,,,,,,,,,,,,,,,,,,,,,,,,,,,,,,,,,,,,,,,,,,,,,197.6287808000052,197.64448619999166,198.1281760999991,198.1281760999991,198.1281760999991,198.1281760999991,198.1448173999961,198.42822380000143,198.42822380000143,198.42822380000143,,198.56256799999392,m,198.5629995000054,198.57828000000154,199.57887850000407,199.56250109999382,0.4297376000031363,None,,,,,,,,,,,,,,,,,,,,,,,,,,,,,,,,,,,,,,,,,,,,,,,,,,,,,,,,,,,,,,,,,,,,,,,,,,,,,A_16,001,2024-11-30_16h42.46.675,untitled,2024.1.5,None,2024-11-30 16h42.59.171705 +0530,
triangle.png,stranger,0,Z,,,,,,,,,4,3,19,3,,,,,,,,,199.57887850000407,,,,,,,,,,,,,,,,,,,,,,,,,,,,,,,,,,,,,,,,,,,,,,,,,,,,,,,,,,,,199.562852499992,199.57887850000407,200.06224430000293,200.06224430000293,200.06224430000293,200.06224430000293,200.07897079999384,200.36240810000163,200.36240810000163,200.36240810000163,,200.44669440000143,m,200.44712609999988,200.46237340000516,201.4629081000021,201.44686349999392,0.3728490000066813,None,,,,,,,,,,,,,,,,,,,,,,,,,,,,,,,,,,,,,,,,,,,,,,,,,,,,,,,,,,,,,,,,,,,,,,,,,,,,,A_16,001,2024-11-30_16h42.46.675,untitled,2024.1.5,None,2024-11-30 16h42.59.171705 +0530,
triangle.png,stranger,0,Z,,,,,,,,,5,0,20,3,,,,,,,,,201.4629081000021,,,,,,,,,,,,,,,,,,,,,,,,,,,,,,,,,,,,,,,,,,,,,,,,,,,,,,,,,,,,201.44721250000293,201.4629081000021,201.94654799999262,201.94654799999262,201.94654799999262,201.94654799999262,201.9633160999947,202.24667389999377,202.24667389999377,202.24667389999377,203.0472887999931,203.03101979999337,None,203.03121990000363,203.0472887999931,204.04777449999528,204.0316976000031,,,,,,,,,,,,,,,,,,,,,,,,,,,,,,,,,,,,,,,,,,,,,,,,,,,,,,,,,,,,,,,,,,,,,,,,,,,,,,,A_16,001,2024-11-30_16h42.46.675,untitled,2024.1.5,None,2024-11-30 16h42.59.171705 +0530,
square.png,stranger,1,M,,,,,,,,,5,1,21,0,,,,,,,,,204.04777449999528,,,,,,,,,,,,,,,,,,,,,,,,,,,,,,,,,,,,,,,,,,,,,,,,,,,,,,,,,,,,204.03204180000466,204.04777449999528,204.5480666999938,204.5480666999938,204.5480666999938,204.5480666999938,204.5480666999938,204.84823249999317,204.84823249999317,204.84823249999317,205.64850169999409,205.63236639999377,None,205.63255900000513,205.64850169999409,206.64924600000086,206.63294589999714,,,,,,,,,,,,,,,,,,,,,,,,,,,,,,,,,,,,,,,,,,,,,,,,,,,,,,,,,,,,,,,,,,,,,,,,,,,,,,,A_16,001,2024-11-30_16h42.46.675,untitled,2024.1.5,None,2024-11-30 16h42.59.171705 +0530,
square.png,you,0,Z,,,,,,,,,5,2,22,2,,,,,,,,,206.64924600000086,,,,,,,,,,,,,,,,,,,,,,,,,,,,,,,,,,,,,,,,,,,,,,,,,,,,,,,,,,,,206.63328729999193,206.64924600000086,207.149448199998,207.149448199998,207.149448199998,207.149448199998,207.149448199998,207.44947619999584,207.44947619999584,207.44947619999584,208.25016019999748,208.23365310000372,None,208.23384200000146,208.25016019999748,209.25057259999448,209.23426219999965,,,,,,,,,,,,,,,,,,,,,,,,,,,,,,,,,,,,,,,,,,,,,,,,,,,,,,,,,,,,,,,,,,,,,,,,,,,,,,,A_16,001,2024-11-30_16h42.46.675,untitled,2024.1.5,None,2024-11-30 16h42.59.171705 +0530,
triangle.png,you,1,M,,,,,,,,,5,3,23,1,,,,,,,,,209.25057259999448,,,,,,,,,,,,,,,,,,,,,,,,,,,,,,,,,,,,,,,,,,,,,,,,,,,,,,,,,,,,209.2346111999941,209.25057259999448,209.7509385000012,209.7509385000012,209.7509385000012,209.7509385000012,209.7509385000012,210.0510448999994,210.0510448999994,210.0510448999994,,210.1017709000007,m,210.10219429999415,210.11771659999795,211.11805479999748,211.10168530000374,0.3348130999947898,None,,,,,,,,,,,,,,,,,,,,,,,,,,,,,,,,,,,,,,,,,,,,,,,,,,,,,,,,,,,,,,,,,,,,,,,,,,,,,A_16,001,2024-11-30_16h42.46.675,untitled,2024.1.5,None,2024-11-30 16h42.59.171705 +0530,
square.png,you,0,Z,,,,,,,,,6,0,24,2,,,,,,,,,211.11805479999748,,,,,,,,,,,,,,,,,,,,,,,,,,,,,,,,,,,,,,,,,,,,,,,,,,,,,,,,,,,,211.10204139999405,211.11805479999748,211.6018866999948,211.6018866999948,211.6018866999948,211.6018866999948,211.6185786999995,211.90193039999576,211.90193039999576,211.90193039999576,,211.9859340999974,z,211.98636599999736,212.0019284000009,213.00239779999538,212.98597409999638,0.37317049999546725,None,,,,,,,,,,,,,,,,,,,,,,,,,,,,,,,,,,,,,,,,,,,,,,,,,,,,,,,,,,,,,,,,,,,,,,,,,,,,,A_16,001,2024-11-30_16h42.46.675,untitled,2024.1.5,None,2024-11-30 16h42.59.171705 +0530,
square.png,stranger,1,M,,,,,,,,,6,1,25,0,,,,,,,,,213.00239779999538,,,,,,,,,,,,,,,,,,,,,,,,,,,,,,,,,,,,,,,,,,,,,,,,,,,,,,,,,,,,212.98633469999186,213.00239779999538,213.486015699993,213.486015699993,213.486015699993,213.486015699993,213.5026521999971,213.7862463000056,213.7862463000056,213.7862463000056,,213.9872361000016,z,213.98766539999633,214.00280519999797,215.00337890000083,214.98711950000143,0.5002558999985922,None,,,,,,,,,,,,,,,,,,,,,,,,,,,,,,,,,,,,,,,,,,,,,,,,,,,,,,,,,,,,,,,,,,,,,,,,,,,,,A_16,001,2024-11-30_16h42.46.675,untitled,2024.1.5,None,2024-11-30 16h42.59.171705 +0530,
triangle.png,you,1,M,,,,,,,,,6,2,26,1,,,,,,,,,215.00337890000083,,,,,,,,,,,,,,,,,,,,,,,,,,,,,,,,,,,,,,,,,,,,,,,,,,,,,,,,,,,,214.98747510000248,215.00337890000083,215.48731430000043,215.48731430000043,215.48731430000043,215.48731430000043,215.50365440000314,215.78714939999918,215.78714939999918,215.78714939999918,,215.80465079999703,z,215.80507729999954,215.8204024000006,216.8210834999918,216.80467100000533,0.31170739998924546,None,,,,,,,,,,,,,,,,,,,,,,,,,,,,,,,,,,,,,,,,,,,,,,,,,,,,,,,,,,,,,,,,,,,,,,,,,,,,,A_16,001,2024-11-30_16h42.46.675,untitled,2024.1.5,None,2024-11-30 16h42.59.171705 +0530,
triangle.png,stranger,0,Z,,,,,,,,,6,3,27,3,,,,,,,,,216.8210834999918,,,,,,,,,,,,,,,,,,,,,,,,,,,,,,,,,,,,,,,,,,,,,,,,,,,,,,,,,,,,216.80501569999615,216.8210834999918,217.30480090000492,217.30480090000492,217.30480090000492,217.30480090000492,217.32131359999767,217.60482910000428,217.60482910000428,217.60482910000428,218.40526949999912,218.38907750000362,None,218.38926589999755,218.40526949999912,219.40575140000146,219.3894641999941,,,,,,,,,,,,,,,,,,,,,,,,,,,,,,,,,,,,,,,,,,,,,,,,,,,,,,,,,,,,,,,,,,,,,,,,,,,,,,,A_16,001,2024-11-30_16h42.46.675,untitled,2024.1.5,None,2024-11-30 16h42.59.171705 +0530,
square.png,you,0,Z,,,,,,,,,7,0,28,2,,,,,,,,,219.40575140000146,,,,,,,,,,,,,,,,,,,,,,,,,,,,,,,,,,,,,,,,,,,,,,,,,,,,,,,,,,,,219.38981229999627,219.40575140000146,219.90610059999744,219.90610059999744,219.90610059999744,219.90610059999744,219.90610059999744,220.20597690000432,220.20597690000432,220.20597690000432,221.0066608999914,220.9901128000056,None,220.99030960000528,221.0066608999914,222.00674169999547,221.99027619999833,,,,,,,,,,,,,,,,,,,,,,,,,,,,,,,,,,,,,,,,,,,,,,,,,,,,,,,,,,,,,,,,,,,,,,,,,,,,,,,A_16,001,2024-11-30_16h42.46.675,untitled,2024.1.5,None,2024-11-30 16h42.59.171705 +0530,
triangle.png,you,1,M,,,,,,,,,7,1,29,1,,,,,,,,,222.00674169999547,,,,,,,,,,,,,,,,,,,,,,,,,,,,,,,,,,,,,,,,,,,,,,,,,,,,,,,,,,,,221.99061690000235,222.00674169999547,222.50747889999184,222.50747889999184,222.50747889999184,222.50747889999184,222.50747889999184,222.8075256000011,222.8075256000011,222.8075256000011,223.60787969999365,223.59131970000453,None,223.59151899999415,223.60787969999365,224.6083867999987,224.59201680000115,,,,,,,,,,,,,,,,,,,,,,,,,,,,,,,,,,,,,,,,,,,,,,,,,,,,,,,,,,,,,,,,,,,,,,,,,,,,,,,A_16,001,2024-11-30_16h42.46.675,untitled,2024.1.5,None,2024-11-30 16h42.59.171705 +0530,
triangle.png,stranger,0,Z,,,,,,,,,7,2,30,3,,,,,,,,,224.6083867999987,,,,,,,,,,,,,,,,,,,,,,,,,,,,,,,,,,,,,,,,,,,,,,,,,,,,,,,,,,,,224.5923671999917,224.6083867999987,225.10863200000313,225.10863200000313,225.10863200000313,225.10863200000313,225.10863200000313,225.4085352999973,225.4085352999973,225.4085352999973,,225.7598044000042,z,225.760225799997,225.77553699999407,226.7761901000049,226.7600303999934,0.6384803999972064,None,,,,,,,,,,,,,,,,,,,,,,,,,,,,,,,,,,,,,,,,,,,,,,,,,,,,,,,,,,,,,,,,,,,,,,,,,,,,,A_16,001,2024-11-30_16h42.46.675,untitled,2024.1.5,None,2024-11-30 16h42.59.171705 +0530,
square.png,stranger,1,M,,,,,,,,,7,3,31,0,,,,,,,,,226.7761901000049,,,,,,,,,,,,,,,,,,,,,,,,,,,,,,,,,,,,,,,,,,,,,,,,,,,,,,,,,,,,226.76037609999184,226.7761901000049,227.25966670000344,227.25966670000344,227.25966670000344,227.25966670000344,227.27656499999284,227.55999159999192,227.55999159999192,227.55999159999192,,227.6773220000032,z,227.67774559999816,227.69308129999263,228.6937190000026,228.67764520000492,0.4099728999863146,None,,,,,,,,,,,,,,,,,,,,,,,,,,,,,,,,,,,,,,,,,,,,,,,,,,,,,,,,,,,,,,,,,,,,,,,,,,,,,A_16,001,2024-11-30_16h42.46.675,untitled,2024.1.5,None,2024-11-30 16h42.59.171705 +0530,
triangle.png,stranger,0,Z,,,,,,,,,8,0,32,3,,,,,,,,,228.6937190000026,,,,,,,,,,,,,,,,,,,,,,,,,,,,,,,,,,,,,,,,,,,,,,,,,,,,,,,,,,,,228.67799070000183,228.6937190000026,229.1774727000011,229.1774727000011,229.1774727000011,229.1774727000011,229.19412620000367,229.47734040000068,229.47734040000068,229.47734040000068,230.27800609999395,230.26155529999232,None,230.26175160000275,230.27800609999395,231.2782531999983,231.26226089999545,,,,,,,,,,,,,,,,,,,,,,,,,,,,,,,,,,,,,,,,,,,,,,,,,,,,,,,,,,,,,,,,,,,,,,,,,,,,,,,A_16,001,2024-11-30_16h42.46.675,untitled,2024.1.5,None,2024-11-30 16h42.59.171705 +0530,
triangle.png,you,1,M,,,,,,,,,8,1,33,1,,,,,,,,,231.2782531999983,,,,,,,,,,,,,,,,,,,,,,,,,,,,,,,,,,,,,,,,,,,,,,,,,,,,,,,,,,,,231.26260770000226,231.2782531999983,231.77889459999278,231.77889459999278,231.77889459999278,231.77889459999278,231.77889459999278,232.0788379000005,232.0788379000005,232.0788379000005,,232.07957620000525,m,232.0800082999922,232.09531950000382,233.0961246999941,233.0798383999936,0.2881924999965122,None,,,,,,,,,,,,,,,,,,,,,,,,,,,,,,,,,,,,,,,,,,,,,,,,,,,,,,,,,,,,,,,,,,,,,,,,,,,,,A_16,001,2024-11-30_16h42.46.675,untitled,2024.1.5,None,2024-11-30 16h42.59.171705 +0530,
square.png,you,0,Z,,,,,,,,,8,2,34,2,,,,,,,,,233.0961246999941,,,,,,,,,,,,,,,,,,,,,,,,,,,,,,,,,,,,,,,,,,,,,,,,,,,,,,,,,,,,233.0802096999978,233.0961246999941,233.57955670000229,233.57955670000229,233.57955670000229,233.57955670000229,233.59621449999395,233.8797174999927,233.8797174999927,233.8797174999927,234.68012449999515,234.66395139999804,None,234.66413970000576,234.68012449999515,235.68073439999716,235.6643899000046,,,,,,,,,,,,,,,,,,,,,,,,,,,,,,,,,,,,,,,,,,,,,,,,,,,,,,,,,,,,,,,,,,,,,,,,,,,,,,,A_16,001,2024-11-30_16h42.46.675,untitled,2024.1.5,None,2024-11-30 16h42.59.171705 +0530,
square.png,stranger,1,M,,,,,,,,,8,3,35,0,,,,,,,,,235.68073439999716,,,,,,,,,,,,,,,,,,,,,,,,,,,,,,,,,,,,,,,,,,,,,,,,,,,,,,,,,,,,235.66473869999754,235.68073439999716,236.1811546999961,236.1811546999961,236.1811546999961,236.1811546999961,236.1811546999961,236.48088469999493,236.48088469999493,236.48088469999493,,236.66516469999624,z,236.66560809999646,236.68109019999974,237.6815496999916,237.66541519999737,0.4819673000019975,None,,,,,,,,,,,,,,,,,,,,,,,,,,,,,,,,,,,,,,,,,,,,,,,,,,,,,,,,,,,,,,,,,,,,,,,,,,,,,A_16,001,2024-11-30_16h42.46.675,untitled,2024.1.5,None,2024-11-30 16h42.59.171705 +0530,
triangle.png,stranger,0,Z,,,,,,,,,9,0,36,3,,,,,,,,,237.6815496999916,,,,,,,,,,,,,,,,,,,,,,,,,,,,,,,,,,,,,,,,,,,,,,,,,,,,,,,,,,,,237.66576689999783,237.6815496999916,238.16529370000353,238.16529370000353,238.16529370000353,238.16529370000353,238.18202670000028,,,,,238.39955499999633,z,238.3999741000007,238.41532319999533,239.41606950000278,239.39980250000372,0.21828000000095926,None,,,,,,,,,,,,,,,,,,,,,,,,,,,,,,,,,,,,,,,,,,,,,,,,,,,,,,,,,,,,,,,,,,,,,,,,,,,,,A_16,001,2024-11-30_16h42.46.675,untitled,2024.1.5,None,2024-11-30 16h42.59.171705 +0530,
square.png,you,0,Z,,,,,,,,,9,1,37,2,,,,,,,,,239.41606950000278,,,,,,,,,,,,,,,,,,,,,,,,,,,,,,,,,,,,,,,,,,,,,,,,,,,,,,,,,,,,239.4001491999952,239.41606950000278,239.89938420000544,239.89938420000544,239.89938420000544,239.89938420000544,239.91604820000066,240.1994168999954,240.1994168999954,240.1994168999954,,240.20015330000024,m,240.20058669999707,240.21631689999776,241.21695580000232,241.20067869999912,0.2960007000074256,None,,,,,,,,,,,,,,,,,,,,,,,,,,,,,,,,,,,,,,,,,,,,,,,,,,,,,,,,,,,,,,,,,,,,,,,,,,,,,A_16,001,2024-11-30_16h42.46.675,untitled,2024.1.5,None,2024-11-30 16h42.59.171705 +0530,
square.png,stranger,1,M,,,,,,,,,9,2,38,0,,,,,,,,,241.21695580000232,,,,,,,,,,,,,,,,,,,,,,,,,,,,,,,,,,,,,,,,,,,,,,,,,,,,,,,,,,,,241.20103460000246,241.21695580000232,241.7004362000007,241.7004362000007,241.7004362000007,241.7004362000007,241.71719189999567,242.0004018000036,242.0004018000036,242.0004018000036,242.80084429999988,242.7847957000049,None,242.7850169000012,242.80084429999988,243.8014458999969,243.78510280000046,,,,,,,,,,,,,,,,,,,,,,,,,,,,,,,,,,,,,,,,,,,,,,,,,,,,,,,,,,,,,,,,,,,,,,,,,,,,,,,A_16,001,2024-11-30_16h42.46.675,untitled,2024.1.5,None,2024-11-30 16h42.59.171705 +0530,
triangle.png,you,1,M,,,,,,,,,9,3,39,1,,,,,,,,,243.8014458999969,,,,,,,,,,,,,,,,,,,,,,,,,,,,,,,,,,,,,,,,,,,,,,,,,,,,,,,,,,,,243.78545559999475,243.8014458999969,244.30186550000508,244.30186550000508,244.30186550000508,244.30186550000508,244.30186550000508,244.6018471999996,244.6018471999996,244.6018471999996,245.40240279999853,245.38587339999503,None,245.38606479999726,245.40240279999853,246.40275559999282,246.38669539999682,,,,,,,,,,,,,,,,,,,,,,,,,,,,,,,,,,,,,,,,,,,,,,,,,,,,,,,,,,,,,,,,,,,,,,,,,,,,,,,A_16,001,2024-11-30_16h42.46.675,untitled,2024.1.5,None,2024-11-30 16h42.59.171705 +0530,
square.png,you,0,Z,,,,,,,,,10,0,40,2,,,,,,,,,246.40275559999282,,,,,,,,,,,,,,,,,,,,,,,,,,,,,,,,,,,,,,,,,,,,,,,,,,,,,,,,,,,,246.3870395999984,246.40275559999282,246.90321960000438,246.90321960000438,246.90321960000438,246.90321960000438,246.90321960000438,247.20330179999291,247.20330179999291,247.20330179999291,,247.23720160000084,m,247.23762400000123,247.2533332000021,248.25380439999572,248.2377267999982,0.3279593000042951,None,,,,,,,,,,,,,,,,,,,,,,,,,,,,,,,,,,,,,,,,,,,,,,,,,,,,,,,,,,,,,,,,,,,,,,,,,,,,,A_16,001,2024-11-30_16h42.46.675,untitled,2024.1.5,None,2024-11-30 16h42.59.171705 +0530,
triangle.png,stranger,0,Z,,,,,,,,,10,1,41,3,,,,,,,,,248.25380439999572,,,,,,,,,,,,,,,,,,,,,,,,,,,,,,,,,,,,,,,,,,,,,,,,,,,,,,,,,,,,248.23807160000433,248.25380439999572,248.7373676999996,248.7373676999996,248.7373676999996,248.7373676999996,248.75420239999949,249.03740749999997,249.03740749999997,249.03740749999997,,249.1382292000053,m,249.1387379999942,249.15433449999546,250.1545916000032,250.13856150000356,0.3938127000001259,None,,,,,,,,,,,,,,,,,,,,,,,,,,,,,,,,,,,,,,,,,,,,,,,,,,,,,,,,,,,,,,,,,,,,,,,,,,,,,A_16,001,2024-11-30_16h42.46.675,untitled,2024.1.5,None,2024-11-30 16h42.59.171705 +0530,
square.png,stranger,1,M,,,,,,,,,10,2,42,0,,,,,,,,,250.1545916000032,,,,,,,,,,,,,,,,,,,,,,,,,,,,,,,,,,,,,,,,,,,,,,,,,,,,,,,,,,,,250.13890879999963,250.1545916000032,250.63837869999406,250.63837869999406,250.63837869999406,250.63837869999406,250.65491759999713,250.93826969999645,250.93826969999645,250.93826969999645,,250.92267179999908,m,250.92310529999668,250.93826969999645,251.93905990000349,251.92281649999495,0.2680778000067221,None,,,,,,,,,,,,,,,,,,,,,,,,,,,,,,,,,,,,,,,,,,,,,,,,,,,,,,,,,,,,,,,,,,,,,,,,,,,,,A_16,001,2024-11-30_16h42.46.675,untitled,2024.1.5,None,2024-11-30 16h42.59.171705 +0530,
triangle.png,you,1,M,,,,,,,,,10,3,43,1,,,,,,,,,251.93905990000349,,,,,,,,,,,,,,,,,,,,,,,,,,,,,,,,,,,,,,,,,,,,,,,,,,,,,,,,,,,,251.92317039999762,251.93905990000349,252.42272539999976,252.42272539999976,252.42272539999976,252.42272539999976,252.43920609999623,252.72269860000233,252.72269860000233,252.72269860000233,,252.70672030000424,z,252.70719259999169,252.72269860000233,253.72322309999436,253.70686740000383,0.2800293000036618,None,,,,,,,,,,,,,,,,,,,,,,,,,,,,,,,,,,,,,,,,,,,,,,,,,,,,,,,,,,,,,,,,,,,,,,,,,,,,,A_16,001,2024-11-30_16h42.46.675,untitled,2024.1.5,None,2024-11-30 16h42.59.171705 +0530,
triangle.png,you,1,M,,,,,,,,,11,0,44,1,,,,,,,,,253.72322309999436,,,,,,,,,,,,,,,,,,,,,,,,,,,,,,,,,,,,,,,,,,,,,,,,,,,,,,,,,,,,253.7072124999977,253.72322309999436,254.20675139999366,254.20675139999366,254.20675139999366,254.20675139999366,254.22341479999886,254.50691090000328,254.50691090000328,254.50691090000328,,254.59118479999597,m,254.5916048999934,254.60690590000013,255.60768739999912,255.59109400000307,0.37584480000077747,None,,,,,,,,,,,,,,,,,,,,,,,,,,,,,,,,,,,,,,,,,,,,,,,,,,,,,,,,,,,,,,,,,,,,,,,,,,,,,A_16,001,2024-11-30_16h42.46.675,untitled,2024.1.5,None,2024-11-30 16h42.59.171705 +0530,
triangle.png,stranger,0,Z,,,,,,,,,11,1,45,3,,,,,,,,,255.60768739999912,,,,,,,,,,,,,,,,,,,,,,,,,,,,,,,,,,,,,,,,,,,,,,,,,,,,,,,,,,,,255.59143820000463,255.60768739999912,256.0913523000054,256.0913523000054,256.0913523000054,256.0913523000054,256.1078043000016,,,,,256.3254994000017,m,256.32592170000135,256.3412379999936,257.34171939999214,257.32533870000043,0.22235480000381358,None,,,,,,,,,,,,,,,,,,,,,,,,,,,,,,,,,,,,,,,,,,,,,,,,,,,,,,,,,,,,,,,,,,,,,,,,,,,,,A_16,001,2024-11-30_16h42.46.675,untitled,2024.1.5,None,2024-11-30 16h42.59.171705 +0530,
square.png,you,0,Z,,,,,,,,,11,2,46,2,,,,,,,,,257.34171939999214,,,,,,,,,,,,,,,,,,,,,,,,,,,,,,,,,,,,,,,,,,,,,,,,,,,,,,,,,,,,257.3256890000048,257.34171939999214,257.825508599999,257.825508599999,257.825508599999,257.825508599999,257.8419270000013,258.12561459999415,258.12561459999415,258.12561459999415,,258.1095231999934,m,258.10994480000227,258.12561459999415,259.1258979999984,259.10968989999674,0.26834660000167787,None,,,,,,,,,,,,,,,,,,,,,,,,,,,,,,,,,,,,,,,,,,,,,,,,,,,,,,,,,,,,,,,,,,,,,,,,,,,,,A_16,001,2024-11-30_16h42.46.675,untitled,2024.1.5,None,2024-11-30 16h42.59.171705 +0530,
square.png,stranger,1,M,,,,,,,,,11,3,47,0,,,,,,,,,259.1258979999984,,,,,,,,,,,,,,,,,,,,,,,,,,,,,,,,,,,,,,,,,,,,,,,,,,,,,,,,,,,,259.11004030000186,259.1258979999984,259.6095471000008,259.6095471000008,259.6095471000008,259.6095471000008,259.62619070000073,259.9095912000048,259.9095912000048,259.9095912000048,,260.0437022999977,m,260.0441514999984,260.05993679999665,261.0601936000021,261.04414729999553,0.424164700001711,None,,,,,,,,,,,,,,,,,,,,,,,,,,,,,,,,,,,,,,,,,,,,,,,,,,,,,,,,,,,,,,,,,,,,,,,,,,,,,A_16,001,2024-11-30_16h42.46.675,untitled,2024.1.5,None,2024-11-30 16h42.59.171705 +0530,
triangle.png,you,1,M,,,,,,,,,12,0,48,1,,,,,,,,,261.0601936000021,,,,,,,,,,,,,,,,,,,,,,,,,,,,,,,,,,,,,,,,,,,,,,,,,,,,,,,,,,,,261.044504999998,261.0601936000021,261.54390609999245,261.54390609999245,261.54390609999245,261.54390609999245,261.560736600004,261.8437535999983,261.8437535999983,261.8437535999983,,261.82779969999683,z,261.8282925999956,261.8437535999983,262.84457180000027,262.8281763999985,0.27840239999932237,None,,,,,,,,,,,,,,,,,,,,,,,,,,,,,,,,,,,,,,,,,,,,,,,,,,,,,,,,,,,,,,,,,,,,,,,,,,,,,A_16,001,2024-11-30_16h42.46.675,untitled,2024.1.5,None,2024-11-30 16h42.59.171705 +0530,
square.png,stranger,1,M,,,,,,,,,12,1,49,0,,,,,,,,,262.84457180000027,,,,,,,,,,,,,,,,,,,,,,,,,,,,,,,,,,,,,,,,,,,,,,,,,,,,,,,,,,,,262.82852979999734,262.84457180000027,263.32803770000464,263.32803770000464,263.32803770000464,263.32803770000464,263.34478240000317,263.6281299999973,263.6281299999973,263.6281299999973,,263.8124625999917,m,263.8128856999974,263.828399799997,264.828789399995,264.81267630000366,0.4786870999960229,None,,,,,,,,,,,,,,,,,,,,,,,,,,,,,,,,,,,,,,,,,,,,,,,,,,,,,,,,,,,,,,,,,,,,,,,,,,,,,A_16,001,2024-11-30_16h42.46.675,untitled,2024.1.5,None,2024-11-30 16h42.59.171705 +0530,
square.png,you,0,Z,,,,,,,,,12,2,50,2,,,,,,,,,264.828789399995,,,,,,,,,,,,,,,,,,,,,,,,,,,,,,,,,,,,,,,,,,,,,,,,,,,,,,,,,,,,264.81302240000514,264.828789399995,265.3127567000047,265.3127567000047,265.3127567000047,265.3127567000047,265.3292325999937,265.6124542000034,265.6124542000034,265.6124542000034,266.41290379999555,266.3966733999987,None,266.3968639999948,266.41290379999555,267.41366389999166,267.3973277000041,,,,,,,,,,,,,,,,,,,,,,,,,,,,,,,,,,,,,,,,,,,,,,,,,,,,,,,,,,,,,,,,,,,,,,,,,,,,,,,A_16,001,2024-11-30_16h42.46.675,untitled,2024.1.5,None,2024-11-30 16h42.59.171705 +0530,
triangle.png,stranger,0,Z,,,,,,,,,12,3,51,3,,,,,,,,,267.41366389999166,,,,,,,,,,,,,,,,,,,,,,,,,,,,,,,,,,,,,,,,,,,,,,,,,,,,,,,,,,,,267.3976728999987,267.41366389999166,267.914059200004,267.914059200004,267.914059200004,267.914059200004,267.914059200004,268.2138709999999,268.2138709999999,268.2138709999999,269.01450459999614,268.99822159999167,None,268.9984115999978,269.01450459999614,270.01483200000075,269.99878609999723,,,,,,,,,,,,,,,,,,,,,,,,,,,,,,,,,,,,,,,,,,,,,,,,,,,,,,,,,,,,,,,,,,,,,,,,,,,,,,,A_16,001,2024-11-30_16h42.46.675,untitled,2024.1.5,None,2024-11-30 16h42.59.171705 +0530,
triangle.png,you,1,M,,,,,,,,,13,0,52,1,,,,,,,,,270.01483200000075,,,,,,,,,,,,,,,,,,,,,,,,,,,,,,,,,,,,,,,,,,,,,,,,,,,,,,,,,,,,269.9991347000032,270.01483200000075,270.51541229999566,270.51541229999566,270.51541229999566,270.51541229999566,270.51541229999566,270.81529820000287,270.81529820000287,270.81529820000287,,270.8827448999946,m,270.88317030000326,270.89854890000424,271.89902519999305,271.8829853999923,0.3549769999954151,None,,,,,,,,,,,,,,,,,,,,,,,,,,,,,,,,,,,,,,,,,,,,,,,,,,,,,,,,,,,,,,,,,,,,,,,,,,,,,A_16,001,2024-11-30_16h42.46.675,untitled,2024.1.5,None,2024-11-30 16h42.59.171705 +0530,
square.png,you,0,Z,,,,,,,,,13,1,53,2,,,,,,,,,271.89902519999305,,,,,,,,,,,,,,,,,,,,,,,,,,,,,,,,,,,,,,,,,,,,,,,,,,,,,,,,,,,,271.8833331999922,271.89902519999305,272.38307989999885,272.38307989999885,272.38307989999885,272.38307989999885,272.3994290999981,272.6829202999943,272.6829202999943,272.6829202999943,,272.81692420000036,z,272.81736210000236,272.8330963000044,273.83350249999785,273.81714679999277,0.43173209999804385,None,,,,,,,,,,,,,,,,,,,,,,,,,,,,,,,,,,,,,,,,,,,,,,,,,,,,,,,,,,,,,,,,,,,,,,,,,,,,,A_16,001,2024-11-30_16h42.46.675,untitled,2024.1.5,None,2024-11-30 16h42.59.171705 +0530,
triangle.png,stranger,0,Z,,,,,,,,,13,2,54,3,,,,,,,,,273.83350249999785,,,,,,,,,,,,,,,,,,,,,,,,,,,,,,,,,,,,,,,,,,,,,,,,,,,,,,,,,,,,273.81749760000093,273.83350249999785,274.31733659999736,274.31733659999736,274.31733659999736,274.31733659999736,274.3337693999929,274.61712130000524,274.61712130000524,274.61712130000524,,274.71805529999256,m,274.7184763999976,274.7337892999931,275.73462109999673,275.7182960999926,0.3894235000043409,None,,,,,,,,,,,,,,,,,,,,,,,,,,,,,,,,,,,,,,,,,,,,,,,,,,,,,,,,,,,,,,,,,,,,,,,,,,,,,A_16,001,2024-11-30_16h42.46.675,untitled,2024.1.5,None,2024-11-30 16h42.59.171705 +0530,
square.png,stranger,1,M,,,,,,,,,13,3,55,0,,,,,,,,,275.73462109999673,,,,,,,,,,,,,,,,,,,,,,,,,,,,,,,,,,,,,,,,,,,,,,,,,,,,,,,,,,,,275.7186462999962,275.73462109999673,276.21824629999173,276.21824629999173,276.21824629999173,276.21824629999173,276.2349450000038,276.51828289999685,276.51828289999685,276.51828289999685,,276.5857188999944,m,276.5861465999915,276.60145940000075,277.60206330000074,277.58588410000084,0.36453699998673983,None,,,,,,,,,,,,,,,,,,,,,,,,,,,,,,,,,,,,,,,,,,,,,,,,,,,,,,,,,,,,,,,,,,,,,,,,,,,,,A_16,001,2024-11-30_16h42.46.675,untitled,2024.1.5,None,2024-11-30 16h42.59.171705 +0530,
square.png,you,0,Z,,,,,,,,,14,0,56,2,,,,,,,,,277.60206330000074,,,,,,,,,,,,,,,,,,,,,,,,,,,,,,,,,,,,,,,,,,,,,,,,,,,,,,,,,,,,277.5862952000025,277.60206330000074,278.0858043000044,278.0858043000044,278.0858043000044,278.0858043000044,278.1024793999968,,,,,278.3532259000058,z,278.35365780000575,278.3690601999988,279.3695963999926,279.3535777999932,0.2652673999982653,None,,,,,,,,,,,,,,,,,,,,,,,,,,,,,,,,,,,,,,,,,,,,,,,,,,,,,,,,,,,,,,,,,,,,,,,,,,,,,A_16,001,2024-11-30_16h42.46.675,untitled,2024.1.5,None,2024-11-30 16h42.59.171705 +0530,
square.png,stranger,1,M,,,,,,,,,14,1,57,0,,,,,,,,,279.3695963999926,,,,,,,,,,,,,,,,,,,,,,,,,,,,,,,,,,,,,,,,,,,,,,,,,,,,,,,,,,,,279.3539246,279.3695963999926,279.8535258000047,279.8535258000047,279.8535258000047,279.8535258000047,279.8699054000026,,,,,280.120952199999,m,280.12137720000464,280.1367839000013,281.137281599993,281.1208171000035,0.26530760001332965,None,,,,,,,,,,,,,,,,,,,,,,,,,,,,,,,,,,,,,,,,,,,,,,,,,,,,,,,,,,,,,,,,,,,,,,,,,,,,,A_16,001,2024-11-30_16h42.46.675,untitled,2024.1.5,None,2024-11-30 16h42.59.171705 +0530,
triangle.png,stranger,0,Z,,,,,,,,,14,2,58,3,,,,,,,,,281.137281599993,,,,,,,,,,,,,,,,,,,,,,,,,,,,,,,,,,,,,,,,,,,,,,,,,,,,,,,,,,,,281.1211684000009,281.137281599993,281.62106330000097,281.62106330000097,281.62106330000097,281.62106330000097,281.63745179999387,,,,,281.8554126999952,m,281.8558297999989,281.8709913999919,282.8712899999955,282.85537259999546,0.23291500000050291,None,,,,,,,,,,,,,,,,,,,,,,,,,,,,,,,,,,,,,,,,,,,,,,,,,,,,,,,,,,,,,,,,,,,,,,,,,,,,,A_16,001,2024-11-30_16h42.46.675,untitled,2024.1.5,None,2024-11-30 16h42.59.171705 +0530,
triangle.png,you,1,M,,,,,,,,,14,3,59,1,,,,,,,,,282.8712899999955,,,,,,,,,,,,,,,,,,,,,,,,,,,,,,,,,,,,,,,,,,,,,,,,,,,,,,,,,,,,282.85572360000515,282.8712899999955,283.35511699999915,283.35511699999915,283.35511699999915,283.35511699999915,283.37188769999193,283.65531020000344,283.65531020000344,283.65531020000344,,283.6560577000055,z,283.6564762999915,283.67182400000456,284.6725315999938,284.6562258000049,0.2958113999920897,None,,,,,,,,,,,,,,,,,,,,,,,,,,,,,,,,,,,,,,,,,,,,,,,,,,,,,,,,,,,,,,,,,,,,,,,,,,,,,A_16,001,2024-11-30_16h42.46.675,untitled,2024.1.5,None,2024-11-30 16h42.59.171705 +0530,
square.png,you,0,Z,,,,,,,,,15,0,60,2,,,,,,,,,284.6725315999938,,,,,,,,,,,,,,,,,,,,,,,,,,,,,,,,,,,,,,,,,,,,,,,,,,,,,,,,,,,,284.6565743999963,284.6725315999938,285.1561408999987,285.1561408999987,285.1561408999987,285.1561408999987,285.172756400003,285.4560155999934,285.4560155999934,285.4560155999934,286.2564027000044,286.24003259999154,None,286.2402236999915,286.2564027000044,287.25703259999864,287.2409573000041,,,,,,,,,,,,,,,,,,,,,,,,,,,,,,,,,,,,,,,,,,,,,,,,,,,,,,,,,,,,,,,,,,,,,,,,,,,,,,,A_16,001,2024-11-30_16h42.46.675,untitled,2024.1.5,None,2024-11-30 16h42.59.171705 +0530,
square.png,stranger,1,M,,,,,,,,,15,1,61,0,,,,,,,,,287.25703259999864,,,,,,,,,,,,,,,,,,,,,,,,,,,,,,,,,,,,,,,,,,,,,,,,,,,,,,,,,,,,287.24130799999693,287.25703259999864,287.75734899999225,287.75734899999225,287.75734899999225,287.75734899999225,287.75734899999225,,,,,288.0082226999948,m,288.00864040000306,288.024118500005,289.0245638000051,289.00870920000307,0.2492670000065118,None,,,,,,,,,,,,,,,,,,,,,,,,,,,,,,,,,,,,,,,,,,,,,,,,,,,,,,,,,,,,,,,,,,,,,,,,,,,,,A_16,001,2024-11-30_16h42.46.675,untitled,2024.1.5,None,2024-11-30 16h42.59.171705 +0530,
triangle.png,stranger,0,Z,,,,,,,,,15,2,62,3,,,,,,,,,289.0245638000051,,,,,,,,,,,,,,,,,,,,,,,,,,,,,,,,,,,,,,,,,,,,,,,,,,,,,,,,,,,,289.009069599997,289.0245638000051,289.5083295999939,289.5083295999939,289.5083295999939,289.5083295999939,289.5250095999945,289.80837739999697,289.80837739999697,289.80837739999697,290.60882870000205,290.592373099993,None,290.5925639999914,290.60882870000205,291.60921589999634,291.59292209999694,,,,,,,,,,,,,,,,,,,,,,,,,,,,,,,,,,,,,,,,,,,,,,,,,,,,,,,,,,,,,,,,,,,,,,,,,,,,,,,A_16,001,2024-11-30_16h42.46.675,untitled,2024.1.5,None,2024-11-30 16h42.59.171705 +0530,
triangle.png,you,1,M,,,,,,,,,15,3,63,1,,,,,,,,,291.60921589999634,,,,,,,,,,,,,,,,,,,,,,,,,,,,,,,,,,,,,,,,,,,,,,,,,,,,,,,,,,,,291.59327420000045,291.60921589999634,292.1094404000032,292.1094404000032,292.1094404000032,292.1094404000032,292.1094404000032,292.40961329999845,292.40961329999845,292.40961329999845,,292.5104239999928,m,292.5108504999953,292.5264392999961,293.52699620000203,293.51058639999246,0.3962681999983033,None,,,,,,,,,,,,,,,,,,,,,,,,,,,,,,,,,,,,,,,,,,,,,,,,,,,,,,,,,,,,,,,,,,,,,,,,,,,,,A_16,001,2024-11-30_16h42.46.675,untitled,2024.1.5,None,2024-11-30 16h42.59.171705 +0530,
triangle.png,you,1,M,,,,,,,,,16,0,64,1,,,,,,,,,293.52699620000203,,,,,,,,,,,,,,,,,,,,,,,,,,,,,,,,,,,,,,,,,,,,,,,,,,,,,,,,,,,,293.51093609999225,293.52699620000203,294.0106988000043,294.0106988000043,294.0106988000043,294.0106988000043,294.02710710000247,294.3105998999963,294.3105998999963,294.3105998999963,,294.3115667999955,z,294.31208889999834,294.3272481000022,295.32801240000117,295.31155579999904,0.2949598999985028,None,,,,,,,,,,,,,,,,,,,,,,,,,,,,,,,,,,,,,,,,,,,,,,,,,,,,,,,,,,,,,,,,,,,,,,,,,,,,,A_16,001,2024-11-30_16h42.46.675,untitled,2024.1.5,None,2024-11-30 16h42.59.171705 +0530,
square.png,stranger,1,M,,,,,,,,,16,1,65,0,,,,,,,,,295.32801240000117,,,,,,,,,,,,,,,,,,,,,,,,,,,,,,,,,,,,,,,,,,,,,,,,,,,,,,,,,,,,295.3119013999967,295.32801240000117,295.8113832999952,295.8113832999952,295.8113832999952,295.8113832999952,295.82821310000145,296.11151000000245,296.11151000000245,296.11151000000245,,296.1455277999921,m,296.1459659999964,296.1613667000056,297.16188889999466,297.145680799993,0.33161850000033155,None,,,,,,,,,,,,,,,,,,,,,,,,,,,,,,,,,,,,,,,,,,,,,,,,,,,,,,,,,,,,,,,,,,,,,,,,,,,,,A_16,001,2024-11-30_16h42.46.675,untitled,2024.1.5,None,2024-11-30 16h42.59.171705 +0530,
square.png,you,0,Z,,,,,,,,,16,2,66,2,,,,,,,,,297.16188889999466,,,,,,,,,,,,,,,,,,,,,,,,,,,,,,,,,,,,,,,,,,,,,,,,,,,,,,,,,,,,297.1460431000014,297.16188889999466,297.6459471999988,297.6459471999988,297.6459471999988,297.6459471999988,297.6626300999924,,,,,297.8470310999983,m,297.84752700000536,297.862427,298.8628530999995,298.8467507000023,0.192305699994904,None,,,,,,,,,,,,,,,,,,,,,,,,,,,,,,,,,,,,,,,,,,,,,,,,,,,,,,,,,,,,,,,,,,,,,,,,,,,,,A_16,001,2024-11-30_16h42.46.675,untitled,2024.1.5,None,2024-11-30 16h42.59.171705 +0530,
triangle.png,stranger,0,Z,,,,,,,,,16,3,67,3,,,,,,,,,298.8628530999995,,,,,,,,,,,,,,,,,,,,,,,,,,,,,,,,,,,,,,,,,,,,,,,,,,,,,,,,,,,,298.8471045000042,298.8628530999995,299.3467468000017,299.3467468000017,299.3467468000017,299.3467468000017,299.3631380000006,299.646634299992,299.646634299992,299.646634299992,,299.7140187000041,m,299.7144516999979,299.730160799998,300.7303930000053,300.71438520000083,0.35095570000703447,None,,,,,,,,,,,,,,,,,,,,,,,,,,,,,,,,,,,,,,,,,,,,,,,,,,,,,,,,,,,,,,,,,,,,,,,,,,,,,A_16,001,2024-11-30_16h42.46.675,untitled,2024.1.5,None,2024-11-30 16h42.59.171705 +0530,
square.png,you,0,Z,,,,,,,,,17,0,68,2,,,,,,,,,300.7303930000053,,,,,,,,,,,,,,,,,,,,,,,,,,,,,,,,,,,,,,,,,,,,,,,,,,,,,,,,,,,,300.7147488000046,300.7303930000053,301.2142176000052,301.2142176000052,301.2142176000052,301.2142176000052,301.2310093999986,301.5143309999985,301.5143309999985,301.5143309999985,,301.5150566999946,m,301.51549190000514,301.5309116999997,302.5314980999974,302.51503739999316,0.2848870000016177,None,,,,,,,,,,,,,,,,,,,,,,,,,,,,,,,,,,,,,,,,,,,,,,,,,,,,,,,,,,,,,,,,,,,,,,,,,,,,,A_16,001,2024-11-30_16h42.46.675,untitled,2024.1.5,None,2024-11-30 16h42.59.171705 +0530,
triangle.png,stranger,0,Z,,,,,,,,,17,1,69,3,,,,,,,,,302.5314980999974,,,,,,,,,,,,,,,,,,,,,,,,,,,,,,,,,,,,,,,,,,,,,,,,,,,,,,,,,,,,302.51539030000276,302.5314980999974,303.0150636000035,303.0150636000035,303.0150636000035,303.0150636000035,303.0319904999924,,,,,303.149402199997,m,303.14982659999805,303.1650954999932,304.165708600005,304.1492514999991,0.1187935999914771,None,,,,,,,,,,,,,,,,,,,,,,,,,,,,,,,,,,,,,,,,,,,,,,,,,,,,,,,,,,,,,,,,,,,,,,,,,,,,,A_16,001,2024-11-30_16h42.46.675,untitled,2024.1.5,None,2024-11-30 16h42.59.171705 +0530,
triangle.png,you,1,M,,,,,,,,,17,2,70,1,,,,,,,,,304.165708600005,,,,,,,,,,,,,,,,,,,,,,,,,,,,,,,,,,,,,,,,,,,,,,,,,,,,,,,,,,,,304.1496033000003,304.165708600005,304.64941610000096,304.64941610000096,304.64941610000096,304.64941610000096,304.6659743999917,304.949154899994,304.949154899994,304.949154899994,305.7496375000046,305.733413199996,None,305.733607400005,305.7496375000046,306.75025599999935,306.7341487999947,,,,,,,,,,,,,,,,,,,,,,,,,,,,,,,,,,,,,,,,,,,,,,,,,,,,,,,,,,,,,,,,,,,,,,,,,,,,,,,A_16,001,2024-11-30_16h42.46.675,untitled,2024.1.5,None,2024-11-30 16h42.59.171705 +0530,
square.png,stranger,1,M,,,,,,,,,17,3,71,0,,,,,,,,,306.75025599999935,,,,,,,,,,,,,,,,,,,,,,,,,,,,,,,,,,,,,,,,,,,,,,,,,,,,,,,,,,,,306.7345023999951,306.75025599999935,307.2504869999975,307.2504869999975,307.2504869999975,307.2504869999975,307.2504869999975,307.55060689999664,307.55060689999664,307.55060689999664,,307.75150450000365,z,307.751935399996,307.7675235999923,308.76807259999623,308.7518751000025,0.4882253999967361,None,,,,,,,,,,,,,,,,,,,,,,,,,,,,,,,,,,,,,,,,,,,,,,,,,,,,,,,,,,,,,,,,,,,,,,,,,,,,,A_16,001,2024-11-30_16h42.46.675,untitled,2024.1.5,None,2024-11-30 16h42.59.171705 +0530,
square.png,you,0,Z,,,,,,,,,18,0,72,2,,,,,,,,,308.76807259999623,,,,,,,,,,,,,,,,,,,,,,,,,,,,,,,,,,,,,,,,,,,,,,,,,,,,,,,,,,,,308.7522259999969,308.76807259999623,309.25180179999734,309.25180179999734,309.25180179999734,309.25180179999734,309.2682066999987,309.55164550000336,309.55164550000336,309.55164550000336,310.3523906000046,310.3360465000005,None,310.3362369999959,310.3523906000046,311.3523780999967,311.3364426000044,,,,,,,,,,,,,,,,,,,,,,,,,,,,,,,,,,,,,,,,,,,,,,,,,,,,,,,,,,,,,,,,,,,,,,,,,,,,,,,A_16,001,2024-11-30_16h42.46.675,untitled,2024.1.5,None,2024-11-30 16h42.59.171705 +0530,
square.png,stranger,1,M,,,,,,,,,18,1,73,0,,,,,,,,,311.3523780999967,,,,,,,,,,,,,,,,,,,,,,,,,,,,,,,,,,,,,,,,,,,,,,,,,,,,,,,,,,,,311.33679129999655,311.3523780999967,311.85308289999375,311.85308289999375,311.85308289999375,311.85308289999375,311.85308289999375,312.1531260000047,312.1531260000047,312.1531260000047,,312.2204764000053,m,312.2209009999933,312.2364084000001,313.23695609999413,313.2205602000031,0.3531072000041604,None,,,,,,,,,,,,,,,,,,,,,,,,,,,,,,,,,,,,,,,,,,,,,,,,,,,,,,,,,,,,,,,,,,,,,,,,,,,,,A_16,001,2024-11-30_16h42.46.675,untitled,2024.1.5,None,2024-11-30 16h42.59.171705 +0530,
triangle.png,stranger,0,Z,,,,,,,,,18,2,74,3,,,,,,,,,313.23695609999413,,,,,,,,,,,,,,,,,,,,,,,,,,,,,,,,,,,,,,,,,,,,,,,,,,,,,,,,,,,,313.2209075999999,313.23695609999413,313.72077650000574,313.72077650000574,313.72077650000574,313.72077650000574,313.73738039999444,314.02071529999375,314.02071529999375,314.02071529999375,,314.1213238000055,z,314.12174469999445,314.1375593999983,315.1380782000051,315.1216157000017,0.3904901000059908,None,,,,,,,,,,,,,,,,,,,,,,,,,,,,,,,,,,,,,,,,,,,,,,,,,,,,,,,,,,,,,,,,,,,,,,,,,,,,,A_16,001,2024-11-30_16h42.46.675,untitled,2024.1.5,None,2024-11-30 16h42.59.171705 +0530,
triangle.png,you,1,M,,,,,,,,,18,3,75,1,,,,,,,,,315.1380782000051,,,,,,,,,,,,,,,,,,,,,,,,,,,,,,,,,,,,,,,,,,,,,,,,,,,,,,,,,,,,315.12195939999947,315.1380782000051,315.62168860000384,315.62168860000384,315.62168860000384,315.62168860000384,315.6382784000016,315.9216787000041,315.9216787000041,315.9216787000041,316.7220146000036,316.70591350000177,None,316.70610480000323,316.7220146000036,317.72250509999867,317.70626779999293,,,,,,,,,,,,,,,,,,,,,,,,,,,,,,,,,,,,,,,,,,,,,,,,,,,,,,,,,,,,,,,,,,,,,,,,,,,,,,,A_16,001,2024-11-30_16h42.46.675,untitled,2024.1.5,None,2024-11-30 16h42.59.171705 +0530,
triangle.png,stranger,0,Z,,,,,,,,,19,0,76,3,,,,,,,,,317.72250509999867,,,,,,,,,,,,,,,,,,,,,,,,,,,,,,,,,,,,,,,,,,,,,,,,,,,,,,,,,,,,317.7066160999966,317.72250509999867,318.22293619999255,318.22293619999255,318.22293619999255,318.22293619999255,318.22293619999255,318.52299969999876,318.52299969999876,318.52299969999876,319.32318930000474,319.30714750000334,None,319.3073368000041,319.32318930000474,320.323874099995,320.3076325000002,,,,,,,,,,,,,,,,,,,,,,,,,,,,,,,,,,,,,,,,,,,,,,,,,,,,,,,,,,,,,,,,,,,,,,,,,,,,,,,A_16,001,2024-11-30_16h42.46.675,untitled,2024.1.5,None,2024-11-30 16h42.59.171705 +0530,
square.png,stranger,1,M,,,,,,,,,19,1,77,0,,,,,,,,,320.323874099995,,,,,,,,,,,,,,,,,,,,,,,,,,,,,,,,,,,,,,,,,,,,,,,,,,,,,,,,,,,,320.3079862000013,320.323874099995,320.82437210000353,320.82437210000353,320.82437210000353,320.82437210000353,320.82437210000353,321.12427839999145,321.12427839999145,321.12427839999145,321.92453750000277,321.908385200004,None,321.90857959999994,321.92453750000277,322.92528989999846,322.9088170000032,,,,,,,,,,,,,,,,,,,,,,,,,,,,,,,,,,,,,,,,,,,,,,,,,,,,,,,,,,,,,,,,,,,,,,,,,,,,,,,A_16,001,2024-11-30_16h42.46.675,untitled,2024.1.5,None,2024-11-30 16h42.59.171705 +0530,
triangle.png,you,1,M,,,,,,,,,19,2,78,1,,,,,,,,,322.92528989999846,,,,,,,,,,,,,,,,,,,,,,,,,,,,,,,,,,,,,,,,,,,,,,,,,,,,,,,,,,,,322.9091715999966,322.92528989999846,323.42569000000367,323.42569000000367,323.42569000000367,323.42569000000367,323.42569000000367,323.7253172000055,323.7253172000055,323.7253172000055,324.5259093999921,324.5097695000004,None,324.5099678999977,324.5259093999921,325.5264162999956,325.5104363999999,,,,,,,,,,,,,,,,,,,,,,,,,,,,,,,,,,,,,,,,,,,,,,,,,,,,,,,,,,,,,,,,,,,,,,,,,,,,,,,A_16,001,2024-11-30_16h42.46.675,untitled,2024.1.5,None,2024-11-30 16h42.59.171705 +0530,
square.png,you,0,Z,,,,,,,,,19,3,79,2,,,,,,,,,325.5264162999956,,,,,,,,,,,,,,,,,,,,,,,,,,,,,,,,,,,,,,,,,,,,,,,,,,,,,,,,,,,,325.5107938000001,325.5264162999956,326.0269463000004,326.0269463000004,326.0269463000004,326.0269463000004,326.0269463000004,326.3268323999946,326.3268323999946,326.3268323999946,327.1274427000026,327.1112066999922,None,327.1114154999959,327.1274427000026,328.127980499994,328.11165950000577,,,,,,,,,,,,,,,,,,,,,,,,,,,,,,,,,,,,,,,,,,,,,,,,,,,,,,,,,,,,,,,,,,,,,,,,,,,,,,,A_16,001,2024-11-30_16h42.46.675,untitled,2024.1.5,None,2024-11-30 16h42.59.171705 +0530,
square.png,you,0,Z,,,,,,,,,20,0,80,2,,,,,,,,,328.127980499994,,,,,,,,,,,,,,,,,,,,,,,,,,,,,,,,,,,,,,,,,,,,,,,,,,,,,,,,,,,,328.11200680000184,328.127980499994,328.62816730000486,328.62816730000486,328.62816730000486,328.62816730000486,328.62816730000486,,,,,328.69564649999666,m,328.696082800001,328.7113315000024,329.7118926999974,329.6957545000041,0.06609259999822825,None,,,,,,,,,,,,,,,,,,,,,,,,,,,,,,,,,,,,,,,,,,,,,,,,,,,,,,,,,,,,,,,,,,,,,,,,,,,,,A_16,001,2024-11-30_16h42.46.675,untitled,2024.1.5,None,2024-11-30 16h42.59.171705 +0530,
triangle.png,you,1,M,,,,,,,,,20,1,81,1,,,,,,,,,329.7118926999974,,,,,,,,,,,,,,,,,,,,,,,,,,,,,,,,,,,,,,,,,,,,,,,,,,,,,,,,,,,,329.69609830000263,329.7118926999974,330.1958917000011,330.1958917000011,330.1958917000011,330.1958917000011,330.21229270000185,330.4956753000006,330.4956753000006,330.4956753000006,331.29604570000083,331.27993639999477,None,331.2801257999963,331.29604570000083,332.29662839999946,332.2804902999924,,,,,,,,,,,,,,,,,,,,,,,,,,,,,,,,,,,,,,,,,,,,,,,,,,,,,,,,,,,,,,,,,,,,,,,,,,,,,,,A_16,001,2024-11-30_16h42.46.675,untitled,2024.1.5,None,2024-11-30 16h42.59.171705 +0530,
square.png,stranger,1,M,,,,,,,,,20,2,82,0,,,,,,,,,332.29662839999946,,,,,,,,,,,,,,,,,,,,,,,,,,,,,,,,,,,,,,,,,,,,,,,,,,,,,,,,,,,,332.28084720000334,332.29662839999946,332.7970844999945,332.7970844999945,332.7970844999945,332.7970844999945,332.7970844999945,,,,,332.9810276999924,m,332.98147230000177,332.99710989999585,333.9975742999959,333.9813428000052,0.17762390000279993,None,,,,,,,,,,,,,,,,,,,,,,,,,,,,,,,,,,,,,,,,,,,,,,,,,,,,,,,,,,,,,,,,,,,,,,,,,,,,,A_16,001,2024-11-30_16h42.46.675,untitled,2024.1.5,None,2024-11-30 16h42.59.171705 +0530,
triangle.png,stranger,0,Z,,,,,,,,,20,3,83,3,,,,,,,,,333.9975742999959,,,,,,,,,,,,,,,,,,,,,,,,,,,,,,,,,,,,,,,,,,,,,,,,,,,,,,,,,,,,333.9816926000058,333.9975742999959,334.4810962000047,334.4810962000047,334.4810962000047,334.4810962000047,334.4980057999928,334.78130819999205,334.78130819999205,334.78130819999205,,334.8819946000003,z,334.8824256999942,334.8980121999921,335.8984522999963,335.8821949999983,0.3973486999893794,None,,,,,,,,,,,,,,,,,,,,,,,,,,,,,,,,,,,,,,,,,,,,,,,,,,,,,,,,,,,,,,,,,,,,,,,,,,,,,A_16,001,2024-11-30_16h42.46.675,untitled,2024.1.5,None,2024-11-30 16h42.59.171705 +0530,
square.png,stranger,1,M,,,,,,,,,21,0,84,0,,,,,,,,,335.8984522999963,,,,,,,,,,,,,,,,,,,,,,,,,,,,,,,,,,,,,,,,,,,,,,,,,,,,,,,,,,,,335.88255019999633,335.8984522999963,336.38242949999403,336.38242949999403,336.38242949999403,336.38242949999403,336.3988809000002,,,,,336.5665198999923,m,336.56694289999723,336.58229009999195,337.5827582000056,337.56652350000513,0.17980009999882895,None,,,,,,,,,,,,,,,,,,,,,,,,,,,,,,,,,,,,,,,,,,,,,,,,,,,,,,,,,,,,,,,,,,,,,,,,,,,,,A_16,001,2024-11-30_16h42.46.675,untitled,2024.1.5,None,2024-11-30 16h42.59.171705 +0530,
square.png,you,0,Z,,,,,,,,,21,1,85,2,,,,,,,,,337.5827582000056,,,,,,,,,,,,,,,,,,,,,,,,,,,,,,,,,,,,,,,,,,,,,,,,,,,,,,,,,,,,337.56687229999807,337.5827582000056,338.0663477999915,338.0663477999915,338.0663477999915,338.0663477999915,338.08307989999594,338.36631519999355,338.36631519999355,338.36631519999355,339.1670243999979,339.1504408000037,None,339.1506328999967,339.1670243999979,340.16752269999415,340.15127190000203,,,,,,,,,,,,,,,,,,,,,,,,,,,,,,,,,,,,,,,,,,,,,,,,,,,,,,,,,,,,,,,,,,,,,,,,,,,,,,,A_16,001,2024-11-30_16h42.46.675,untitled,2024.1.5,None,2024-11-30 16h42.59.171705 +0530,
triangle.png,stranger,0,Z,,,,,,,,,21,2,86,3,,,,,,,,,340.16752269999415,,,,,,,,,,,,,,,,,,,,,,,,,,,,,,,,,,,,,,,,,,,,,,,,,,,,,,,,,,,,340.15164739999454,340.16752269999415,340.66761669999687,340.66761669999687,340.66761669999687,340.66761669999687,340.66761669999687,,,,,340.901738799992,m,340.90218459999596,340.91775300000154,341.9183095000044,341.90206779999426,0.22191929999098647,None,,,,,,,,,,,,,,,,,,,,,,,,,,,,,,,,,,,,,,,,,,,,,,,,,,,,,,,,,,,,,,,,,,,,,,,,,,,,,A_16,001,2024-11-30_16h42.46.675,untitled,2024.1.5,None,2024-11-30 16h42.59.171705 +0530,
triangle.png,you,1,M,,,,,,,,,21,3,87,1,,,,,,,,,341.9183095000044,,,,,,,,,,,,,,,,,,,,,,,,,,,,,,,,,,,,,,,,,,,,,,,,,,,,,,,,,,,,341.9024247999914,341.9183095000044,342.40199289999146,342.40199289999146,342.40199289999146,342.40199289999146,342.41851529999985,342.7020713999955,342.7020713999955,342.7020713999955,,342.7359218000056,m,342.7363454000006,342.7520918999944,343.7525561999937,343.73633050000353,0.3325094000028912,None,,,,,,,,,,,,,,,,,,,,,,,,,,,,,,,,,,,,,,,,,,,,,,,,,,,,,,,,,,,,,,,,,,,,,,,,,,,,,A_16,001,2024-11-30_16h42.46.675,untitled,2024.1.5,None,2024-11-30 16h42.59.171705 +0530,
triangle.png,stranger,0,Z,,,,,,,,,22,0,88,3,,,,,,,,,343.7525561999937,,,,,,,,,,,,,,,,,,,,,,,,,,,,,,,,,,,,,,,,,,,,,,,,,,,,,,,,,,,,343.73668129999714,343.7525561999937,344.23629800000344,344.23629800000344,344.23629800000344,344.23629800000344,344.25290959999256,344.5363647000049,344.5363647000049,344.5363647000049,,344.52049139999144,z,344.5209118000057,344.5363647000049,345.5369103999983,345.520511499999,0.2825944000069285,None,,,,,,,,,,,,,,,,,,,,,,,,,,,,,,,,,,,,,,,,,,,,,,,,,,,,,,,,,,,,,,,,,,,,,,,,,,,,,A_16,001,2024-11-30_16h42.46.675,untitled,2024.1.5,None,2024-11-30 16h42.59.171705 +0530,
square.png,stranger,1,M,,,,,,,,,22,1,89,0,,,,,,,,,345.5369103999983,,,,,,,,,,,,,,,,,,,,,,,,,,,,,,,,,,,,,,,,,,,,,,,,,,,,,,,,,,,,345.5208566999936,345.5369103999983,346.0205919,346.0205919,346.0205919,346.0205919,346.0372725999914,346.32047299999977,346.32047299999977,346.32047299999977,,346.5378647000034,m,346.53828340000473,346.5540772999957,347.5545371000044,347.5382679000031,0.5062588000000687,None,,,,,,,,,,,,,,,,,,,,,,,,,,,,,,,,,,,,,,,,,,,,,,,,,,,,,,,,,,,,,,,,,,,,,,,,,,,,,A_16,001,2024-11-30_16h42.46.675,untitled,2024.1.5,None,2024-11-30 16h42.59.171705 +0530,
triangle.png,you,1,M,,,,,,,,,22,2,90,1,,,,,,,,,347.5545371000044,,,,,,,,,,,,,,,,,,,,,,,,,,,,,,,,,,,,,,,,,,,,,,,,,,,,,,,,,,,,347.53861229999166,347.5545371000044,348.03837799999746,348.03837799999746,348.03837799999746,348.03837799999746,348.05479399999604,348.3381400999933,348.3381400999933,348.3381400999933,,348.4394120999932,z,348.43983730000036,348.4550198999932,349.45558029999665,349.4391198999947,0.3924262000073213,None,,,,,,,,,,,,,,,,,,,,,,,,,,,,,,,,,,,,,,,,,,,,,,,,,,,,,,,,,,,,,,,,,,,,,,,,,,,,,A_16,001,2024-11-30_16h42.46.675,untitled,2024.1.5,None,2024-11-30 16h42.59.171705 +0530,
square.png,you,0,Z,,,,,,,,,22,3,91,2,,,,,,,,,349.45558029999665,,,,,,,,,,,,,,,,,,,,,,,,,,,,,,,,,,,,,,,,,,,,,,,,,,,,,,,,,,,,349.43947100000514,349.45558029999665,349.93913990000146,349.93913990000146,349.93913990000146,349.93913990000146,349.9556001000019,350.23901459999615,350.23901459999615,350.23901459999615,,350.356641099992,m,350.3570633000054,350.3725032999937,351.37317930000427,351.35696029999235,0.4038580000051297,None,,,,,,,,,,,,,,,,,,,,,,,,,,,,,,,,,,,,,,,,,,,,,,,,,,,,,,,,,,,,,,,,,,,,,,,,,,,,,A_16,001,2024-11-30_16h42.46.675,untitled,2024.1.5,None,2024-11-30 16h42.59.171705 +0530,
triangle.png,stranger,0,Z,,,,,,,,,23,0,92,3,,,,,,,,,351.37317930000427,,,,,,,,,,,,,,,,,,,,,,,,,,,,,,,,,,,,,,,,,,,,,,,,,,,,,,,,,,,,351.35730540000077,351.37317930000427,351.85693609999726,351.85693609999726,351.85693609999726,351.85693609999726,351.8732902000047,352.1568097999989,352.1568097999989,352.1568097999989,352.9570759999915,352.9410154999932,None,352.94121029999224,352.9570759999915,353.9575659999973,353.94141050000326,,,,,,,,,,,,,,,,,,,,,,,,,,,,,,,,,,,,,,,,,,,,,,,,,,,,,,,,,,,,,,,,,,,,,,,,,,,,,,,A_16,001,2024-11-30_16h42.46.675,untitled,2024.1.5,None,2024-11-30 16h42.59.171705 +0530,
square.png,you,0,Z,,,,,,,,,23,1,93,2,,,,,,,,,353.9575659999973,,,,,,,,,,,,,,,,,,,,,,,,,,,,,,,,,,,,,,,,,,,,,,,,,,,,,,,,,,,,353.9417669999966,353.9575659999973,354.45819160000246,354.45819160000246,354.45819160000246,354.45819160000246,354.45819160000246,354.7580464000057,354.7580464000057,354.7580464000057,,354.77541570000176,m,354.77583899999445,354.7916922000004,355.79201839999587,355.7756197999988,0.3084467000007862,None,,,,,,,,,,,,,,,,,,,,,,,,,,,,,,,,,,,,,,,,,,,,,,,,,,,,,,,,,,,,,,,,,,,,,,,,,,,,,A_16,001,2024-11-30_16h42.46.675,untitled,2024.1.5,None,2024-11-30 16h42.59.171705 +0530,
triangle.png,you,1,M,,,,,,,,,23,2,94,1,,,,,,,,,355.79201839999587,,,,,,,,,,,,,,,,,,,,,,,,,,,,,,,,,,,,,,,,,,,,,,,,,,,,,,,,,,,,355.77600689999235,355.79201839999587,356.27587779999885,356.27587779999885,356.27587779999885,356.27587779999885,356.29230590000225,356.57584950000455,356.57584950000455,356.57584950000455,,356.5765850000025,m,356.5770077000052,356.59263129999454,357.5929572000023,357.5765274000005,0.2903682000032859,None,,,,,,,,,,,,,,,,,,,,,,,,,,,,,,,,,,,,,,,,,,,,,,,,,,,,,,,,,,,,,,,,,,,,,,,,,,,,,A_16,001,2024-11-30_16h42.46.675,untitled,2024.1.5,None,2024-11-30 16h42.59.171705 +0530,
square.png,stranger,1,M,,,,,,,,,23,3,95,0,,,,,,,,,357.5929572000023,,,,,,,,,,,,,,,,,,,,,,,,,,,,,,,,,,,,,,,,,,,,,,,,,,,,,,,,,,,,357.57687859999714,357.5929572000023,358.07661790000566,358.07661790000566,358.07661790000566,358.07661790000566,358.0931806000008,358.3766876000009,358.3766876000009,358.3766876000009,,358.44414969999343,z,358.4445725999976,358.4601715000026,359.4605232000031,359.4443801000016,0.35417690000031143,None,,,,,,,,,,,,,,,,,,,,,,,,,,,,,,,,,,,,,,,,,,,,,,,,,,,,,,,,,,,,,,,,,,,,,,,,,,,,,A_16,001,2024-11-30_16h42.46.675,untitled,2024.1.5,None,2024-11-30 16h42.59.171705 +0530,
triangle.png,stranger,0,Z,,,,,,,,,24,0,96,3,,,,,,,,,359.4605232000031,,,,,,,,,,,,,,,,,,,,,,,,,,,,,,,,,,,,,,,,,,,,,,,,,,,,,,,,,,,,359.4447394000017,359.4605232000031,359.9441896999924,359.9441896999924,359.9441896999924,359.9441896999924,359.96092209999915,,,,,360.06177529999695,m,360.0622039000009,360.0775285999989,361.0781627999968,361.06198060000315,0.1145185999921523,None,,,,,,,,,,,,,,,,,,,,,,,,,,,,,,,,,,,,,,,,,,,,,,,,,,,,,,,,,,,,,,,,,,,,,,,,,,,,,A_16,001,2024-11-30_16h42.46.675,untitled,2024.1.5,None,2024-11-30 16h42.59.171705 +0530,
triangle.png,you,1,M,,,,,,,,,24,1,97,1,,,,,,,,,361.0781627999968,,,,,,,,,,,,,,,,,,,,,,,,,,,,,,,,,,,,,,,,,,,,,,,,,,,,,,,,,,,,361.0623234999948,361.0781627999968,361.5617327999935,361.5617327999935,361.5617327999935,361.5617327999935,361.57874620000075,361.861822699997,361.861822699997,361.861822699997,362.66224109999894,362.64606299999286,None,362.64626559999306,362.66224109999894,363.66284489999816,363.6465828999935,,,,,,,,,,,,,,,,,,,,,,,,,,,,,,,,,,,,,,,,,,,,,,,,,,,,,,,,,,,,,,,,,,,,,,,,,,,,,,,A_16,001,2024-11-30_16h42.46.675,untitled,2024.1.5,None,2024-11-30 16h42.59.171705 +0530,
square.png,you,0,Z,,,,,,,,,24,2,98,2,,,,,,,,,363.66284489999816,,,,,,,,,,,,,,,,,,,,,,,,,,,,,,,,,,,,,,,,,,,,,,,,,,,,,,,,,,,,363.64692889999424,363.66284489999816,364.1632144000032,364.1632144000032,364.1632144000032,364.1632144000032,364.1632144000032,364.46326439999393,364.46326439999393,364.46326439999393,,364.4473028999928,m,364.4477273999946,364.46326439999393,365.46361700000125,365.44735810000566,0.2781016999942949,None,,,,,,,,,,,,,,,,,,,,,,,,,,,,,,,,,,,,,,,,,,,,,,,,,,,,,,,,,,,,,,,,,,,,,,,,,,,,,A_16,001,2024-11-30_16h42.46.675,untitled,2024.1.5,None,2024-11-30 16h42.59.171705 +0530,
square.png,stranger,1,M,,,,,,,,,24,3,99,0,,,,,,,,,365.46361700000125,,,,,,,,,,,,,,,,,,,,,,,,,,,,,,,,,,,,,,,,,,,,,,,,,,,,,,,,,,,,365.4477027999965,365.46361700000125,365.9475766999967,365.9475766999967,365.9475766999967,365.9475766999967,365.96412219999183,366.2473089999985,366.2473089999985,366.2473089999985,,366.2648702000006,m,366.26528989999497,366.2808202000015,367.28108830000565,367.2650246999983,0.30341690000204835,None,,,,,,,,,,,,,,,,,,,,,,,,,,,,,,,,,,,,,,,,,,,,,,,,,,,,,,,,,,,,,,,,,,,,,,,,,,,,,A_16,001,2024-11-30_16h42.46.675,untitled,2024.1.5,None,2024-11-30 16h42.59.171705 +0530,
square.png,stranger,1,M,,,,,,,,,25,0,100,0,,,,,,,,,367.28108830000565,,,,,,,,,,,,,,,,,,,,,,,,,,,,,,,,,,,,,,,,,,,,,,,,,,,,,,,,,,,,367.26537239999743,367.28108830000565,367.76488259999314,367.76488259999314,367.76488259999314,367.76488259999314,367.7814550000039,368.0648841999937,368.0648841999937,368.0648841999937,,368.1989232000051,m,368.19935379999515,368.2149722000031,369.2157425000041,369.1992790999939,0.43284110000240617,None,,,,,,,,,,,,,,,,,,,,,,,,,,,,,,,,,,,,,,,,,,,,,,,,,,,,,,,,,,,,,,,,,,,,,,,,,,,,,A_16,001,2024-11-30_16h42.46.675,untitled,2024.1.5,None,2024-11-30 16h42.59.171705 +0530,
triangle.png,stranger,0,Z,,,,,,,,,25,1,101,3,,,,,,,,,369.2157425000041,,,,,,,,,,,,,,,,,,,,,,,,,,,,,,,,,,,,,,,,,,,,,,,,,,,,,,,,,,,,369.19962189999933,369.2157425000041,369.6994391000044,369.6994391000044,369.6994391000044,369.6994391000044,369.7159706999955,369.99938799999654,369.99938799999654,369.99938799999654,,370.1000001999928,m,370.1004541000002,370.1161834999948,371.11668009999266,371.10025390000374,0.394684300001245,None,,,,,,,,,,,,,,,,,,,,,,,,,,,,,,,,,,,,,,,,,,,,,,,,,,,,,,,,,,,,,,,,,,,,,,,,,,,,,A_16,001,2024-11-30_16h42.46.675,untitled,2024.1.5,None,2024-11-30 16h42.59.171705 +0530,
triangle.png,you,1,M,,,,,,,,,25,2,102,1,,,,,,,,,371.11668009999266,,,,,,,,,,,,,,,,,,,,,,,,,,,,,,,,,,,,,,,,,,,,,,,,,,,,,,,,,,,,371.1006042999943,371.11668009999266,371.60033359999943,371.60033359999943,371.60033359999943,371.60033359999943,371.61673670000164,371.9002948999987,371.9002948999987,371.9002948999987,,371.9843192999979,m,371.9847463000042,372.0005400999944,373.00078279999434,372.9843632999982,0.3744470999954501,None,,,,,,,,,,,,,,,,,,,,,,,,,,,,,,,,,,,,,,,,,,,,,,,,,,,,,,,,,,,,,,,,,,,,,,,,,,,,,A_16,001,2024-11-30_16h42.46.675,untitled,2024.1.5,None,2024-11-30 16h42.59.171705 +0530,
square.png,you,0,Z,,,,,,,,,25,3,103,2,,,,,,,,,373.00078279999434,,,,,,,,,,,,,,,,,,,,,,,,,,,,,,,,,,,,,,,,,,,,,,,,,,,,,,,,,,,,372.98471319999953,373.00078279999434,373.4846317000047,373.4846317000047,373.4846317000047,373.4846317000047,373.5012105999922,373.78464579999854,373.78464579999854,373.78464579999854,374.5849455999996,374.56884219999483,None,374.569032600004,374.5849455999996,375.5855095000006,375.5690518000047,,,,,,,,,,,,,,,,,,,,,,,,,,,,,,,,,,,,,,,,,,,,,,,,,,,,,,,,,,,,,,,,,,,,,,,,,,,,,,,A_16,001,2024-11-30_16h42.46.675,untitled,2024.1.5,None,2024-11-30 16h42.59.171705 +0530,
triangle.png,you,1,M,,,,,,,,,26,0,104,1,,,,,,,,,375.5855095000006,,,,,,,,,,,,,,,,,,,,,,,,,,,,,,,,,,,,,,,,,,,,,,,,,,,,,,,,,,,,375.569399,375.5855095000006,376.08575869999186,376.08575869999186,376.08575869999186,376.08575869999186,376.08575869999186,376.3858901000058,376.3858901000058,376.3858901000058,,376.40317170000344,m,376.40360799999326,376.4190685999929,377.41975020000245,377.4034234999999,0.3052070999983698,None,,,,,,,,,,,,,,,,,,,,,,,,,,,,,,,,,,,,,,,,,,,,,,,,,,,,,,,,,,,,,,,,,,,,,,,,,,,,,A_16,001,2024-11-30_16h42.46.675,untitled,2024.1.5,None,2024-11-30 16h42.59.171705 +0530,
square.png,you,0,Z,,,,,,,,,26,1,105,2,,,,,,,,,377.41975020000245,,,,,,,,,,,,,,,,,,,,,,,,,,,,,,,,,,,,,,,,,,,,,,,,,,,,,,,,,,,,377.4037687999953,377.41975020000245,377.90330760000506,377.90330760000506,377.90330760000506,377.90330760000506,377.9198622999975,378.20331699999224,378.20331699999224,378.20331699999224,379.00399409999955,378.98748139999225,None,378.9876738000021,379.00399409999955,380.0044188000029,379.9879285999923,,,,,,,,,,,,,,,,,,,,,,,,,,,,,,,,,,,,,,,,,,,,,,,,,,,,,,,,,,,,,,,,,,,,,,,,,,,,,,,A_16,001,2024-11-30_16h42.46.675,untitled,2024.1.5,None,2024-11-30 16h42.59.171705 +0530,
square.png,stranger,1,M,,,,,,,,,26,2,106,0,,,,,,,,,380.0044188000029,,,,,,,,,,,,,,,,,,,,,,,,,,,,,,,,,,,,,,,,,,,,,,,,,,,,,,,,,,,,379.9882809999981,380.0044188000029,380.5049250000011,380.5049250000011,380.5049250000011,380.5049250000011,380.5049250000011,380.80474769999273,380.80474769999273,380.80474769999273,,380.9220937999926,m,380.9225168999983,380.9380844999978,381.93860159999167,381.9223243000015,0.409725299992715,None,,,,,,,,,,,,,,,,,,,,,,,,,,,,,,,,,,,,,,,,,,,,,,,,,,,,,,,,,,,,,,,,,,,,,,,,,,,,,A_16,001,2024-11-30_16h42.46.675,untitled,2024.1.5,None,2024-11-30 16h42.59.171705 +0530,
triangle.png,stranger,0,Z,,,,,,,,,26,3,107,3,,,,,,,,,381.93860159999167,,,,,,,,,,,,,,,,,,,,,,,,,,,,,,,,,,,,,,,,,,,,,,,,,,,,,,,,,,,,381.9226775999996,381.93860159999167,382.422596000004,382.422596000004,382.422596000004,382.422596000004,382.43924680000055,382.72230589999526,382.72230589999526,382.72230589999526,,382.889978399995,m,382.8904080999928,382.90579330000037,383.9062275000033,383.89012509999156,0.46442809999280144,None,,,,,,,,,,,,,,,,,,,,,,,,,,,,,,,,,,,,,,,,,,,,,,,,,,,,,,,,,,,,,,,,,,,,,,,,,,,,,A_16,001,2024-11-30_16h42.46.675,untitled,2024.1.5,None,2024-11-30 16h42.59.171705 +0530,
square.png,you,0,Z,,,,,,,,,27,0,108,2,,,,,,,,,383.9062275000033,,,,,,,,,,,,,,,,,,,,,,,,,,,,,,,,,,,,,,,,,,,,,,,,,,,,,,,,,,,,383.8904690999916,383.9062275000033,384.39012640000146,384.39012640000146,384.39012640000146,384.39012640000146,384.4066512999998,384.69013879999693,384.69013879999693,384.69013879999693,385.4905260999949,385.47409170000174,None,385.47428480000235,385.4905260999949,386.490973699998,386.4747451000003,,,,,,,,,,,,,,,,,,,,,,,,,,,,,,,,,,,,,,,,,,,,,,,,,,,,,,,,,,,,,,,,,,,,,,,,,,,,,,,A_16,001,2024-11-30_16h42.46.675,untitled,2024.1.5,None,2024-11-30 16h42.59.171705 +0530,
triangle.png,you,1,M,,,,,,,,,27,1,109,1,,,,,,,,,386.490973699998,,,,,,,,,,,,,,,,,,,,,,,,,,,,,,,,,,,,,,,,,,,,,,,,,,,,,,,,,,,,386.4751031000051,386.490973699998,386.99120190000394,386.99120190000394,386.99120190000394,386.99120190000394,386.99120190000394,387.29140539999935,387.29140539999935,387.29140539999935,388.0917655999947,388.0755580999976,None,388.07574909999676,388.0917655999947,389.09226570000465,389.07619569999224,,,,,,,,,,,,,,,,,,,,,,,,,,,,,,,,,,,,,,,,,,,,,,,,,,,,,,,,,,,,,,,,,,,,,,,,,,,,,,,A_16,001,2024-11-30_16h42.46.675,untitled,2024.1.5,None,2024-11-30 16h42.59.171705 +0530,
square.png,stranger,1,M,,,,,,,,,27,2,110,0,,,,,,,,,389.09226570000465,,,,,,,,,,,,,,,,,,,,,,,,,,,,,,,,,,,,,,,,,,,,,,,,,,,,,,,,,,,,389.07654389999516,389.09226570000465,389.5928866000031,389.5928866000031,389.5928866000031,389.5928866000031,389.5928866000031,389.8927015999943,389.8927015999943,389.8927015999943,,389.8935055000038,m,389.89392119999684,389.9093370000046,390.909868799994,390.89390450000064,0.2934860999957891,None,,,,,,,,,,,,,,,,,,,,,,,,,,,,,,,,,,,,,,,,,,,,,,,,,,,,,,,,,,,,,,,,,,,,,,,,,,,,,A_16,001,2024-11-30_16h42.46.675,untitled,2024.1.5,None,2024-11-30 16h42.59.171705 +0530,
triangle.png,stranger,0,Z,,,,,,,,,27,3,111,3,,,,,,,,,390.909868799994,,,,,,,,,,,,,,,,,,,,,,,,,,,,,,,,,,,,,,,,,,,,,,,,,,,,,,,,,,,,390.8942854999914,390.909868799994,391.3938383000059,391.3938383000059,391.3938383000059,391.3938383000059,391.41043329999957,391.69361489999574,391.69361489999574,391.69361489999574,,391.8778675999929,m,391.8783048000041,391.89375909999944,392.8941915000032,392.8781922000053,0.480669399999897,None,,,,,,,,,,,,,,,,,,,,,,,,,,,,,,,,,,,,,,,,,,,,,,,,,,,,,,,,,,,,,,,,,,,,,,,,,,,,,A_16,001,2024-11-30_16h42.46.675,untitled,2024.1.5,None,2024-11-30 16h42.59.171705 +0530,
triangle.png,stranger,0,Z,,,,,,,,,28,0,112,3,,,,,,,,,392.8941915000032,,,,,,,,,,,,,,,,,,,,,,,,,,,,,,,,,,,,,,,,,,,,,,,,,,,,,,,,,,,,392.87854750000406,392.8941915000032,393.37814659999276,393.37814659999276,393.37814659999276,393.37814659999276,393.39456970000174,393.67810859999736,393.67810859999736,393.67810859999736,,393.71231909999915,m,393.7127538999921,393.7279489999928,394.728663899994,394.7124704000016,0.33234740000625607,None,,,,,,,,,,,,,,,,,,,,,,,,,,,,,,,,,,,,,,,,,,,,,,,,,,,,,,,,,,,,,,,,,,,,,,,,,,,,,A_16,001,2024-11-30_16h42.46.675,untitled,2024.1.5,None,2024-11-30 16h42.59.171705 +0530,
square.png,stranger,1,M,,,,,,,,,28,1,113,0,,,,,,,,,394.728663899994,,,,,,,,,,,,,,,,,,,,,,,,,,,,,,,,,,,,,,,,,,,,,,,,,,,,,,,,,,,,394.7128165000031,394.728663899994,395.2123616000026,395.2123616000026,395.2123616000026,395.2123616000026,395.2290967000008,,,,,395.46326409999165,z,395.46369309999864,395.479010199997,396.4795492999983,396.46325679999427,0.2421508000115864,None,,,,,,,,,,,,,,,,,,,,,,,,,,,,,,,,,,,,,,,,,,,,,,,,,,,,,,,,,,,,,,,,,,,,,,,,,,,,,A_16,001,2024-11-30_16h42.46.675,untitled,2024.1.5,None,2024-11-30 16h42.59.171705 +0530,
square.png,you,0,Z,,,,,,,,,28,2,114,2,,,,,,,,,396.4795492999983,,,,,,,,,,,,,,,,,,,,,,,,,,,,,,,,,,,,,,,,,,,,,,,,,,,,,,,,,,,,396.46360339999956,396.4795492999983,396.9632217000035,396.9632217000035,396.9632217000035,396.9632217000035,396.97958479999215,,,,,397.2306530999922,m,397.2310792999924,397.2464118999924,398.2469001999998,398.230665199997,0.2514274999994086,None,,,,,,,,,,,,,,,,,,,,,,,,,,,,,,,,,,,,,,,,,,,,,,,,,,,,,,,,,,,,,,,,,,,,,,,,,,,,,A_16,001,2024-11-30_16h42.46.675,untitled,2024.1.5,None,2024-11-30 16h42.59.171705 +0530,
triangle.png,you,1,M,,,,,,,,,28,3,115,1,,,,,,,,,398.2469001999998,,,,,,,,,,,,,,,,,,,,,,,,,,,,,,,,,,,,,,,,,,,,,,,,,,,,,,,,,,,,398.23101289999613,398.2469001999998,398.7306031000044,398.7306031000044,398.7306031000044,398.7306031000044,398.7474586000026,399.0308431000012,399.0308431000012,399.0308431000012,399.83109259999765,399.8150012999977,None,399.8151924999984,399.83109259999765,400.8317420999956,400.81542569999874,,,,,,,,,,,,,,,,,,,,,,,,,,,,,,,,,,,,,,,,,,,,,,,,,,,,,,,,,,,,,,,,,,,,,,,,,,,,,,,A_16,001,2024-11-30_16h42.46.675,untitled,2024.1.5,None,2024-11-30 16h42.59.171705 +0530,
triangle.png,stranger,0,Z,,,,,,,,,29,0,116,3,,,,,,,,,400.8317420999956,,,,,,,,,,,,,,,,,,,,,,,,,,,,,,,,,,,,,,,,,,,,,,,,,,,,,,,,,,,,400.8157793999999,400.8317420999956,401.33203029999277,401.33203029999277,401.33203029999277,401.33203029999277,401.33203029999277,401.6319865999976,401.6319865999976,401.6319865999976,,401.682859499997,m,401.68328369999654,401.69891690000077,402.6993966000009,402.6831674999994,0.33858679998957086,None,,,,,,,,,,,,,,,,,,,,,,,,,,,,,,,,,,,,,,,,,,,,,,,,,,,,,,,,,,,,,,,,,,,,,,,,,,,,,A_16,001,2024-11-30_16h42.46.675,untitled,2024.1.5,None,2024-11-30 16h42.59.171705 +0530,
triangle.png,you,1,M,,,,,,,,,29,1,117,1,,,,,,,,,402.6993966000009,,,,,,,,,,,,,,,,,,,,,,,,,,,,,,,,,,,,,,,,,,,,,,,,,,,,,,,,,,,,402.6835085000057,402.6993966000009,403.18310290000227,403.18310290000227,403.18310290000227,403.18310290000227,403.19971289999376,403.4828523000033,403.4828523000033,403.4828523000033,404.2834593000007,404.26730849999876,None,404.26749610000115,404.2834593000007,405.2839313000004,405.2678293999925,,,,,,,,,,,,,,,,,,,,,,,,,,,,,,,,,,,,,,,,,,,,,,,,,,,,,,,,,,,,,,,,,,,,,,,,,,,,,,,A_16,001,2024-11-30_16h42.46.675,untitled,2024.1.5,None,2024-11-30 16h42.59.171705 +0530,
square.png,stranger,1,M,,,,,,,,,29,2,118,0,,,,,,,,,405.2839313000004,,,,,,,,,,,,,,,,,,,,,,,,,,,,,,,,,,,,,,,,,,,,,,,,,,,,,,,,,,,,405.26817379999557,405.2839313000004,405.7844599999953,405.7844599999953,405.7844599999953,405.7844599999953,405.7844599999953,406.0841683000035,406.0841683000035,406.0841683000035,406.88479379999626,406.8682983000035,None,406.8684887999989,406.88479379999626,407.885414999997,407.86889939999674,,,,,,,,,,,,,,,,,,,,,,,,,,,,,,,,,,,,,,,,,,,,,,,,,,,,,,,,,,,,,,,,,,,,,,,,,,,,,,,A_16,001,2024-11-30_16h42.46.675,untitled,2024.1.5,None,2024-11-30 16h42.59.171705 +0530,
square.png,you,0,Z,,,,,,,,,29,3,119,2,,,,,,,,,407.885414999997,,,,,,,,,,,,,,,,,,,,,,,,,,,,,,,,,,,,,,,,,,,,,,,,,,,,,,,,,,,,407.86926150000363,407.885414999997,408.3856852000026,408.3856852000026,408.3856852000026,408.3856852000026,408.3856852000026,408.685685000004,408.685685000004,408.685685000004,409.4860820000031,409.46993170000496,None,409.4701223000011,409.4860820000031,410.48684699999285,410.4704781000037,,,,,,,,,,,,,,,,,,,,,,,,,,,,,,,,,,,,,,,,,,,,,,,,,,,,,,,,,,,,,,,,,,,,,,,,,,,,,,,A_16,001,2024-11-30_16h42.46.675,untitled,2024.1.5,None,2024-11-30 16h42.59.171705 +0530,
triangle.png,stranger,0,Z,,,,,,,,,30,0,120,3,,,,,,,,,410.48684699999285,,,,,,,,,,,,,,,,,,,,,,,,,,,,,,,,,,,,,,,,,,,,,,,,,,,,,,,,,,,,410.47085339999467,410.48684699999285,410.9870164000022,410.9870164000022,410.9870164000022,410.9870164000022,410.9870164000022,411.2868712999916,411.2868712999916,411.2868712999916,412.0874191000039,412.07130229999893,None,412.0715043999953,412.0874191000039,413.08798399999796,413.0715865999955,,,,,,,,,,,,,,,,,,,,,,,,,,,,,,,,,,,,,,,,,,,,,,,,,,,,,,,,,,,,,,,,,,,,,,,,,,,,,,,A_16,001,2024-11-30_16h42.46.675,untitled,2024.1.5,None,2024-11-30 16h42.59.171705 +0530,
square.png,stranger,1,M,,,,,,,,,30,1,121,0,,,,,,,,,413.08798399999796,,,,,,,,,,,,,,,,,,,,,,,,,,,,,,,,,,,,,,,,,,,,,,,,,,,,,,,,,,,,413.0719296000025,413.08798399999796,413.588273699992,413.588273699992,413.588273699992,413.588273699992,413.588273699992,413.888337700002,413.888337700002,413.888337700002,414.68884689999686,414.67254759999923,None,414.67273560000467,414.68884689999686,415.6893726999988,415.6730505000014,,,,,,,,,,,,,,,,,,,,,,,,,,,,,,,,,,,,,,,,,,,,,,,,,,,,,,,,,,,,,,,,,,,,,,,,,,,,,,,A_16,001,2024-11-30_16h42.46.675,untitled,2024.1.5,None,2024-11-30 16h42.59.171705 +0530,
triangle.png,you,1,M,,,,,,,,,30,2,122,1,,,,,,,,,415.6893726999988,,,,,,,,,,,,,,,,,,,,,,,,,,,,,,,,,,,,,,,,,,,,,,,,,,,,,,,,,,,,415.6734029999934,415.6893726999988,416.18977739999536,416.18977739999536,416.18977739999536,416.18977739999536,416.18977739999536,416.48967999999877,416.48967999999877,416.48967999999877,,416.6906949999975,m,416.6911129999935,416.7064351000008,417.70667060000414,417.6907460999937,0.49301769999146927,None,,,,,,,,,,,,,,,,,,,,,,,,,,,,,,,,,,,,,,,,,,,,,,,,,,,,,,,,,,,,,,,,,,,,,,,,,,,,,A_16,001,2024-11-30_16h42.46.675,untitled,2024.1.5,None,2024-11-30 16h42.59.171705 +0530,
square.png,you,0,Z,,,,,,,,,30,3,123,2,,,,,,,,,417.70667060000414,,,,,,,,,,,,,,,,,,,,,,,,,,,,,,,,,,,,,,,,,,,,,,,,,,,,,,,,,,,,417.69109550000576,417.70667060000414,418.19084389999625,418.19084389999625,418.19084389999625,418.19084389999625,418.20723339999677,418.49069760000566,418.49069760000566,418.49069760000566,,418.74133679999795,z,418.7417567999946,418.75761479999346,419.75811399999657,419.7417854999949,0.5385074999940116,None,,,,,,,,,,,,,,,,,,,,,,,,,,,,,,,,,,,,,,,,,,,,,,,,,,,,,,,,,,,,,,,,,,,,,,,,,,,,,A_16,001,2024-11-30_16h42.46.675,untitled,2024.1.5,None,2024-11-30 16h42.59.171705 +0530,
square.png,stranger,1,M,,,,,,,,,31,0,124,0,,,,,,,,,419.75811399999657,,,,,,,,,,,,,,,,,,,,,,,,,,,,,,,,,,,,,,,,,,,,,,,,,,,,,,,,,,,,419.74213129999407,419.75811399999657,420.24167220000527,420.24167220000527,420.24167220000527,420.24167220000527,420.25818429999345,420.5418873000017,420.5418873000017,420.5418873000017,,420.5426567999966,m,420.54308129999845,420.5584841999953,421.55910679999215,421.5427853000001,0.29685990000143647,None,,,,,,,,,,,,,,,,,,,,,,,,,,,,,,,,,,,,,,,,,,,,,,,,,,,,,,,,,,,,,,,,,,,,,,,,,,,,,A_16,001,2024-11-30_16h42.46.675,untitled,2024.1.5,None,2024-11-30 16h42.59.171705 +0530,
square.png,you,0,Z,,,,,,,,,31,1,125,2,,,,,,,,,421.55910679999215,,,,,,,,,,,,,,,,,,,,,,,,,,,,,,,,,,,,,,,,,,,,,,,,,,,,,,,,,,,,421.5431313000008,421.55910679999215,422.04259640000237,422.04259640000237,422.04259640000237,422.04259640000237,422.05912669999816,422.34282380000514,422.34282380000514,422.34282380000514,,422.9937649000058,z,422.99420739999914,423.00961720000487,424.01012209999317,423.99386550000054,0.9356140000018058,None,,,,,,,,,,,,,,,,,,,,,,,,,,,,,,,,,,,,,,,,,,,,,,,,,,,,,,,,,,,,,,,,,,,,,,,,,,,,,A_16,001,2024-11-30_16h42.46.675,untitled,2024.1.5,None,2024-11-30 16h42.59.171705 +0530,
triangle.png,stranger,0,Z,,,,,,,,,31,2,126,3,,,,,,,,,424.01012209999317,,,,,,,,,,,,,,,,,,,,,,,,,,,,,,,,,,,,,,,,,,,,,,,,,,,,,,,,,,,,423.9942129999981,424.01012209999317,424.4938828000013,424.4938828000013,424.4938828000013,424.4938828000013,424.51046390000556,424.7938495999988,424.7938495999988,424.7938495999988,,424.82798410000396,m,424.8284150999971,424.84389380000357,425.8445599999977,425.8285021000047,0.3245430000097258,None,,,,,,,,,,,,,,,,,,,,,,,,,,,,,,,,,,,,,,,,,,,,,,,,,,,,,,,,,,,,,,,,,,,,,,,,,,,,,A_16,001,2024-11-30_16h42.46.675,untitled,2024.1.5,None,2024-11-30 16h42.59.171705 +0530,
triangle.png,you,1,M,,,,,,,,,31,3,127,1,,,,,,,,,425.8445599999977,,,,,,,,,,,,,,,,,,,,,,,,,,,,,,,,,,,,,,,,,,,,,,,,,,,,,,,,,,,,425.8288515000022,425.8445599999977,426.3280846999987,426.3280846999987,426.3280846999987,426.3280846999987,426.3448793999996,426.6282868999988,426.6282868999988,426.6282868999988,,426.7624603000004,m,426.7628786999994,426.77839039999526,427.77893299999414,427.762447000001,0.42172389999905135,None,,,,,,,,,,,,,,,,,,,,,,,,,,,,,,,,,,,,,,,,,,,,,,,,,,,,,,,,,,,,,,,,,,,,,,,,,,,,,A_16,001,2024-11-30_16h42.46.675,untitled,2024.1.5,None,2024-11-30 16h42.59.171705 +0530,
square.png,stranger,1,M,,,,,,,,,32,0,128,0,,,,,,,,,427.77893299999414,,,,,,,,,,,,,,,,,,,,,,,,,,,,,,,,,,,,,,,,,,,,,,,,,,,,,,,,,,,,427.7627984999999,427.77893299999414,428.2624808999972,428.2624808999972,428.2624808999972,428.2624808999972,428.2792441000056,428.5625016999984,428.5625016999984,428.5625016999984,,428.61325169999327,z,428.6136731000006,428.6291182999994,429.62968420000107,429.6136336000054,0.3442174999945564,None,,,,,,,,,,,,,,,,,,,,,,,,,,,,,,,,,,,,,,,,,,,,,,,,,,,,,,,,,,,,,,,,,,,,,,,,,,,,,A_16,001,2024-11-30_16h42.46.675,untitled,2024.1.5,None,2024-11-30 16h42.59.171705 +0530,
square.png,you,0,Z,,,,,,,,,32,1,129,2,,,,,,,,,429.62968420000107,,,,,,,,,,,,,,,,,,,,,,,,,,,,,,,,,,,,,,,,,,,,,,,,,,,,,,,,,,,,429.61397849999776,429.62968420000107,430.1134782000008,430.1134782000008,430.1134782000008,430.1134782000008,430.13005999999586,430.413489700004,430.413489700004,430.413489700004,431.2138256000035,431.19767259999935,None,431.197860100001,431.2138256000035,432.21423949999735,432.19813879999856,,,,,,,,,,,,,,,,,,,,,,,,,,,,,,,,,,,,,,,,,,,,,,,,,,,,,,,,,,,,,,,,,,,,,,,,,,,,,,,A_16,001,2024-11-30_16h42.46.675,untitled,2024.1.5,None,2024-11-30 16h42.59.171705 +0530,
triangle.png,you,1,M,,,,,,,,,32,2,130,1,,,,,,,,,432.21423949999735,,,,,,,,,,,,,,,,,,,,,,,,,,,,,,,,,,,,,,,,,,,,,,,,,,,,,,,,,,,,432.19849100000283,432.21423949999735,432.71465409999655,432.71465409999655,432.71465409999655,432.71465409999655,432.71465409999655,433.01460660000157,433.01460660000157,433.01460660000157,,433.14891380000336,m,433.1493347999931,433.1647627999919,434.1655238999956,434.14907179999864,0.4226340000022901,None,,,,,,,,,,,,,,,,,,,,,,,,,,,,,,,,,,,,,,,,,,,,,,,,,,,,,,,,,,,,,,,,,,,,,,,,,,,,,A_16,001,2024-11-30_16h42.46.675,untitled,2024.1.5,None,2024-11-30 16h42.59.171705 +0530,
triangle.png,stranger,0,Z,,,,,,,,,32,3,131,3,,,,,,,,,434.1655238999956,,,,,,,,,,,,,,,,,,,,,,,,,,,,,,,,,,,,,,,,,,,,,,,,,,,,,,,,,,,,434.14941729999555,434.1655238999956,434.6490444999945,434.6490444999945,434.6490444999945,434.6490444999945,434.66594829999667,434.9492731999926,434.9492731999926,434.9492731999926,,435.06662339999457,m,435.0670453000057,435.08263380000426,436.0830610999983,436.06665530000464,0.4094638000096893,None,,,,,,,,,,,,,,,,,,,,,,,,,,,,,,,,,,,,,,,,,,,,,,,,,,,,,,,,,,,,,,,,,,,,,,,,,,,,,A_16,001,2024-11-30_16h42.46.675,untitled,2024.1.5,None,2024-11-30 16h42.59.171705 +0530,
square.png,you,0,Z,,,,,,,,,33,0,132,2,,,,,,,,,436.0830610999983,,,,,,,,,,,,,,,,,,,,,,,,,,,,,,,,,,,,,,,,,,,,,,,,,,,,,,,,,,,,436.06700139999157,436.0830610999983,436.56665670000075,436.56665670000075,436.56665670000075,436.56665670000075,436.58346929999243,436.8670961000025,436.8670961000025,436.8670961000025,,436.86783390000346,m,436.86825460000546,436.883717299992,437.88402280000446,437.86781429999974,0.29054529999848455,None,,,,,,,,,,,,,,,,,,,,,,,,,,,,,,,,,,,,,,,,,,,,,,,,,,,,,,,,,,,,,,,,,,,,,,,,,,,,,A_16,001,2024-11-30_16h42.46.675,untitled,2024.1.5,None,2024-11-30 16h42.59.171705 +0530,
triangle.png,stranger,0,Z,,,,,,,,,33,1,133,3,,,,,,,,,437.88402280000446,,,,,,,,,,,,,,,,,,,,,,,,,,,,,,,,,,,,,,,,,,,,,,,,,,,,,,,,,,,,437.86816250000265,437.88402280000446,438.36782319999475,438.36782319999475,438.36782319999475,438.36782319999475,438.3842441000015,438.6674917000055,438.6674917000055,438.6674917000055,,438.6851224999991,z,438.6855537999945,438.70107429999916,439.70163409999805,439.68541079999704,0.30238910000480246,None,,,,,,,,,,,,,,,,,,,,,,,,,,,,,,,,,,,,,,,,,,,,,,,,,,,,,,,,,,,,,,,,,,,,,,,,,,,,,A_16,001,2024-11-30_16h42.46.675,untitled,2024.1.5,None,2024-11-30 16h42.59.171705 +0530,
triangle.png,you,1,M,,,,,,,,,33,2,134,1,,,,,,,,,439.70163409999805,,,,,,,,,,,,,,,,,,,,,,,,,,,,,,,,,,,,,,,,,,,,,,,,,,,,,,,,,,,,439.68575370000326,439.70163409999805,440.18528170000354,440.18528170000354,440.18528170000354,440.18528170000354,440.20196370000485,440.4852486000018,440.4852486000018,440.4852486000018,,440.6527860999922,m,440.65320780000184,440.66874120000284,441.6690583000018,441.6529392999946,0.4521377999917604,None,,,,,,,,,,,,,,,,,,,,,,,,,,,,,,,,,,,,,,,,,,,,,,,,,,,,,,,,,,,,,,,,,,,,,,,,,,,,,A_16,001,2024-11-30_16h42.46.675,untitled,2024.1.5,None,2024-11-30 16h42.59.171705 +0530,
square.png,stranger,1,M,,,,,,,,,33,3,135,0,,,,,,,,,441.6690583000018,,,,,,,,,,,,,,,,,,,,,,,,,,,,,,,,,,,,,,,,,,,,,,,,,,,,,,,,,,,,441.65329439999186,441.6690583000018,442.1530588000023,442.1530588000023,442.1530588000023,442.1530588000023,442.16953959999955,,,,,442.42035359999863,m,442.42077870000503,442.4364246000041,443.4368579000002,443.42061600000306,0.2569394000020111,None,,,,,,,,,,,,,,,,,,,,,,,,,,,,,,,,,,,,,,,,,,,,,,,,,,,,,,,,,,,,,,,,,,,,,,,,,,,,,A_16,001,2024-11-30_16h42.46.675,untitled,2024.1.5,None,2024-11-30 16h42.59.171705 +0530,
square.png,stranger,1,M,,,,,,,,,34,0,136,0,,,,,,,,,443.4368579000002,,,,,,,,,,,,,,,,,,,,,,,,,,,,,,,,,,,,,,,,,,,,,,,,,,,,,,,,,,,,443.4209637000022,443.4368579000002,443.9204490999982,443.9204490999982,443.9204490999982,443.9204490999982,443.93725629999244,444.220350100004,444.220350100004,444.220350100004,,444.3044291999977,z,444.30486020000535,444.3205980000057,445.32097610000346,445.30485770000087,0.3699343000043882,None,,,,,,,,,,,,,,,,,,,,,,,,,,,,,,,,,,,,,,,,,,,,,,,,,,,,,,,,,,,,,,,,,,,,,,,,,,,,,A_16,001,2024-11-30_16h42.46.675,untitled,2024.1.5,None,2024-11-30 16h42.59.171705 +0530,
square.png,you,0,Z,,,,,,,,,34,1,137,2,,,,,,,,,445.32097610000346,,,,,,,,,,,,,,,,,,,,,,,,,,,,,,,,,,,,,,,,,,,,,,,,,,,,,,,,,,,,445.305211999992,445.32097610000346,445.8049175000051,445.8049175000051,445.8049175000051,445.8049175000051,445.82144040000276,,,,,445.95542019999993,m,445.9558539999998,445.971515199999,446.9720808999991,446.9557293999969,0.14148969999223482,None,,,,,,,,,,,,,,,,,,,,,,,,,,,,,,,,,,,,,,,,,,,,,,,,,,,,,,,,,,,,,,,,,,,,,,,,,,,,,A_16,001,2024-11-30_16h42.46.675,untitled,2024.1.5,None,2024-11-30 16h42.59.171705 +0530,
triangle.png,you,1,M,,,,,,,,,34,2,138,1,,,,,,,,,446.9720808999991,,,,,,,,,,,,,,,,,,,,,,,,,,,,,,,,,,,,,,,,,,,,,,,,,,,,,,,,,,,,446.95609310000145,446.9720808999991,447.45565269999497,447.45565269999497,447.45565269999497,447.45565269999497,447.4723085000005,447.75567189999856,447.75567189999856,447.75567189999856,,447.8897861000005,m,447.89021630000207,447.90580670000054,448.90613210000447,448.8899805999972,0.42225269999471493,None,,,,,,,,,,,,,,,,,,,,,,,,,,,,,,,,,,,,,,,,,,,,,,,,,,,,,,,,,,,,,,,,,,,,,,,,,,,,,A_16,001,2024-11-30_16h42.46.675,untitled,2024.1.5,None,2024-11-30 16h42.59.171705 +0530,
triangle.png,stranger,0,Z,,,,,,,,,34,3,139,3,,,,,,,,,448.90613210000447,,,,,,,,,,,,,,,,,,,,,,,,,,,,,,,,,,,,,,,,,,,,,,,,,,,,,,,,,,,,448.8903286999994,448.90613210000447,449.3898698999983,449.3898698999983,449.3898698999983,449.3898698999983,449.4064453000028,449.6900717999961,449.6900717999961,449.6900717999961,450.4903323000035,450.474283699994,None,450.47447669999383,450.4903323000035,451.49115449999226,451.47459149999486,,,,,,,,,,,,,,,,,,,,,,,,,,,,,,,,,,,,,,,,,,,,,,,,,,,,,,,,,,,,,,,,,,,,,,,,,,,,,,,A_16,001,2024-11-30_16h42.46.675,untitled,2024.1.5,None,2024-11-30 16h42.59.171705 +0530,
