stimulus,label,is_match,shouldpress,stimulus_2,label_2,is_match_2,shouldpress_2,p_trials.thisRepN,p_trials.thisTrialN,p_trials.thisN,p_trials.thisIndex,trials.thisRepN,trials.thisTrialN,trials.thisN,trials.thisIndex,p_trials_2.thisRepN,p_trials_2.thisTrialN,p_trials_2.thisN,p_trials_2.thisIndex,trials_2.thisRepN,trials_2.thisTrialN,trials_2.thisN,trials_2.thisIndex,thisRow.t,notes,Intruduction.started,text_3.started,key_resp_2.started,Intruduction.stopped,key_resp_2.keys,key_resp_2.rt,key_resp_2.duration,self_other_instructions.started,text_4.started,key_resp_3.started,self_other_instructions.stopped,key_resp_3.keys,key_resp_3.rt,key_resp_3.duration,self_other_info.started,square_image.started,triangle_image.started,self_label.started,other_label.started,key_resp_4.started,text_5.started,self_other_info.stopped,key_resp_4.keys,key_resp_4.rt,key_resp_4.duration,self_other_starting_2.started,text_6.started,key_resp_5.started,self_other_starting_2.stopped,key_resp_5.keys,key_resp_5.rt,key_resp_5.duration,practice1.started,p_fication.started,p_fixation_3.started,p_text.started,key_resp_p.started,p_image.started,p_fication.stopped,p_fixation_3.stopped,p_text.stopped,p_image.stopped,practice1.stopped,key_resp_p.keys,key_resp_p.rt,key_resp_p.duration,p_feedback.started,text_15.started,text_15.stopped,p_feedback.stopped,key_resp_p.stopped,start2.started,start_2.started,key_resp_11.started,start2.stopped,key_resp_11.keys,key_resp_11.rt,key_resp_11.duration,trial.started,fixation.started,fixation_3.started,text.started,key_resp.started,image.started,fixation.stopped,fixation_3.stopped,text.stopped,image.stopped,key_resp.stopped,trial.stopped,key_resp.keys,feedback.started,text_2.started,text_2.stopped,feedback.stopped,key_resp.rt,key_resp.duration,break_3.started,text_13.started,text_14.started,key_resp_10.started,text_13.stopped,break_3.stopped,key_resp_10.keys,key_resp_10.rt,key_resp_10.duration,self_other_instructions_2.started,text_10.started,key_resp_7.started,self_other_instructions_2.stopped,key_resp_7.keys,key_resp_7.rt,key_resp_7.duration,self_other_intro_2.started,circle_image.started,diamond_image.started,Disgusting_self_lable.started,Desirable_self_lable.started,key_resp_8.started,text_11.started,self_other_intro_2.stopped,key_resp_8.keys,key_resp_8.rt,key_resp_8.duration,self_other_starting_3.started,text_12.started,key_resp_9.started,self_other_starting_3.stopped,key_resp_9.keys,key_resp_9.rt,key_resp_9.duration,practice2.started,p_fixation_2.started,p_fixation_2.stopped,p_fixation_4.started,p_text_8.started,key_resp_6_p.started,p_image_2.started,p_fixation_4.stopped,p_text_8.stopped,p_image_2.stopped,key_resp_6_p.stopped,practice2.stopped,key_resp_6_p.keys,feedback_2_p.started,text_16.started,feedback_2_p.stopped,text_16.stopped,key_resp_6_p.rt,key_resp_6_p.duration,trial_2.started,fixation_2.started,fixation_4.started,text_8.started,key_resp_6.started,image_2.started,fixation_2.stopped,fixation_4.stopped,text_8.stopped,image_2.stopped,trial_2.stopped,key_resp_6.keys,key_resp_6.rt,key_resp_6.duration,feedback_2.started,text_9.started,text_9.stopped,feedback_2.stopped,key_resp_6.stopped,Thank_you.started,text_7.started,Thank_you.stopped,participant,session,date,expName,psychopyVersion,frameRate,expStart
,,,,,,,,,,,,,,,,,,,,,,,,,,0.0026742,0.0063305,0.0063305,2.1678205,space,2.1527421,None,,,,,,,,,,,,,,,,,,,,,,,,,,,,,,,,,,,,,,,,,,,,,,,,,,,,,,,,,,,,,,,,,,,,,,,,,,,,,,,,,,,,,,,,,,,,,,,,,,,,,,,,,,,,,,,,,,,,,,,,,,,,,,,,,,,,,,,,,,,,,,,,,,A_1_,1,2024-11-27_10h02.43.291,untitled,2024.1.5,None,2024-11-27 10h02.59.235206 +0530
,,,,,,,,,,,,,,,,,,,,,,,,,,,,,,,,,2.1678442,2.1813956,2.1813956,4.0832886,space,1.8892157,None,,,,,,,,,,,,,,,,,,,,,,,,,,,,,,,,,,,,,,,,,,,,,,,,,,,,,,,,,,,,,,,,,,,,,,,,,,,,,,,,,,,,,,,,,,,,,,,,,,,,,,,,,,,,,,,,,,,,,,,,,,,,,,,,,,,,,,,,,,,A_1_,1,2024-11-27_10h02.43.291,untitled,2024.1.5,None,2024-11-27 10h02.59.235206 +0530
,,,,,,,,,,,,,,,,,,,,,,,,,,,,,,,,,,,,,,,,4.0833128,4.1164644,4.1164644,4.1164644,4.1164644,4.1164644,4.1164644,6.8505398,space,2.7216434,None,,,,,,,,,,,,,,,,,,,,,,,,,,,,,,,,,,,,,,,,,,,,,,,,,,,,,,,,,,,,,,,,,,,,,,,,,,,,,,,,,,,,,,,,,,,,,,,,,,,,,,,,,,,,,,,,,,,,,,,,,,,,,,,,A_1_,1,2024-11-27_10h02.43.291,untitled,2024.1.5,None,2024-11-27 10h02.59.235206 +0530
,,,,,,,,,,,,,,,,,,,,,,,,,,,,,,,,,,,,,,,,,,,,,,,,,,,6.8505643,6.8665218,6.8665218,9.035073,space,2.1601634,None,,,,,,,,,,,,,,,,,,,,,,,,,,,,,,,,,,,,,,,,,,,,,,,,,,,,,,,,,,,,,,,,,,,,,,,,,,,,,,,,,,,,,,,,,,,,,,,,,,,,,,,,,,,,,,,,,,,,,,,,,A_1_,1,2024-11-27_10h02.43.291,untitled,2024.1.5,None,2024-11-27 10h02.59.235206 +0530
triangle.png,you,1,M,,,,,0,0,0,1,,,,,,,,,,,,,9.0504987,,,,,,,,,,,,,,,,,,,,,,,,,,,,,,,,,,9.0407528,9.0504987,9.5341728,9.5341728,9.5341728,9.5341728,9.5509536,9.834197,9.834197,9.834197,10.3020509,z,0.7648266,None,10.3024212,10.3179407,11.318217,11.3021216,,,,,,,,,,,,,,,,,,,,,,,,,,,,,,,,,,,,,,,,,,,,,,,,,,,,,,,,,,,,,,,,,,,,,,,,,,,,,,,,,,,,,,,,,,,,,,,,,,,,,,,A_1_,1,2024-11-27_10h02.43.291,untitled,2024.1.5,None,2024-11-27 10h02.59.235206 +0530
square.png,stranger,1,M,,,,,0,1,1,0,,,,,,,,,,,,,11.318217,,,,,,,,,,,,,,,,,,,,,,,,,,,,,,,,,,11.3023479,11.318217,11.8022506,11.8022506,11.8022506,11.8022506,11.8185546,12.1022137,12.1022137,12.1022137,12.3030433,z,0.4924672,None,12.3032807,12.3187965,13.3194494,13.3029808,,,,,,,,,,,,,,,,,,,,,,,,,,,,,,,,,,,,,,,,,,,,,,,,,,,,,,,,,,,,,,,,,,,,,,,,,,,,,,,,,,,,,,,,,,,,,,,,,,,,,,,A_1_,1,2024-11-27_10h02.43.291,untitled,2024.1.5,None,2024-11-27 10h02.59.235206 +0530
triangle.png,stranger,0,Z,,,,,0,2,2,3,,,,,,,,,,,,,13.3194494,,,,,,,,,,,,,,,,,,,,,,,,,,,,,,,,,,13.3032075,13.3194494,13.8031745,13.8031745,13.8031745,13.8031745,13.8197615,14.1030114,14.1030114,14.1030114,14.704362,m,0.8954895,None,14.7046004,14.720077,15.7207048,15.7042779,,,,,,,,,,,,,,,,,,,,,,,,,,,,,,,,,,,,,,,,,,,,,,,,,,,,,,,,,,,,,,,,,,,,,,,,,,,,,,,,,,,,,,,,,,,,,,,,,,,,,,,A_1_,1,2024-11-27_10h02.43.291,untitled,2024.1.5,None,2024-11-27 10h02.59.235206 +0530
square.png,you,0,Z,,,,,0,3,3,2,,,,,,,,,,,,,15.7207048,,,,,,,,,,,,,,,,,,,,,,,,,,,,,,,,,,15.7045001,15.7207048,16.2042755,16.2042755,16.2042755,16.2042755,16.2210637,16.5042275,16.5042275,16.5042275,17.2388328,z,1.0299581,None,17.2390709,17.2548233,18.255109,18.2391612,,,,,,,,,,,,,,,,,,,,,,,,,,,,,,,,,,,,,,,,,,,,,,,,,,,,,,,,,,,,,,,,,,,,,,,,,,,,,,,,,,,,,,,,,,,,,,,,,,,,,,,A_1_,1,2024-11-27_10h02.43.291,untitled,2024.1.5,None,2024-11-27 10h02.59.235206 +0530
square.png,you,0,Z,,,,,1,0,4,2,,,,,,,,,,,,,18.255109,,,,,,,,,,,,,,,,,,,,,,,,,,,,,,,,,,18.2393921,18.255109,18.738858,18.738858,18.738858,18.738858,18.7555493,19.0388711,19.0388711,19.0388711,19.2232504,m,0.4679453,None,19.2234949,19.2390708,20.239635,20.2234038,,,,,,,,,,,,,,,,,,,,,,,,,,,,,,,,,,,,,,,,,,,,,,,,,,,,,,,,,,,,,,,,,,,,,,,,,,,,,,,,,,,,,,,,,,,,,,,,,,,,,,,A_1_,1,2024-11-27_10h02.43.291,untitled,2024.1.5,None,2024-11-27 10h02.59.235206 +0530
square.png,stranger,1,M,,,,,1,1,5,0,,,,,,,,,,,,,20.239635,,,,,,,,,,,,,,,,,,,,,,,,,,,,,,,,,,20.2236317,20.239635,20.7232063,20.7232063,20.7232063,20.7232063,20.740039,21.0234102,21.0234102,21.0234102,21.8075313,None,,,21.8076568,21.823588,22.8243436,22.8081784,21.823588,,,,,,,,,,,,,,,,,,,,,,,,,,,,,,,,,,,,,,,,,,,,,,,,,,,,,,,,,,,,,,,,,,,,,,,,,,,,,,,,,,,,,,,,,,,,,,,,,,,,,,A_1_,1,2024-11-27_10h02.43.291,untitled,2024.1.5,None,2024-11-27 10h02.59.235206 +0530
triangle.png,you,1,M,,,,,1,2,6,1,,,,,,,,,,,,,22.8243436,,,,,,,,,,,,,,,,,,,,,,,,,,,,,,,,,,22.8084048,22.8243436,23.3244799,23.3244799,23.3244799,23.3244799,23.3244799,,,,23.5920754,z,0.2584291,None,23.5923186,23.6079518,24.6084196,24.5923169,,,,,,,,,,,,,,,,,,,,,,,,,,,,,,,,,,,,,,,,,,,,,,,,,,,,,,,,,,,,,,,,,,,,,,,,,,,,,,,,,,,,,,,,,,,,,,,,,,,,,,,A_1_,1,2024-11-27_10h02.43.291,untitled,2024.1.5,None,2024-11-27 10h02.59.235206 +0530
triangle.png,stranger,0,Z,,,,,1,3,7,3,,,,,,,,,,,,,24.6084196,,,,,,,,,,,,,,,,,,,,,,,,,,,,,,,,,,24.5925417,24.6084196,25.0923756,25.0923756,25.0923756,25.0923756,25.1091629,25.3922991,25.3922991,25.3922991,25.4096297,m,0.3138163,None,25.409868,25.425746,26.426064,26.4099849,,,,,,,,,,,,,,,,,,,,,,,,,,,,,,,,,,,,,,,,,,,,,,,,,,,,,,,,,,,,,,,,,,,,,,,,,,,,,,,,,,,,,,,,,,,,,,,,,,,,,,,A_1_,1,2024-11-27_10h02.43.291,untitled,2024.1.5,None,2024-11-27 10h02.59.235206 +0530
triangle.png,stranger,0,Z,,,,,2,0,8,3,,,,,,,,,,,,,26.426064,,,,,,,,,,,,,,,,,,,,,,,,,,,,,,,,,,26.4102274,26.426064,26.9098183,26.9098183,26.9098183,26.9098183,26.9265793,27.2098729,27.2098729,27.2098729,27.994028,None,,,27.9941524,28.0103886,29.0107198,28.9944982,28.0103886,,,,,,,,,,,,,,,,,,,,,,,,,,,,,,,,,,,,,,,,,,,,,,,,,,,,,,,,,,,,,,,,,,,,,,,,,,,,,,,,,,,,,,,,,,,,,,,,,,,,,,A_1_,1,2024-11-27_10h02.43.291,untitled,2024.1.5,None,2024-11-27 10h02.59.235206 +0530
triangle.png,you,1,M,,,,,2,1,9,1,,,,,,,,,,,,,29.0107198,,,,,,,,,,,,,,,,,,,,,,,,,,,,,,,,,,28.9947282,29.0107198,29.5111106,29.5111106,29.5111106,29.5111106,29.5111106,29.8112243,29.8112243,29.8112243,30.0953205,z,0.5828149,None,30.095558,30.1114807,31.1120014,31.0956047,,,,,,,,,,,,,,,,,,,,,,,,,,,,,,,,,,,,,,,,,,,,,,,,,,,,,,,,,,,,,,,,,,,,,,,,,,,,,,,,,,,,,,,,,,,,,,,,,,,,,,,A_1_,1,2024-11-27_10h02.43.291,untitled,2024.1.5,None,2024-11-27 10h02.59.235206 +0530
square.png,you,0,Z,,,,,2,2,10,2,,,,,,,,,,,,,31.1120014,,,,,,,,,,,,,,,,,,,,,,,,,,,,,,,,,,31.09583,31.1120014,31.5955434,31.5955434,31.5955434,31.5955434,31.6123274,31.8955471,31.8955471,31.8955471,32.679899,None,,,32.6800272,32.6959513,33.6965511,33.6801576,32.6959513,,,,,,,,,,,,,,,,,,,,,,,,,,,,,,,,,,,,,,,,,,,,,,,,,,,,,,,,,,,,,,,,,,,,,,,,,,,,,,,,,,,,,,,,,,,,,,,,,,,,,,A_1_,1,2024-11-27_10h02.43.291,untitled,2024.1.5,None,2024-11-27 10h02.59.235206 +0530
square.png,stranger,1,M,,,,,2,3,11,0,,,,,,,,,,,,,33.6965511,,,,,,,,,,,,,,,,,,,,,,,,,,,,,,,,,,33.6803816,33.6965511,34.1968207,34.1968207,34.1968207,34.1968207,34.1968207,34.4968815,34.4968815,34.4968815,35.2809297,None,,,35.2810561,35.2974223,36.2982271,36.2816278,35.2974223,,,,,,,,,,,,,,,,,,,,,,,,,,,,,,,,,,,,,,,,,,,,,,,,,,,,,,,,,,,,,,,,,,,,,,,,,,,,,,,,,,,,,,,,,,,,,,,,,,,,,,A_1_,1,2024-11-27_10h02.43.291,untitled,2024.1.5,None,2024-11-27 10h02.59.235206 +0530
,,,,,,,,,,,,,,,,,,,,,,,,,,,,,,,,,,,,,,,,,,,,,,,,,,,,,,,,,,,,,,,,,,,,,,,,,,,,,36.2816736,36.2982271,36.2982271,70.2660519,space,33.9514865,None,,,,,,,,,,,,,,,,,,,,,,,,,,,,,,,,,,,,,,,,,,,,,,,,,,,,,,,,,,,,,,,,,,,,,,,,,,,,,,,,,,,,,,,,,,,,,,,A_1_,1,2024-11-27_10h02.43.291,untitled,2024.1.5,None,2024-11-27 10h02.59.235206 +0530
square.png,you,0,Z,,,,,,,,,0,0,0,2,,,,,,,,,70.2817989,,,,,,,,,,,,,,,,,,,,,,,,,,,,,,,,,,,,,,,,,,,,,,,,,,,,,,,,,,,,70.2717236,70.2817989,70.7656372,70.7656372,70.7656372,70.7656372,70.7821633,71.0655179,71.0655179,71.0655179,71.8660394,71.8496769,None,71.8500071,71.8660394,72.8667974,72.8503897,,,,,,,,,,,,,,,,,,,,,,,,,,,,,,,,,,,,,,,,,,,,,,,,,,,,,,,,,,,,,,,,,,,,,,,,,,,,,,A_1_,1,2024-11-27_10h02.43.291,untitled,2024.1.5,None,2024-11-27 10h02.59.235206 +0530
triangle.png,stranger,0,Z,,,,,,,,,0,1,1,3,,,,,,,,,72.8667974,,,,,,,,,,,,,,,,,,,,,,,,,,,,,,,,,,,,,,,,,,,,,,,,,,,,,,,,,,,,72.850742,72.8667974,73.3670205,73.3670205,73.3670205,73.3670205,73.3670205,73.6670063,73.6670063,73.6670063,,74.4016782,z,74.40226,74.4173897,75.4179294,75.4017866,1.0280376,None,,,,,,,,,,,,,,,,,,,,,,,,,,,,,,,,,,,,,,,,,,,,,,,,,,,,,,,,,,,,,,,,,,,,,,,,,,,,A_1_,1,2024-11-27_10h02.43.291,untitled,2024.1.5,None,2024-11-27 10h02.59.235206 +0530
square.png,stranger,1,M,,,,,,,,,0,2,2,0,,,,,,,,,75.4179294,,,,,,,,,,,,,,,,,,,,,,,,,,,,,,,,,,,,,,,,,,,,,,,,,,,,,,,,,,,,75.4021395,75.4179294,75.9016032,75.9016032,75.9016032,75.9016032,75.9183125,76.2018398,76.2018398,76.2018398,,76.4526391,m,76.4530784,76.4685989,77.4688971,77.4527525,0.5445913,None,,,,,,,,,,,,,,,,,,,,,,,,,,,,,,,,,,,,,,,,,,,,,,,,,,,,,,,,,,,,,,,,,,,,,,,,,,,,A_1_,1,2024-11-27_10h02.43.291,untitled,2024.1.5,None,2024-11-27 10h02.59.235206 +0530
triangle.png,you,1,M,,,,,,,,,0,3,3,1,,,,,,,,,77.4688971,,,,,,,,,,,,,,,,,,,,,,,,,,,,,,,,,,,,,,,,,,,,,,,,,,,,,,,,,,,,77.4530976,77.4688971,77.9530012,77.9530012,77.9530012,77.9530012,77.9693073,78.2528248,78.2528248,78.2528248,,78.403697,z,78.4041245,78.4195656,79.4200115,79.4038791,0.4459824,None,,,,,,,,,,,,,,,,,,,,,,,,,,,,,,,,,,,,,,,,,,,,,,,,,,,,,,,,,,,,,,,,,,,,,,,,,,,,A_1_,1,2024-11-27_10h02.43.291,untitled,2024.1.5,None,2024-11-27 10h02.59.235206 +0530
square.png,stranger,1,M,,,,,,,,,1,0,4,0,,,,,,,,,79.4200115,,,,,,,,,,,,,,,,,,,,,,,,,,,,,,,,,,,,,,,,,,,,,,,,,,,,,,,,,,,,79.4042295,79.4200115,79.9037517,79.9037517,79.9037517,79.9037517,79.920371,80.2036256,80.2036256,80.2036256,,80.6880467,z,80.6884706,80.7041019,81.7045892,81.6881642,0.774242,None,,,,,,,,,,,,,,,,,,,,,,,,,,,,,,,,,,,,,,,,,,,,,,,,,,,,,,,,,,,,,,,,,,,,,,,,,,,,A_1_,1,2024-11-27_10h02.43.291,untitled,2024.1.5,None,2024-11-27 10h02.59.235206 +0530
triangle.png,stranger,0,Z,,,,,,,,,1,1,5,3,,,,,,,,,81.7045892,,,,,,,,,,,,,,,,,,,,,,,,,,,,,,,,,,,,,,,,,,,,,,,,,,,,,,,,,,,,81.6885104,81.7045892,82.1880547,82.1880547,82.1880547,82.1880547,82.2047887,82.48835,82.48835,82.48835,83.2887368,83.2725612,None,83.2727471,83.2887368,84.289294,84.2730595,,,,,,,,,,,,,,,,,,,,,,,,,,,,,,,,,,,,,,,,,,,,,,,,,,,,,,,,,,,,,,,,,,,,,,,,,,,,,,A_1_,1,2024-11-27_10h02.43.291,untitled,2024.1.5,None,2024-11-27 10h02.59.235206 +0530
triangle.png,you,1,M,,,,,,,,,1,2,6,1,,,,,,,,,84.289294,,,,,,,,,,,,,,,,,,,,,,,,,,,,,,,,,,,,,,,,,,,,,,,,,,,,,,,,,,,,84.2734079,84.289294,84.7897668,84.7897668,84.7897668,84.7897668,84.7897668,85.0896757,85.0896757,85.0896757,,85.2736063,z,85.2740265,85.2896522,86.290181,86.2739708,0.4685857,None,,,,,,,,,,,,,,,,,,,,,,,,,,,,,,,,,,,,,,,,,,,,,,,,,,,,,,,,,,,,,,,,,,,,,,,,,,,,A_1_,1,2024-11-27_10h02.43.291,untitled,2024.1.5,None,2024-11-27 10h02.59.235206 +0530
square.png,you,0,Z,,,,,,,,,1,3,7,2,,,,,,,,,86.290181,,,,,,,,,,,,,,,,,,,,,,,,,,,,,,,,,,,,,,,,,,,,,,,,,,,,,,,,,,,,86.2743252,86.290181,86.7736023,86.7736023,86.7736023,86.7736023,86.790398,87.0739249,87.0739249,87.0739249,,87.1748329,z,87.1752592,87.1906432,88.1911851,88.1749536,0.3970963,None,,,,,,,,,,,,,,,,,,,,,,,,,,,,,,,,,,,,,,,,,,,,,,,,,,,,,,,,,,,,,,,,,,,,,,,,,,,,A_1_,1,2024-11-27_10h02.43.291,untitled,2024.1.5,None,2024-11-27 10h02.59.235206 +0530
triangle.png,stranger,0,Z,,,,,,,,,2,0,8,3,,,,,,,,,88.1911851,,,,,,,,,,,,,,,,,,,,,,,,,,,,,,,,,,,,,,,,,,,,,,,,,,,,,,,,,,,,88.1753065,88.1911851,88.6750334,88.6750334,88.6750334,88.6750334,88.6917074,88.9748819,88.9748819,88.9748819,,89.1923378,m,89.1927798,89.2084091,90.2088196,90.192712,0.5080192,None,,,,,,,,,,,,,,,,,,,,,,,,,,,,,,,,,,,,,,,,,,,,,,,,,,,,,,,,,,,,,,,,,,,,,,,,,,,,A_1_,1,2024-11-27_10h02.43.291,untitled,2024.1.5,None,2024-11-27 10h02.59.235206 +0530
square.png,you,0,Z,,,,,,,,,2,1,9,2,,,,,,,,,90.2088196,,,,,,,,,,,,,,,,,,,,,,,,,,,,,,,,,,,,,,,,,,,,,,,,,,,,,,,,,,,,90.1930643,90.2088196,90.6924506,90.6924506,90.6924506,90.6924506,90.7093701,90.9927599,90.9927599,90.9927599,,91.5935534,m,91.5939812,91.6096884,92.610221,92.5939141,0.8848701,None,,,,,,,,,,,,,,,,,,,,,,,,,,,,,,,,,,,,,,,,,,,,,,,,,,,,,,,,,,,,,,,,,,,,,,,,,,,,A_1_,1,2024-11-27_10h02.43.291,untitled,2024.1.5,None,2024-11-27 10h02.59.235206 +0530
square.png,stranger,1,M,,,,,,,,,2,2,10,0,,,,,,,,,92.610221,,,,,,,,,,,,,,,,,,,,,,,,,,,,,,,,,,,,,,,,,,,,,,,,,,,,,,,,,,,,92.5942618,92.610221,93.0940647,93.0940647,93.0940647,93.0940647,93.1105585,93.3939076,93.3939076,93.3939076,,93.8449043,z,93.8453322,93.8609891,94.8611483,94.8453002,0.7394252,None,,,,,,,,,,,,,,,,,,,,,,,,,,,,,,,,,,,,,,,,,,,,,,,,,,,,,,,,,,,,,,,,,,,,,,,,,,,,A_1_,1,2024-11-27_10h02.43.291,untitled,2024.1.5,None,2024-11-27 10h02.59.235206 +0530
triangle.png,you,1,M,,,,,,,,,2,3,11,1,,,,,,,,,94.8611483,,,,,,,,,,,,,,,,,,,,,,,,,,,,,,,,,,,,,,,,,,,,,,,,,,,,,,,,,,,,94.8456491,94.8611483,95.3448914,95.3448914,95.3448914,95.3448914,95.3615225,,,,,95.6123328,m,95.6127761,95.6283315,96.628808,96.6125535,0.2568152,None,,,,,,,,,,,,,,,,,,,,,,,,,,,,,,,,,,,,,,,,,,,,,,,,,,,,,,,,,,,,,,,,,,,,,,,,,,,,A_1_,1,2024-11-27_10h02.43.291,untitled,2024.1.5,None,2024-11-27 10h02.59.235206 +0530
square.png,stranger,1,M,,,,,,,,,3,0,12,0,,,,,,,,,96.628808,,,,,,,,,,,,,,,,,,,,,,,,,,,,,,,,,,,,,,,,,,,,,,,,,,,,,,,,,,,,96.6129109,96.628808,97.1124843,97.1124843,97.1124843,97.1124843,97.1291732,,,,,97.3632725,z,97.3637012,97.3794619,98.3798707,98.3634192,0.2380651,None,,,,,,,,,,,,,,,,,,,,,,,,,,,,,,,,,,,,,,,,,,,,,,,,,,,,,,,,,,,,,,,,,,,,,,,,,,,,A_1_,1,2024-11-27_10h02.43.291,untitled,2024.1.5,None,2024-11-27 10h02.59.235206 +0530
triangle.png,you,1,M,,,,,,,,,3,1,13,1,,,,,,,,,98.3798707,,,,,,,,,,,,,,,,,,,,,,,,,,,,,,,,,,,,,,,,,,,,,,,,,,,,,,,,,,,,98.3637681,98.3798707,98.8634515,98.8634515,98.8634515,98.8634515,98.8799974,,,,,98.9979085,m,98.9983339,99.013548,100.0138463,99.9975067,0.1186091,None,,,,,,,,,,,,,,,,,,,,,,,,,,,,,,,,,,,,,,,,,,,,,,,,,,,,,,,,,,,,,,,,,,,,,,,,,,,,A_1_,1,2024-11-27_10h02.43.291,untitled,2024.1.5,None,2024-11-27 10h02.59.235206 +0530
triangle.png,stranger,0,Z,,,,,,,,,3,2,14,3,,,,,,,,,100.0138463,,,,,,,,,,,,,,,,,,,,,,,,,,,,,,,,,,,,,,,,,,,,,,,,,,,,,,,,,,,,99.9978647,100.0138463,100.4980361,100.4980361,100.4980361,100.4980361,100.5142473,,,,,100.7652878,m,100.7657127,100.7811486,101.7815746,101.7652658,0.2562014,None,,,,,,,,,,,,,,,,,,,,,,,,,,,,,,,,,,,,,,,,,,,,,,,,,,,,,,,,,,,,,,,,,,,,,,,,,,,,A_1_,1,2024-11-27_10h02.43.291,untitled,2024.1.5,None,2024-11-27 10h02.59.235206 +0530
square.png,you,0,Z,,,,,,,,,3,3,15,2,,,,,,,,,101.7815746,,,,,,,,,,,,,,,,,,,,,,,,,,,,,,,,,,,,,,,,,,,,,,,,,,,,,,,,,,,,101.7656125,101.7815746,102.2651345,102.2651345,102.2651345,102.2651345,102.2819471,102.5654436,102.5654436,102.5654436,,102.6491929,z,102.6496169,102.6651887,103.6657875,103.6495629,0.3724081,None,,,,,,,,,,,,,,,,,,,,,,,,,,,,,,,,,,,,,,,,,,,,,,,,,,,,,,,,,,,,,,,,,,,,,,,,,,,,A_1_,1,2024-11-27_10h02.43.291,untitled,2024.1.5,None,2024-11-27 10h02.59.235206 +0530
square.png,you,0,Z,,,,,,,,,4,0,16,2,,,,,,,,,103.6657875,,,,,,,,,,,,,,,,,,,,,,,,,,,,,,,,,,,,,,,,,,,,,,,,,,,,,,,,,,,,103.6499133,103.6657875,104.1496626,104.1496626,104.1496626,104.1496626,104.1662434,104.4494587,104.4494587,104.4494587,,104.8671509,z,104.8675783,104.8830862,105.8836794,105.8674375,0.7090705,None,,,,,,,,,,,,,,,,,,,,,,,,,,,,,,,,,,,,,,,,,,,,,,,,,,,,,,,,,,,,,,,,,,,,,,,,,,,,A_1_,1,2024-11-27_10h02.43.291,untitled,2024.1.5,None,2024-11-27 10h02.59.235206 +0530
square.png,stranger,1,M,,,,,,,,,4,1,17,0,,,,,,,,,105.8836794,,,,,,,,,,,,,,,,,,,,,,,,,,,,,,,,,,,,,,,,,,,,,,,,,,,,,,,,,,,,105.8677938,105.8836794,106.3675429,106.3675429,106.3675429,106.3675429,106.3838468,106.6674594,106.6674594,106.6674594,,106.718191,z,106.7186126,106.7341944,107.7344634,107.7184588,0.3380601,None,,,,,,,,,,,,,,,,,,,,,,,,,,,,,,,,,,,,,,,,,,,,,,,,,,,,,,,,,,,,,,,,,,,,,,,,,,,,A_1_,1,2024-11-27_10h02.43.291,untitled,2024.1.5,None,2024-11-27 10h02.59.235206 +0530
triangle.png,you,1,M,,,,,,,,,4,2,18,1,,,,,,,,,107.7344634,,,,,,,,,,,,,,,,,,,,,,,,,,,,,,,,,,,,,,,,,,,,,,,,,,,,,,,,,,,,107.7188417,107.7344634,108.2184561,108.2184561,108.2184561,108.2184561,108.2347692,108.5183113,108.5183113,108.5183113,,108.6523712,m,108.6527978,108.6684646,109.6689148,109.6528834,0.4200841,None,,,,,,,,,,,,,,,,,,,,,,,,,,,,,,,,,,,,,,,,,,,,,,,,,,,,,,,,,,,,,,,,,,,,,,,,,,,,A_1_,1,2024-11-27_10h02.43.291,untitled,2024.1.5,None,2024-11-27 10h02.59.235206 +0530
triangle.png,stranger,0,Z,,,,,,,,,4,3,19,3,,,,,,,,,109.6689148,,,,,,,,,,,,,,,,,,,,,,,,,,,,,,,,,,,,,,,,,,,,,,,,,,,,,,,,,,,,109.6532343,109.6689148,110.152465,110.152465,110.152465,110.152465,110.1691148,110.452531,110.452531,110.452531,,110.7535138,z,110.7539373,110.7695708,111.7700673,111.7536362,0.5944597,None,,,,,,,,,,,,,,,,,,,,,,,,,,,,,,,,,,,,,,,,,,,,,,,,,,,,,,,,,,,,,,,,,,,,,,,,,,,,A_1_,1,2024-11-27_10h02.43.291,untitled,2024.1.5,None,2024-11-27 10h02.59.235206 +0530
triangle.png,you,1,M,,,,,,,,,5,0,20,1,,,,,,,,,111.7700673,,,,,,,,,,,,,,,,,,,,,,,,,,,,,,,,,,,,,,,,,,,,,,,,,,,,,,,,,,,,111.7539854,111.7700673,112.2538577,112.2538577,112.2538577,112.2538577,112.2701603,112.5535474,112.5535474,112.5535474,,112.8879928,z,112.8884158,112.9037121,113.9044415,113.8882698,0.6209332,None,,,,,,,,,,,,,,,,,,,,,,,,,,,,,,,,,,,,,,,,,,,,,,,,,,,,,,,,,,,,,,,,,,,,,,,,,,,,A_1_,1,2024-11-27_10h02.43.291,untitled,2024.1.5,None,2024-11-27 10h02.59.235206 +0530
triangle.png,stranger,0,Z,,,,,,,,,5,1,21,3,,,,,,,,,113.9044415,,,,,,,,,,,,,,,,,,,,,,,,,,,,,,,,,,,,,,,,,,,,,,,,,,,,,,,,,,,,113.8886236,113.9044415,114.3883132,114.3883132,114.3883132,114.3883132,114.4046467,,,,,114.6222186,m,114.6226543,114.6382069,115.6387714,115.6223928,0.2303048,None,,,,,,,,,,,,,,,,,,,,,,,,,,,,,,,,,,,,,,,,,,,,,,,,,,,,,,,,,,,,,,,,,,,,,,,,,,,,A_1_,1,2024-11-27_10h02.43.291,untitled,2024.1.5,None,2024-11-27 10h02.59.235206 +0530
square.png,you,0,Z,,,,,,,,,5,2,22,2,,,,,,,,,115.6387714,,,,,,,,,,,,,,,,,,,,,,,,,,,,,,,,,,,,,,,,,,,,,,,,,,,,,,,,,,,,115.622741,115.6387714,116.1223913,116.1223913,116.1223913,116.1223913,116.1389759,116.4225604,116.4225604,116.4225604,,116.4065423,z,116.406967,116.4225604,117.4225301,117.4062708,0.2806832,None,,,,,,,,,,,,,,,,,,,,,,,,,,,,,,,,,,,,,,,,,,,,,,,,,,,,,,,,,,,,,,,,,,,,,,,,,,,,A_1_,1,2024-11-27_10h02.43.291,untitled,2024.1.5,None,2024-11-27 10h02.59.235206 +0530
square.png,stranger,1,M,,,,,,,,,5,3,23,0,,,,,,,,,117.4225301,,,,,,,,,,,,,,,,,,,,,,,,,,,,,,,,,,,,,,,,,,,,,,,,,,,,,,,,,,,,117.4066232,117.4225301,117.9066843,117.9066843,117.9066843,117.9066843,117.9231662,,,,,118.1739543,z,118.1743854,118.1899825,119.1905832,119.1741354,0.2600384,None,,,,,,,,,,,,,,,,,,,,,,,,,,,,,,,,,,,,,,,,,,,,,,,,,,,,,,,,,,,,,,,,,,,,,,,,,,,,A_1_,1,2024-11-27_10h02.43.291,untitled,2024.1.5,None,2024-11-27 10h02.59.235206 +0530
square.png,stranger,1,M,,,,,,,,,6,0,24,0,,,,,,,,,119.1905832,,,,,,,,,,,,,,,,,,,,,,,,,,,,,,,,,,,,,,,,,,,,,,,,,,,,,,,,,,,,119.174487,119.1905832,119.6742257,119.6742257,119.6742257,119.6742257,119.6909232,,,,,119.875018,m,119.8754495,119.8907677,120.8913589,120.874778,0.1914101,None,,,,,,,,,,,,,,,,,,,,,,,,,,,,,,,,,,,,,,,,,,,,,,,,,,,,,,,,,,,,,,,,,,,,,,,,,,,,A_1_,1,2024-11-27_10h02.43.291,untitled,2024.1.5,None,2024-11-27 10h02.59.235206 +0530
triangle.png,you,1,M,,,,,,,,,6,1,25,1,,,,,,,,,120.8913589,,,,,,,,,,,,,,,,,,,,,,,,,,,,,,,,,,,,,,,,,,,,,,,,,,,,,,,,,,,,120.8751364,120.8913589,121.3751594,121.3751594,121.3751594,121.3751594,121.3915408,121.6749021,121.6749021,121.6749021,,121.6925462,m,121.6929718,121.7086308,122.7090687,122.6928037,0.3033092,None,,,,,,,,,,,,,,,,,,,,,,,,,,,,,,,,,,,,,,,,,,,,,,,,,,,,,,,,,,,,,,,,,,,,,,,,,,,,A_1_,1,2024-11-27_10h02.43.291,untitled,2024.1.5,None,2024-11-27 10h02.59.235206 +0530
triangle.png,stranger,0,Z,,,,,,,,,6,2,26,3,,,,,,,,,122.7090687,,,,,,,,,,,,,,,,,,,,,,,,,,,,,,,,,,,,,,,,,,,,,,,,,,,,,,,,,,,,122.6931528,122.7090687,123.1927591,123.1927591,123.1927591,123.1927591,123.2092818,,,,,123.4603153,m,123.4608134,123.4758804,124.4764134,124.4602571,0.2623587,None,,,,,,,,,,,,,,,,,,,,,,,,,,,,,,,,,,,,,,,,,,,,,,,,,,,,,,,,,,,,,,,,,,,,,,,,,,,,A_1_,1,2024-11-27_10h02.43.291,untitled,2024.1.5,None,2024-11-27 10h02.59.235206 +0530
square.png,you,0,Z,,,,,,,,,6,3,27,2,,,,,,,,,124.4764134,,,,,,,,,,,,,,,,,,,,,,,,,,,,,,,,,,,,,,,,,,,,,,,,,,,,,,,,,,,,124.4606065,124.4764134,124.9598763,124.9598763,124.9598763,124.9598763,124.9765087,125.2601363,125.2601363,125.2601363,126.0605536,126.0444838,None,126.0446711,126.0605536,127.0610803,127.0449848,,,,,,,,,,,,,,,,,,,,,,,,,,,,,,,,,,,,,,,,,,,,,,,,,,,,,,,,,,,,,,,,,,,,,,,,,,,,,,A_1_,1,2024-11-27_10h02.43.291,untitled,2024.1.5,None,2024-11-27 10h02.59.235206 +0530
square.png,stranger,1,M,,,,,,,,,7,0,28,0,,,,,,,,,127.0610803,,,,,,,,,,,,,,,,,,,,,,,,,,,,,,,,,,,,,,,,,,,,,,,,,,,,,,,,,,,,127.045335,127.0610803,127.5614845,127.5614845,127.5614845,127.5614845,127.5614845,,,,,127.695863,m,127.6963776,127.7115705,128.711913,128.6959368,None,None,,,,,,,,,,,,,,,,,,,,,,,,,,,,,,,,,,,,,,,,,,,,,,,,,,,,,,,,,,,,,,,,,,,,,,,,,,,,A_1_,1,2024-11-27_10h02.43.291,untitled,2024.1.5,None,2024-11-27 10h02.59.235206 +0530
triangle.png,you,1,M,,,,,,,,,7,1,29,1,,,,,,,,,128.711913,,,,,,,,,,,,,,,,,,,,,,,,,,,,,,,,,,,,,,,,,,,,,,,,,,,,,,,,,,,,128.6962882,128.711913,129.1957731,129.1957731,129.1957731,129.1957731,129.2124723,,,,,129.4631251,m,129.4635264,129.4792129,130.479684,130.4634507,0.2576214,None,,,,,,,,,,,,,,,,,,,,,,,,,,,,,,,,,,,,,,,,,,,,,,,,,,,,,,,,,,,,,,,,,,,,,,,,,,,,A_1_,1,2024-11-27_10h02.43.291,untitled,2024.1.5,None,2024-11-27 10h02.59.235206 +0530
triangle.png,stranger,0,Z,,,,,,,,,7,2,30,3,,,,,,,,,130.479684,,,,,,,,,,,,,,,,,,,,,,,,,,,,,,,,,,,,,,,,,,,,,,,,,,,,,,,,,,,,130.4638001,130.479684,130.9633872,130.9633872,130.9633872,130.9633872,130.9801476,,,,,131.2309548,z,131.2313552,131.2468218,132.2472981,132.2309156,0.2588645,None,,,,,,,,,,,,,,,,,,,,,,,,,,,,,,,,,,,,,,,,,,,,,,,,,,,,,,,,,,,,,,,,,,,,,,,,,,,,A_1_,1,2024-11-27_10h02.43.291,untitled,2024.1.5,None,2024-11-27 10h02.59.235206 +0530
square.png,you,0,Z,,,,,,,,,7,3,31,2,,,,,,,,,132.2472981,,,,,,,,,,,,,,,,,,,,,,,,,,,,,,,,,,,,,,,,,,,,,,,,,,,,,,,,,,,,132.2312651,132.2472981,132.7310606,132.7310606,132.7310606,132.7310606,132.7476922,133.0310016,133.0310016,133.0310016,,133.1318354,z,133.1322405,133.1477964,134.1480352,134.1319406,0.3984283,None,,,,,,,,,,,,,,,,,,,,,,,,,,,,,,,,,,,,,,,,,,,,,,,,,,,,,,,,,,,,,,,,,,,,,,,,,,,,A_1_,1,2024-11-27_10h02.43.291,untitled,2024.1.5,None,2024-11-27 10h02.59.235206 +0530
square.png,you,0,Z,,,,,,,,,8,0,32,2,,,,,,,,,134.1480352,,,,,,,,,,,,,,,,,,,,,,,,,,,,,,,,,,,,,,,,,,,,,,,,,,,,,,,,,,,,134.1322904,134.1480352,134.6319534,134.6319534,134.6319534,134.6319534,134.6484743,134.931734,134.931734,134.931734,,135.0660297,z,135.0664367,135.0821057,136.0824074,136.066223,0.4183803,None,,,,,,,,,,,,,,,,,,,,,,,,,,,,,,,,,,,,,,,,,,,,,,,,,,,,,,,,,,,,,,,,,,,,,,,,,,,,A_1_,1,2024-11-27_10h02.43.291,untitled,2024.1.5,None,2024-11-27 10h02.59.235206 +0530
triangle.png,stranger,0,Z,,,,,,,,,8,1,33,3,,,,,,,,,136.0824074,,,,,,,,,,,,,,,,,,,,,,,,,,,,,,,,,,,,,,,,,,,,,,,,,,,,,,,,,,,,136.0665703,136.0824074,136.5663388,136.5663388,136.5663388,136.5663388,136.5829034,136.8662119,136.8662119,136.8662119,,136.850494,z,136.8509058,136.8662119,137.8667112,137.850693,0.275394,None,,,,,,,,,,,,,,,,,,,,,,,,,,,,,,,,,,,,,,,,,,,,,,,,,,,,,,,,,,,,,,,,,,,,,,,,,,,,A_1_,1,2024-11-27_10h02.43.291,untitled,2024.1.5,None,2024-11-27 10h02.59.235206 +0530
square.png,stranger,1,M,,,,,,,,,8,2,34,0,,,,,,,,,137.8667112,,,,,,,,,,,,,,,,,,,,,,,,,,,,,,,,,,,,,,,,,,,,,,,,,,,,,,,,,,,,137.8510397,137.8667112,138.3505581,138.3505581,138.3505581,138.3505581,138.3667289,138.6505197,138.6505197,138.6505197,139.4508798,139.4346678,None,139.4348749,139.4508798,140.4514668,140.4351556,,,,,,,,,,,,,,,,,,,,,,,,,,,,,,,,,,,,,,,,,,,,,,,,,,,,,,,,,,,,,,,,,,,,,,,,,,,,,,A_1_,1,2024-11-27_10h02.43.291,untitled,2024.1.5,None,2024-11-27 10h02.59.235206 +0530
triangle.png,you,1,M,,,,,,,,,8,3,35,1,,,,,,,,,140.4514668,,,,,,,,,,,,,,,,,,,,,,,,,,,,,,,,,,,,,,,,,,,,,,,,,,,,,,,,,,,,140.4355114,140.4514668,140.9519073,140.9519073,140.9519073,140.9519073,140.9519073,,,,,141.0359566,z,141.0363587,141.0516546,142.0521401,142.0360847,0.0736779,None,,,,,,,,,,,,,,,,,,,,,,,,,,,,,,,,,,,,,,,,,,,,,,,,,,,,,,,,,,,,,,,,,,,,,,,,,,,,A_1_,1,2024-11-27_10h02.43.291,untitled,2024.1.5,None,2024-11-27 10h02.59.235206 +0530
square.png,stranger,1,M,,,,,,,,,9,0,36,0,,,,,,,,,142.0521401,,,,,,,,,,,,,,,,,,,,,,,,,,,,,,,,,,,,,,,,,,,,,,,,,,,,,,,,,,,,142.0364438,142.0521401,142.5361753,142.5361753,142.5361753,142.5361753,142.5524903,,,,,142.7534861,m,142.7538878,142.7691353,143.7698682,143.7533458,0.2015396,None,,,,,,,,,,,,,,,,,,,,,,,,,,,,,,,,,,,,,,,,,,,,,,,,,,,,,,,,,,,,,,,,,,,,,,,,,,,,A_1_,1,2024-11-27_10h02.43.291,untitled,2024.1.5,None,2024-11-27 10h02.59.235206 +0530
triangle.png,stranger,0,Z,,,,,,,,,9,1,37,3,,,,,,,,,143.7698682,,,,,,,,,,,,,,,,,,,,,,,,,,,,,,,,,,,,,,,,,,,,,,,,,,,,,,,,,,,,143.7536982,143.7698682,144.2532595,144.2532595,144.2532595,144.2532595,144.2698908,,,,,144.4709333,m,144.4713356,144.4869769,145.4874258,145.4710887,0.209102,None,,,,,,,,,,,,,,,,,,,,,,,,,,,,,,,,,,,,,,,,,,,,,,,,,,,,,,,,,,,,,,,,,,,,,,,,,,,,A_1_,1,2024-11-27_10h02.43.291,untitled,2024.1.5,None,2024-11-27 10h02.59.235206 +0530
triangle.png,you,1,M,,,,,,,,,9,2,38,1,,,,,,,,,145.4874258,,,,,,,,,,,,,,,,,,,,,,,,,,,,,,,,,,,,,,,,,,,,,,,,,,,,,,,,,,,,145.4714411,145.4874258,145.9712483,145.9712483,145.9712483,145.9712483,145.9875437,146.2708578,146.2708578,146.2708578,,146.2552183,z,146.2556215,146.2708578,147.2717839,147.2554374,0.2830552,None,,,,,,,,,,,,,,,,,,,,,,,,,,,,,,,,,,,,,,,,,,,,,,,,,,,,,,,,,,,,,,,,,,,,,,,,,,,,A_1_,1,2024-11-27_10h02.43.291,untitled,2024.1.5,None,2024-11-27 10h02.59.235206 +0530
square.png,you,0,Z,,,,,,,,,9,3,39,2,,,,,,,,,147.2717839,,,,,,,,,,,,,,,,,,,,,,,,,,,,,,,,,,,,,,,,,,,,,,,,,,,,,,,,,,,,147.2557859,147.2717839,147.7555374,147.7555374,147.7555374,147.7555374,147.7718323,148.055434,148.055434,148.055434,148.8556597,148.8395496,None,148.8397559,148.8556597,149.8563247,149.840126,,,,,,,,,,,,,,,,,,,,,,,,,,,,,,,,,,,,,,,,,,,,,,,,,,,,,,,,,,,,,,,,,,,,,,,,,,,,,,A_1_,1,2024-11-27_10h02.43.291,untitled,2024.1.5,None,2024-11-27 10h02.59.235206 +0530
triangle.png,stranger,0,Z,,,,,,,,,10,0,40,3,,,,,,,,,149.8563247,,,,,,,,,,,,,,,,,,,,,,,,,,,,,,,,,,,,,,,,,,,,,,,,,,,,,,,,,,,,149.8404809,149.8563247,150.3564869,150.3564869,150.3564869,150.3564869,150.3564869,,,,,150.6073211,m,150.607731,150.6232456,151.6237511,151.6076329,0.237153,None,,,,,,,,,,,,,,,,,,,,,,,,,,,,,,,,,,,,,,,,,,,,,,,,,,,,,,,,,,,,,,,,,,,,,,,,,,,,A_1_,1,2024-11-27_10h02.43.291,untitled,2024.1.5,None,2024-11-27 10h02.59.235206 +0530
square.png,stranger,1,M,,,,,,,,,10,1,41,0,,,,,,,,,151.6237511,,,,,,,,,,,,,,,,,,,,,,,,,,,,,,,,,,,,,,,,,,,,,,,,,,,,,,,,,,,,151.6079854,151.6237511,152.107515,152.107515,152.107515,152.107515,152.1240593,152.4074907,152.4074907,152.4074907,,152.4919214,z,152.4923144,152.5076707,153.5081929,153.4919835,0.3746428,None,,,,,,,,,,,,,,,,,,,,,,,,,,,,,,,,,,,,,,,,,,,,,,,,,,,,,,,,,,,,,,,,,,,,,,,,,,,,A_1_,1,2024-11-27_10h02.43.291,untitled,2024.1.5,None,2024-11-27 10h02.59.235206 +0530
square.png,you,0,Z,,,,,,,,,10,2,42,2,,,,,,,,,153.5081929,,,,,,,,,,,,,,,,,,,,,,,,,,,,,,,,,,,,,,,,,,,,,,,,,,,,,,,,,,,,153.4923306,153.5081929,153.9921687,153.9921687,153.9921687,153.9921687,154.0087394,154.2919511,154.2919511,154.2919511,,154.2764194,m,154.2768185,154.2919511,155.29243,155.2759557,0.2821294,None,,,,,,,,,,,,,,,,,,,,,,,,,,,,,,,,,,,,,,,,,,,,,,,,,,,,,,,,,,,,,,,,,,,,,,,,,,,,A_1_,1,2024-11-27_10h02.43.291,untitled,2024.1.5,None,2024-11-27 10h02.59.235206 +0530
triangle.png,you,1,M,,,,,,,,,10,3,43,1,,,,,,,,,155.29243,,,,,,,,,,,,,,,,,,,,,,,,,,,,,,,,,,,,,,,,,,,,,,,,,,,,,,,,,,,,155.2763055,155.29243,155.7759975,155.7759975,155.7759975,155.7759975,155.7925998,156.0760907,156.0760907,156.0760907,,156.093473,m,156.0938845,156.109427,157.1097798,157.0935593,0.3071145,None,,,,,,,,,,,,,,,,,,,,,,,,,,,,,,,,,,,,,,,,,,,,,,,,,,,,,,,,,,,,,,,,,,,,,,,,,,,,A_1_,1,2024-11-27_10h02.43.291,untitled,2024.1.5,None,2024-11-27 10h02.59.235206 +0530
triangle.png,stranger,0,Z,,,,,,,,,11,0,44,3,,,,,,,,,157.1097798,,,,,,,,,,,,,,,,,,,,,,,,,,,,,,,,,,,,,,,,,,,,,,,,,,,,,,,,,,,,157.0939075,157.1097798,157.5938901,157.5938901,157.5938901,157.5938901,157.610416,,,,,157.844478,m,157.8448803,157.8604983,158.8608047,158.8446511,0.2436129,None,,,,,,,,,,,,,,,,,,,,,,,,,,,,,,,,,,,,,,,,,,,,,,,,,,,,,,,,,,,,,,,,,,,,,,,,,,,,A_1_,1,2024-11-27_10h02.43.291,untitled,2024.1.5,None,2024-11-27 10h02.59.235206 +0530
triangle.png,you,1,M,,,,,,,,,11,1,45,1,,,,,,,,,158.8608047,,,,,,,,,,,,,,,,,,,,,,,,,,,,,,,,,,,,,,,,,,,,,,,,,,,,,,,,,,,,158.8450287,158.8608047,159.3444404,159.3444404,159.3444404,159.3444404,159.3610631,159.6446906,159.6446906,159.6446906,,159.6286146,z,159.6290313,159.6446906,160.6449851,160.6289085,0.2739032,None,,,,,,,,,,,,,,,,,,,,,,,,,,,,,,,,,,,,,,,,,,,,,,,,,,,,,,,,,,,,,,,,,,,,,,,,,,,,A_1_,1,2024-11-27_10h02.43.291,untitled,2024.1.5,None,2024-11-27 10h02.59.235206 +0530
square.png,stranger,1,M,,,,,,,,,11,2,46,0,,,,,,,,,160.6449851,,,,,,,,,,,,,,,,,,,,,,,,,,,,,,,,,,,,,,,,,,,,,,,,,,,,,,,,,,,,160.629258,160.6449851,161.128842,161.128842,161.128842,161.128842,161.145315,,,,,161.3797175,m,161.3801156,161.3955486,162.3961274,162.3798745,0.2454952,None,,,,,,,,,,,,,,,,,,,,,,,,,,,,,,,,,,,,,,,,,,,,,,,,,,,,,,,,,,,,,,,,,,,,,,,,,,,,A_1_,1,2024-11-27_10h02.43.291,untitled,2024.1.5,None,2024-11-27 10h02.59.235206 +0530
square.png,you,0,Z,,,,,,,,,11,3,47,2,,,,,,,,,162.3961274,,,,,,,,,,,,,,,,,,,,,,,,,,,,,,,,,,,,,,,,,,,,,,,,,,,,,,,,,,,,162.3802246,162.3961274,162.8797953,162.8797953,162.8797953,162.8797953,162.8964281,,,,,163.1304388,m,163.1308408,163.146446,164.1468534,164.1305707,0.2378717,None,,,,,,,,,,,,,,,,,,,,,,,,,,,,,,,,,,,,,,,,,,,,,,,,,,,,,,,,,,,,,,,,,,,,,,,,,,,,A_1_,1,2024-11-27_10h02.43.291,untitled,2024.1.5,None,2024-11-27 10h02.59.235206 +0530
triangle.png,stranger,0,Z,,,,,,,,,12,0,48,3,,,,,,,,,164.1468534,,,,,,,,,,,,,,,,,,,,,,,,,,,,,,,,,,,,,,,,,,,,,,,,,,,,,,,,,,,,164.1309217,164.1468534,164.6305055,164.6305055,164.6305055,164.6305055,164.6474486,,,,,164.8979492,z,164.8983739,164.9137226,165.9145725,165.8983272,0.2640775,None,,,,,,,,,,,,,,,,,,,,,,,,,,,,,,,,,,,,,,,,,,,,,,,,,,,,,,,,,,,,,,,,,,,,,,,,,,,,A_1_,1,2024-11-27_10h02.43.291,untitled,2024.1.5,None,2024-11-27 10h02.59.235206 +0530
square.png,stranger,1,M,,,,,,,,,12,1,49,0,,,,,,,,,165.9145725,,,,,,,,,,,,,,,,,,,,,,,,,,,,,,,,,,,,,,,,,,,,,,,,,,,,,,,,,,,,165.8986777,165.9145725,166.3980855,166.3980855,166.3980855,166.3980855,166.414701,166.69836,166.69836,166.69836,,166.6990844,z,166.6994852,166.7148879,167.7154905,167.6992859,0.2888711,None,,,,,,,,,,,,,,,,,,,,,,,,,,,,,,,,,,,,,,,,,,,,,,,,,,,,,,,,,,,,,,,,,,,,,,,,,,,,A_1_,1,2024-11-27_10h02.43.291,untitled,2024.1.5,None,2024-11-27 10h02.59.235206 +0530
square.png,you,0,Z,,,,,,,,,12,2,50,2,,,,,,,,,167.7154905,,,,,,,,,,,,,,,,,,,,,,,,,,,,,,,,,,,,,,,,,,,,,,,,,,,,,,,,,,,,167.6996396,167.7154905,168.199393,168.199393,168.199393,168.199393,168.215655,168.4992136,168.4992136,168.4992136,169.2994177,169.2834263,None,169.2836126,169.2994177,170.3000463,170.2839479,,,,,,,,,,,,,,,,,,,,,,,,,,,,,,,,,,,,,,,,,,,,,,,,,,,,,,,,,,,,,,,,,,,,,,,,,,,,,,A_1_,1,2024-11-27_10h02.43.291,untitled,2024.1.5,None,2024-11-27 10h02.59.235206 +0530
triangle.png,you,1,M,,,,,,,,,12,3,51,1,,,,,,,,,170.3000463,,,,,,,,,,,,,,,,,,,,,,,,,,,,,,,,,,,,,,,,,,,,,,,,,,,,,,,,,,,,170.2842969,170.3000463,170.8005073,170.8005073,170.8005073,170.8005073,170.8005073,171.1004665,171.1004665,171.1004665,,171.1843424,z,171.1847475,171.2003007,172.2011004,172.1846957,0.374273,None,,,,,,,,,,,,,,,,,,,,,,,,,,,,,,,,,,,,,,,,,,,,,,,,,,,,,,,,,,,,,,,,,,,,,,,,,,,,A_1_,1,2024-11-27_10h02.43.291,untitled,2024.1.5,None,2024-11-27 10h02.59.235206 +0530
triangle.png,you,1,M,,,,,,,,,13,0,52,1,,,,,,,,,172.2011004,,,,,,,,,,,,,,,,,,,,,,,,,,,,,,,,,,,,,,,,,,,,,,,,,,,,,,,,,,,,172.1850437,172.2011004,172.6846469,172.6846469,172.6846469,172.6846469,172.7012463,172.9846905,172.9846905,172.9846905,,172.9688496,m,172.9692544,172.9846905,173.9851784,173.969184,0.282062,None,,,,,,,,,,,,,,,,,,,,,,,,,,,,,,,,,,,,,,,,,,,,,,,,,,,,,,,,,,,,,,,,,,,,,,,,,,,,A_1_,1,2024-11-27_10h02.43.291,untitled,2024.1.5,None,2024-11-27 10h02.59.235206 +0530
triangle.png,stranger,0,Z,,,,,,,,,13,1,53,3,,,,,,,,,173.9851784,,,,,,,,,,,,,,,,,,,,,,,,,,,,,,,,,,,,,,,,,,,,,,,,,,,,,,,,,,,,173.969533,173.9851784,174.4689287,174.4689287,174.4689287,174.4689287,174.4856496,,,,,174.7365925,m,174.7369944,174.752565,175.7528549,175.7367085,0.2581108,None,,,,,,,,,,,,,,,,,,,,,,,,,,,,,,,,,,,,,,,,,,,,,,,,,,,,,,,,,,,,,,,,,,,,,,,,,,,,A_1_,1,2024-11-27_10h02.43.291,untitled,2024.1.5,None,2024-11-27 10h02.59.235206 +0530
square.png,stranger,1,M,,,,,,,,,13,2,54,0,,,,,,,,,175.7528549,,,,,,,,,,,,,,,,,,,,,,,,,,,,,,,,,,,,,,,,,,,,,,,,,,,,,,,,,,,,175.7370569,175.7528549,176.2366009,176.2366009,176.2366009,176.2366009,176.2533581,176.5364894,176.5364894,176.5364894,,176.6707892,z,176.6711863,176.6865302,177.6870016,177.6710659,0.4249101,None,,,,,,,,,,,,,,,,,,,,,,,,,,,,,,,,,,,,,,,,,,,,,,,,,,,,,,,,,,,,,,,,,,,,,,,,,,,,A_1_,1,2024-11-27_10h02.43.291,untitled,2024.1.5,None,2024-11-27 10h02.59.235206 +0530
square.png,you,0,Z,,,,,,,,,13,3,55,2,,,,,,,,,177.6870016,,,,,,,,,,,,,,,,,,,,,,,,,,,,,,,,,,,,,,,,,,,,,,,,,,,,,,,,,,,,177.6714154,177.6870016,178.1710553,178.1710553,178.1710553,178.1710553,178.1876354,178.4709898,178.4709898,178.4709898,,178.4552286,m,178.4556378,178.4709898,179.4715494,179.4551485,0.2744133,None,,,,,,,,,,,,,,,,,,,,,,,,,,,,,,,,,,,,,,,,,,,,,,,,,,,,,,,,,,,,,,,,,,,,,,,,,,,,A_1_,1,2024-11-27_10h02.43.291,untitled,2024.1.5,None,2024-11-27 10h02.59.235206 +0530
square.png,stranger,1,M,,,,,,,,,14,0,56,0,,,,,,,,,179.4715494,,,,,,,,,,,,,,,,,,,,,,,,,,,,,,,,,,,,,,,,,,,,,,,,,,,,,,,,,,,,179.4554993,179.4715494,179.9551583,179.9551583,179.9551583,179.9551583,179.9717481,180.2550021,180.2550021,180.2550021,,180.2892986,z,180.2896963,180.3053099,181.3057274,181.289581,0.3235339,None,,,,,,,,,,,,,,,,,,,,,,,,,,,,,,,,,,,,,,,,,,,,,,,,,,,,,,,,,,,,,,,,,,,,,,,,,,,,A_1_,1,2024-11-27_10h02.43.291,untitled,2024.1.5,None,2024-11-27 10h02.59.235206 +0530
square.png,you,0,Z,,,,,,,,,14,1,57,2,,,,,,,,,181.3057274,,,,,,,,,,,,,,,,,,,,,,,,,,,,,,,,,,,,,,,,,,,,,,,,,,,,,,,,,,,,181.2899981,181.3057274,181.789549,181.789549,181.789549,181.789549,181.805773,182.0893664,182.0893664,182.0893664,182.8897481,182.8737084,None,182.8739022,182.8897481,183.8900258,183.8737059,,,,,,,,,,,,,,,,,,,,,,,,,,,,,,,,,,,,,,,,,,,,,,,,,,,,,,,,,,,,,,,,,,,,,,,,,,,,,,A_1_,1,2024-11-27_10h02.43.291,untitled,2024.1.5,None,2024-11-27 10h02.59.235206 +0530
triangle.png,stranger,0,Z,,,,,,,,,14,2,58,3,,,,,,,,,183.8900258,,,,,,,,,,,,,,,,,,,,,,,,,,,,,,,,,,,,,,,,,,,,,,,,,,,,,,,,,,,,183.8740655,183.8900258,184.3904252,184.3904252,184.3904252,184.3904252,184.3904252,,,,,184.6247327,m,184.6251426,184.6404368,185.6411195,185.6251796,0.231744,None,,,,,,,,,,,,,,,,,,,,,,,,,,,,,,,,,,,,,,,,,,,,,,,,,,,,,,,,,,,,,,,,,,,,,,,,,,,,A_1_,1,2024-11-27_10h02.43.291,untitled,2024.1.5,None,2024-11-27 10h02.59.235206 +0530
triangle.png,you,1,M,,,,,,,,,14,3,59,1,,,,,,,,,185.6411195,,,,,,,,,,,,,,,,,,,,,,,,,,,,,,,,,,,,,,,,,,,,,,,,,,,,,,,,,,,,185.6255281,185.6411195,186.1250895,186.1250895,186.1250895,186.1250895,186.1412809,186.4251014,186.4251014,186.4251014,,186.4258903,z,186.4262865,186.4416664,187.4421561,187.4257621,0.2936957,None,,,,,,,,,,,,,,,,,,,,,,,,,,,,,,,,,,,,,,,,,,,,,,,,,,,,,,,,,,,,,,,,,,,,,,,,,,,,A_1_,1,2024-11-27_10h02.43.291,untitled,2024.1.5,None,2024-11-27 10h02.59.235206 +0530
triangle.png,stranger,0,Z,,,,,,,,,15,0,60,3,,,,,,,,,187.4421561,,,,,,,,,,,,,,,,,,,,,,,,,,,,,,,,,,,,,,,,,,,,,,,,,,,,,,,,,,,,187.426115,187.4421561,187.9259255,187.9259255,187.9259255,187.9259255,187.942316,188.2257813,188.2257813,188.2257813,,188.2767574,m,188.2771582,188.2930245,189.2931295,189.2770399,0.3485402,None,,,,,,,,,,,,,,,,,,,,,,,,,,,,,,,,,,,,,,,,,,,,,,,,,,,,,,,,,,,,,,,,,,,,,,,,,,,,A_1_,1,2024-11-27_10h02.43.291,untitled,2024.1.5,None,2024-11-27 10h02.59.235206 +0530
square.png,you,0,Z,,,,,,,,,15,1,61,2,,,,,,,,,189.2931295,,,,,,,,,,,,,,,,,,,,,,,,,,,,,,,,,,,,,,,,,,,,,,,,,,,,,,,,,,,,189.2773911,189.2931295,189.7769319,189.7769319,189.7769319,189.7769319,189.7933465,190.0769438,190.0769438,190.0769438,,190.1609183,z,190.1613193,190.1770023,191.1773783,191.1611554,0.3773444,None,,,,,,,,,,,,,,,,,,,,,,,,,,,,,,,,,,,,,,,,,,,,,,,,,,,,,,,,,,,,,,,,,,,,,,,,,,,,A_1_,1,2024-11-27_10h02.43.291,untitled,2024.1.5,None,2024-11-27 10h02.59.235206 +0530
square.png,stranger,1,M,,,,,,,,,15,2,62,0,,,,,,,,,191.1773783,,,,,,,,,,,,,,,,,,,,,,,,,,,,,,,,,,,,,,,,,,,,,,,,,,,,,,,,,,,,191.1615055,191.1773783,191.6610912,191.6610912,191.6610912,191.6610912,191.677744,191.9612733,191.9612733,191.9612733,192.7616755,192.7452088,None,192.7453996,192.7616755,193.7622728,193.7458215,,,,,,,,,,,,,,,,,,,,,,,,,,,,,,,,,,,,,,,,,,,,,,,,,,,,,,,,,,,,,,,,,,,,,,,,,,,,,,A_1_,1,2024-11-27_10h02.43.291,untitled,2024.1.5,None,2024-11-27 10h02.59.235206 +0530
triangle.png,you,1,M,,,,,,,,,15,3,63,1,,,,,,,,,193.7622728,,,,,,,,,,,,,,,,,,,,,,,,,,,,,,,,,,,,,,,,,,,,,,,,,,,,,,,,,,,,193.7461708,193.7622728,194.2623894,194.2623894,194.2623894,194.2623894,194.2623894,194.5623646,194.5623646,194.5623646,,194.5799397,z,194.5803434,194.5958818,195.5965538,195.5800597,0.3124335,None,,,,,,,,,,,,,,,,,,,,,,,,,,,,,,,,,,,,,,,,,,,,,,,,,,,,,,,,,,,,,,,,,,,,,,,,,,,,A_1_,1,2024-11-27_10h02.43.291,untitled,2024.1.5,None,2024-11-27 10h02.59.235206 +0530
square.png,you,0,Z,,,,,,,,,16,0,64,2,,,,,,,,,195.5965538,,,,,,,,,,,,,,,,,,,,,,,,,,,,,,,,,,,,,,,,,,,,,,,,,,,,,,,,,,,,195.5804089,195.5965538,196.0802412,196.0802412,196.0802412,196.0802412,196.0968342,196.3801803,196.3801803,196.3801803,,196.547616,m,196.5480331,196.5636193,197.5641337,197.5479531,0.4660579,None,,,,,,,,,,,,,,,,,,,,,,,,,,,,,,,,,,,,,,,,,,,,,,,,,,,,,,,,,,,,,,,,,,,,,,,,,,,,A_1_,1,2024-11-27_10h02.43.291,untitled,2024.1.5,None,2024-11-27 10h02.59.235206 +0530
square.png,stranger,1,M,,,,,,,,,16,1,65,0,,,,,,,,,197.5641337,,,,,,,,,,,,,,,,,,,,,,,,,,,,,,,,,,,,,,,,,,,,,,,,,,,,,,,,,,,,197.548304,197.5641337,198.0478377,198.0478377,198.0478377,198.0478377,198.0645405,198.3477986,198.3477986,198.3477986,199.1481556,199.1318503,None,199.132039,199.1481556,200.1486525,200.132549,,,,,,,,,,,,,,,,,,,,,,,,,,,,,,,,,,,,,,,,,,,,,,,,,,,,,,,,,,,,,,,,,,,,,,,,,,,,,,A_1_,1,2024-11-27_10h02.43.291,untitled,2024.1.5,None,2024-11-27 10h02.59.235206 +0530
triangle.png,you,1,M,,,,,,,,,16,2,66,1,,,,,,,,,200.1486525,,,,,,,,,,,,,,,,,,,,,,,,,,,,,,,,,,,,,,,,,,,,,,,,,,,,,,,,,,,,200.1329023,200.1486525,200.6490073,200.6490073,200.6490073,200.6490073,200.6490073,200.9491705,200.9491705,200.9491705,,200.933256,m,200.9336529,200.9491705,201.9498401,201.9335871,0.2692584,None,,,,,,,,,,,,,,,,,,,,,,,,,,,,,,,,,,,,,,,,,,,,,,,,,,,,,,,,,,,,,,,,,,,,,,,,,,,,A_1_,1,2024-11-27_10h02.43.291,untitled,2024.1.5,None,2024-11-27 10h02.59.235206 +0530
triangle.png,stranger,0,Z,,,,,,,,,16,3,67,3,,,,,,,,,201.9498401,,,,,,,,,,,,,,,,,,,,,,,,,,,,,,,,,,,,,,,,,,,,,,,,,,,,,,,,,,,,201.933939,201.9498401,202.4336974,202.4336974,202.4336974,202.4336974,202.4499856,202.7333282,202.7333282,202.7333282,203.5336864,203.5174216,None,203.5176409,203.5336864,204.5340956,204.5180103,,,,,,,,,,,,,,,,,,,,,,,,,,,,,,,,,,,,,,,,,,,,,,,,,,,,,,,,,,,,,,,,,,,,,,,,,,,,,,A_1_,1,2024-11-27_10h02.43.291,untitled,2024.1.5,None,2024-11-27 10h02.59.235206 +0530
square.png,stranger,1,M,,,,,,,,,17,0,68,0,,,,,,,,,204.5340956,,,,,,,,,,,,,,,,,,,,,,,,,,,,,,,,,,,,,,,,,,,,,,,,,,,,,,,,,,,,204.5183673,204.5340956,205.0348288,205.0348288,205.0348288,205.0348288,205.0348288,205.3346688,205.3346688,205.3346688,206.135124,206.1187966,None,206.1189866,206.135124,207.1356066,207.1195657,,,,,,,,,,,,,,,,,,,,,,,,,,,,,,,,,,,,,,,,,,,,,,,,,,,,,,,,,,,,,,,,,,,,,,,,,,,,,,A_1_,1,2024-11-27_10h02.43.291,untitled,2024.1.5,None,2024-11-27 10h02.59.235206 +0530
triangle.png,stranger,0,Z,,,,,,,,,17,1,69,3,,,,,,,,,207.1356066,,,,,,,,,,,,,,,,,,,,,,,,,,,,,,,,,,,,,,,,,,,,,,,,,,,,,,,,,,,,207.1199196,207.1356066,207.6359849,207.6359849,207.6359849,207.6359849,207.6359849,,,,,207.8702918,m,207.8706975,207.8859842,208.8864323,208.8702506,0.2296659,None,,,,,,,,,,,,,,,,,,,,,,,,,,,,,,,,,,,,,,,,,,,,,,,,,,,,,,,,,,,,,,,,,,,,,,,,,,,,A_1_,1,2024-11-27_10h02.43.291,untitled,2024.1.5,None,2024-11-27 10h02.59.235206 +0530
square.png,you,0,Z,,,,,,,,,17,2,70,2,,,,,,,,,208.8864323,,,,,,,,,,,,,,,,,,,,,,,,,,,,,,,,,,,,,,,,,,,,,,,,,,,,,,,,,,,,208.8705981,208.8864323,209.3701586,209.3701586,209.3701586,209.3701586,209.3867475,209.670163,209.670163,209.670163,,209.8378984,m,209.8383014,209.8539087,210.8542141,210.8381679,0.4566291,None,,,,,,,,,,,,,,,,,,,,,,,,,,,,,,,,,,,,,,,,,,,,,,,,,,,,,,,,,,,,,,,,,,,,,,,,,,,,A_1_,1,2024-11-27_10h02.43.291,untitled,2024.1.5,None,2024-11-27 10h02.59.235206 +0530
triangle.png,you,1,M,,,,,,,,,17,3,71,1,,,,,,,,,210.8542141,,,,,,,,,,,,,,,,,,,,,,,,,,,,,,,,,,,,,,,,,,,,,,,,,,,,,,,,,,,,210.8385222,210.8542141,211.3378923,211.3378923,211.3378923,211.3378923,211.3544631,211.6379824,211.6379824,211.6379824,,211.6885835,z,211.6889941,211.7047079,212.7051247,212.6890654,0.3369113,None,,,,,,,,,,,,,,,,,,,,,,,,,,,,,,,,,,,,,,,,,,,,,,,,,,,,,,,,,,,,,,,,,,,,,,,,,,,,A_1_,1,2024-11-27_10h02.43.291,untitled,2024.1.5,None,2024-11-27 10h02.59.235206 +0530
square.png,stranger,1,M,,,,,,,,,18,0,72,0,,,,,,,,,212.7051247,,,,,,,,,,,,,,,,,,,,,,,,,,,,,,,,,,,,,,,,,,,,,,,,,,,,,,,,,,,,212.6894166,212.7051247,213.1890277,213.1890277,213.1890277,213.1890277,213.2053889,213.4888096,213.4888096,213.4888096,,213.7736562,z,213.7741089,213.7889865,214.7896958,214.7735628,0.5820778,None,,,,,,,,,,,,,,,,,,,,,,,,,,,,,,,,,,,,,,,,,,,,,,,,,,,,,,,,,,,,,,,,,,,,,,,,,,,,A_1_,1,2024-11-27_10h02.43.291,untitled,2024.1.5,None,2024-11-27 10h02.59.235206 +0530
triangle.png,you,1,M,,,,,,,,,18,1,73,1,,,,,,,,,214.7896958,,,,,,,,,,,,,,,,,,,,,,,,,,,,,,,,,,,,,,,,,,,,,,,,,,,,,,,,,,,,214.7739209,214.7896958,215.2898442,215.2898442,215.2898442,215.2898442,215.2898442,215.5900849,215.5900849,215.5900849,,215.7909107,z,215.791319,215.8066793,216.8071893,216.7912358,0.4970664,None,,,,,,,,,,,,,,,,,,,,,,,,,,,,,,,,,,,,,,,,,,,,,,,,,,,,,,,,,,,,,,,,,,,,,,,,,,,,A_1_,1,2024-11-27_10h02.43.291,untitled,2024.1.5,None,2024-11-27 10h02.59.235206 +0530
square.png,you,0,Z,,,,,,,,,18,2,74,2,,,,,,,,,216.8071893,,,,,,,,,,,,,,,,,,,,,,,,,,,,,,,,,,,,,,,,,,,,,,,,,,,,,,,,,,,,216.791586,216.8071893,217.2909228,217.2909228,217.2909228,217.2909228,217.3077219,217.5910522,217.5910522,217.5910522,,217.5751847,z,217.5755864,217.5910522,218.5916432,218.575259,0.2715644,None,,,,,,,,,,,,,,,,,,,,,,,,,,,,,,,,,,,,,,,,,,,,,,,,,,,,,,,,,,,,,,,,,,,,,,,,,,,,A_1_,1,2024-11-27_10h02.43.291,untitled,2024.1.5,None,2024-11-27 10h02.59.235206 +0530
triangle.png,stranger,0,Z,,,,,,,,,18,3,75,3,,,,,,,,,218.5916432,,,,,,,,,,,,,,,,,,,,,,,,,,,,,,,,,,,,,,,,,,,,,,,,,,,,,,,,,,,,218.5756109,218.5916432,219.0755085,219.0755085,219.0755085,219.0755085,219.0921017,219.3753592,219.3753592,219.3753592,,219.3594065,z,219.3598143,219.3753592,220.3758392,220.3593994,0.2703379,None,,,,,,,,,,,,,,,,,,,,,,,,,,,,,,,,,,,,,,,,,,,,,,,,,,,,,,,,,,,,,,,,,,,,,,,,,,,,A_1_,1,2024-11-27_10h02.43.291,untitled,2024.1.5,None,2024-11-27 10h02.59.235206 +0530
triangle.png,you,1,M,,,,,,,,,19,0,76,1,,,,,,,,,220.3758392,,,,,,,,,,,,,,,,,,,,,,,,,,,,,,,,,,,,,,,,,,,,,,,,,,,,,,,,,,,,220.3597466,220.3758392,220.8596548,220.8596548,220.8596548,220.8596548,220.8761619,221.1595234,221.1595234,221.1595234,,221.143817,z,221.1442129,221.1595234,222.1601289,222.1438864,0.2817968,None,,,,,,,,,,,,,,,,,,,,,,,,,,,,,,,,,,,,,,,,,,,,,,,,,,,,,,,,,,,,,,,,,,,,,,,,,,,,A_1_,1,2024-11-27_10h02.43.291,untitled,2024.1.5,None,2024-11-27 10h02.59.235206 +0530
triangle.png,stranger,0,Z,,,,,,,,,19,1,77,3,,,,,,,,,222.1601289,,,,,,,,,,,,,,,,,,,,,,,,,,,,,,,,,,,,,,,,,,,,,,,,,,,,,,,,,,,,222.1442324,222.1601289,222.6435722,222.6435722,222.6435722,222.6435722,222.6604682,222.9439473,222.9439473,222.9439473,,222.9446556,z,222.945052,222.9602931,223.9609138,223.9446355,0.2861137,None,,,,,,,,,,,,,,,,,,,,,,,,,,,,,,,,,,,,,,,,,,,,,,,,,,,,,,,,,,,,,,,,,,,,,,,,,,,,A_1_,1,2024-11-27_10h02.43.291,untitled,2024.1.5,None,2024-11-27 10h02.59.235206 +0530
square.png,you,0,Z,,,,,,,,,19,2,78,2,,,,,,,,,223.9609138,,,,,,,,,,,,,,,,,,,,,,,,,,,,,,,,,,,,,,,,,,,,,,,,,,,,,,,,,,,,223.944991,223.9609138,224.4447794,224.4447794,224.4447794,224.4447794,224.4613247,224.7445568,224.7445568,224.7445568,,224.8955394,m,224.8959509,224.9113272,225.9119364,225.8956838,0.4381978,None,,,,,,,,,,,,,,,,,,,,,,,,,,,,,,,,,,,,,,,,,,,,,,,,,,,,,,,,,,,,,,,,,,,,,,,,,,,,A_1_,1,2024-11-27_10h02.43.291,untitled,2024.1.5,None,2024-11-27 10h02.59.235206 +0530
square.png,stranger,1,M,,,,,,,,,19,3,79,0,,,,,,,,,225.9119364,,,,,,,,,,,,,,,,,,,,,,,,,,,,,,,,,,,,,,,,,,,,,,,,,,,,,,,,,,,,225.8960433,225.9119364,226.3958431,226.3958431,226.3958431,226.3958431,226.4124197,,,,,226.6464895,z,226.6468984,226.6624588,227.6627666,227.6467754,0.2379013,None,,,,,,,,,,,,,,,,,,,,,,,,,,,,,,,,,,,,,,,,,,,,,,,,,,,,,,,,,,,,,,,,,,,,,,,,,,,,A_1_,1,2024-11-27_10h02.43.291,untitled,2024.1.5,None,2024-11-27 10h02.59.235206 +0530
square.png,stranger,1,M,,,,,,,,,20,0,80,0,,,,,,,,,227.6627666,,,,,,,,,,,,,,,,,,,,,,,,,,,,,,,,,,,,,,,,,,,,,,,,,,,,,,,,,,,,227.6471216,227.6627666,228.1467441,228.1467441,228.1467441,228.1467441,228.1630561,228.4465369,228.4465369,228.4465369,,228.4640708,m,228.4644648,228.4801062,229.4805573,229.4642752,0.3038585,None,,,,,,,,,,,,,,,,,,,,,,,,,,,,,,,,,,,,,,,,,,,,,,,,,,,,,,,,,,,,,,,,,,,,,,,,,,,,A_1_,1,2024-11-27_10h02.43.291,untitled,2024.1.5,None,2024-11-27 10h02.59.235206 +0530
square.png,you,0,Z,,,,,,,,,20,1,81,2,,,,,,,,,229.4805573,,,,,,,,,,,,,,,,,,,,,,,,,,,,,,,,,,,,,,,,,,,,,,,,,,,,,,,,,,,,229.464628,229.4805573,229.9641735,229.9641735,229.9641735,229.9641735,229.980643,230.2641062,230.2641062,230.2641062,,230.2483197,m,230.2487364,230.2641062,231.2648087,231.248442,0.2825317,None,,,,,,,,,,,,,,,,,,,,,,,,,,,,,,,,,,,,,,,,,,,,,,,,,,,,,,,,,,,,,,,,,,,,,,,,,,,,A_1_,1,2024-11-27_10h02.43.291,untitled,2024.1.5,None,2024-11-27 10h02.59.235206 +0530
triangle.png,you,1,M,,,,,,,,,20,2,82,1,,,,,,,,,231.2648087,,,,,,,,,,,,,,,,,,,,,,,,,,,,,,,,,,,,,,,,,,,,,,,,,,,,,,,,,,,,231.2487936,231.2648087,231.7482574,231.7482574,231.7482574,231.7482574,231.7650135,232.0485327,232.0485327,232.0485327,,232.1826731,z,232.183073,232.1986098,233.1989166,233.1826139,0.4228219,None,,,,,,,,,,,,,,,,,,,,,,,,,,,,,,,,,,,,,,,,,,,,,,,,,,,,,,,,,,,,,,,,,,,,,,,,,,,,A_1_,1,2024-11-27_10h02.43.291,untitled,2024.1.5,None,2024-11-27 10h02.59.235206 +0530
triangle.png,stranger,0,Z,,,,,,,,,20,3,83,3,,,,,,,,,233.1989166,,,,,,,,,,,,,,,,,,,,,,,,,,,,,,,,,,,,,,,,,,,,,,,,,,,,,,,,,,,,233.1829596,233.1989166,233.6828467,233.6828467,233.6828467,233.6828467,233.6992812,233.9828359,233.9828359,233.9828359,,234.06702,m,234.0674238,234.0828805,235.0834413,235.0670467,0.3681763,None,,,,,,,,,,,,,,,,,,,,,,,,,,,,,,,,,,,,,,,,,,,,,,,,,,,,,,,,,,,,,,,,,,,,,,,,,,,,A_1_,1,2024-11-27_10h02.43.291,untitled,2024.1.5,None,2024-11-27 10h02.59.235206 +0530
square.png,you,0,Z,,,,,,,,,21,0,84,2,,,,,,,,,235.0834413,,,,,,,,,,,,,,,,,,,,,,,,,,,,,,,,,,,,,,,,,,,,,,,,,,,,,,,,,,,,235.0673954,235.0834413,235.5671329,235.5671329,235.5671329,235.5671329,235.5836883,235.8672217,235.8672217,235.8672217,,235.9345722,z,235.9349743,235.9502339,236.9511515,236.9346239,0.3631819,None,,,,,,,,,,,,,,,,,,,,,,,,,,,,,,,,,,,,,,,,,,,,,,,,,,,,,,,,,,,,,,,,,,,,,,,,,,,,A_1_,1,2024-11-27_10h02.43.291,untitled,2024.1.5,None,2024-11-27 10h02.59.235206 +0530
triangle.png,stranger,0,Z,,,,,,,,,21,1,85,3,,,,,,,,,236.9511515,,,,,,,,,,,,,,,,,,,,,,,,,,,,,,,,,,,,,,,,,,,,,,,,,,,,,,,,,,,,236.9349705,236.9511515,237.4348184,237.4348184,237.4348184,237.4348184,237.4511307,237.7345591,237.7345591,237.7345591,,237.7521587,m,237.7525561,237.768025,238.7684622,238.7523212,0.3030086,None,,,,,,,,,,,,,,,,,,,,,,,,,,,,,,,,,,,,,,,,,,,,,,,,,,,,,,,,,,,,,,,,,,,,,,,,,,,,A_1_,1,2024-11-27_10h02.43.291,untitled,2024.1.5,None,2024-11-27 10h02.59.235206 +0530
triangle.png,you,1,M,,,,,,,,,21,2,86,1,,,,,,,,,238.7684622,,,,,,,,,,,,,,,,,,,,,,,,,,,,,,,,,,,,,,,,,,,,,,,,,,,,,,,,,,,,238.7526679,238.7684622,239.2522365,239.2522365,239.2522365,239.2522365,239.268977,239.5521704,239.5521704,239.5521704,,239.5365073,z,239.5369029,239.5521704,240.5529506,240.5367039,0.2700071,None,,,,,,,,,,,,,,,,,,,,,,,,,,,,,,,,,,,,,,,,,,,,,,,,,,,,,,,,,,,,,,,,,,,,,,,,,,,,A_1_,1,2024-11-27_10h02.43.291,untitled,2024.1.5,None,2024-11-27 10h02.59.235206 +0530
square.png,stranger,1,M,,,,,,,,,21,3,87,0,,,,,,,,,240.5529506,,,,,,,,,,,,,,,,,,,,,,,,,,,,,,,,,,,,,,,,,,,,,,,,,,,,,,,,,,,,240.5370557,240.5529506,241.0364626,241.0364626,241.0364626,241.0364626,241.0529962,,,,,241.3042098,m,241.3046218,241.3199102,242.3206161,242.3041551,0.2609878,None,,,,,,,,,,,,,,,,,,,,,,,,,,,,,,,,,,,,,,,,,,,,,,,,,,,,,,,,,,,,,,,,,,,,,,,,,,,,A_1_,1,2024-11-27_10h02.43.291,untitled,2024.1.5,None,2024-11-27 10h02.59.235206 +0530
square.png,you,0,Z,,,,,,,,,22,0,88,2,,,,,,,,,242.3206161,,,,,,,,,,,,,,,,,,,,,,,,,,,,,,,,,,,,,,,,,,,,,,,,,,,,,,,,,,,,242.3045125,242.3206161,242.8041878,242.8041878,242.8041878,242.8041878,242.8207473,243.1040803,243.1040803,243.1040803,,243.1382801,m,243.1386822,243.1542515,244.1547587,244.1384311,0.317597,None,,,,,,,,,,,,,,,,,,,,,,,,,,,,,,,,,,,,,,,,,,,,,,,,,,,,,,,,,,,,,,,,,,,,,,,,,,,,A_1_,1,2024-11-27_10h02.43.291,untitled,2024.1.5,None,2024-11-27 10h02.59.235206 +0530
square.png,stranger,1,M,,,,,,,,,22,1,89,0,,,,,,,,,244.1547587,,,,,,,,,,,,,,,,,,,,,,,,,,,,,,,,,,,,,,,,,,,,,,,,,,,,,,,,,,,,244.1387788,244.1547587,244.6382706,244.6382706,244.6382706,244.6382706,244.6551055,244.9385299,244.9385299,244.9385299,,245.0393426,z,245.0397418,245.055089,246.0557038,246.0394531,0.3965902,None,,,,,,,,,,,,,,,,,,,,,,,,,,,,,,,,,,,,,,,,,,,,,,,,,,,,,,,,,,,,,,,,,,,,,,,,,,,,A_1_,1,2024-11-27_10h02.43.291,untitled,2024.1.5,None,2024-11-27 10h02.59.235206 +0530
triangle.png,stranger,0,Z,,,,,,,,,22,2,90,3,,,,,,,,,246.0557038,,,,,,,,,,,,,,,,,,,,,,,,,,,,,,,,,,,,,,,,,,,,,,,,,,,,,,,,,,,,246.0398022,246.0557038,246.5393921,246.5393921,246.5393921,246.5393921,246.5561037,246.8394548,246.8394548,246.8394548,,246.9401588,m,246.9405804,246.9561741,247.9567135,247.9402449,0.3995228,None,,,,,,,,,,,,,,,,,,,,,,,,,,,,,,,,,,,,,,,,,,,,,,,,,,,,,,,,,,,,,,,,,,,,,,,,,,,,A_1_,1,2024-11-27_10h02.43.291,untitled,2024.1.5,None,2024-11-27 10h02.59.235206 +0530
triangle.png,you,1,M,,,,,,,,,22,3,91,1,,,,,,,,,247.9567135,,,,,,,,,,,,,,,,,,,,,,,,,,,,,,,,,,,,,,,,,,,,,,,,,,,,,,,,,,,,247.9405923,247.9567135,248.4403262,248.4403262,248.4403262,248.4403262,248.4568638,248.7403739,248.7403739,248.7403739,,248.7742371,z,248.7746801,248.7904317,249.7907532,249.7744395,0.3188809,None,,,,,,,,,,,,,,,,,,,,,,,,,,,,,,,,,,,,,,,,,,,,,,,,,,,,,,,,,,,,,,,,,,,,,,,,,,,,A_1_,1,2024-11-27_10h02.43.291,untitled,2024.1.5,None,2024-11-27 10h02.59.235206 +0530
square.png,stranger,1,M,,,,,,,,,23,0,92,0,,,,,,,,,249.7907532,,,,,,,,,,,,,,,,,,,,,,,,,,,,,,,,,,,,,,,,,,,,,,,,,,,,,,,,,,,,249.7747996,249.7907532,250.2747376,250.2747376,250.2747376,250.2747376,250.2911177,250.5747413,250.5747413,250.5747413,,251.1756704,z,251.176073,251.1914689,252.1921241,252.1757688,0.8884452,None,,,,,,,,,,,,,,,,,,,,,,,,,,,,,,,,,,,,,,,,,,,,,,,,,,,,,,,,,,,,,,,,,,,,,,,,,,,,A_1_,1,2024-11-27_10h02.43.291,untitled,2024.1.5,None,2024-11-27 10h02.59.235206 +0530
square.png,you,0,Z,,,,,,,,,23,1,93,2,,,,,,,,,252.1921241,,,,,,,,,,,,,,,,,,,,,,,,,,,,,,,,,,,,,,,,,,,,,,,,,,,,,,,,,,,,252.1761166,252.1921241,252.6760583,252.6760583,252.6760583,252.6760583,252.6924267,252.9757261,252.9757261,252.9757261,,253.643476,m,253.6438956,253.6597469,254.6600894,254.6439564,0.9630788,None,,,,,,,,,,,,,,,,,,,,,,,,,,,,,,,,,,,,,,,,,,,,,,,,,,,,,,,,,,,,,,,,,,,,,,,,,,,,A_1_,1,2024-11-27_10h02.43.291,untitled,2024.1.5,None,2024-11-27 10h02.59.235206 +0530
triangle.png,stranger,0,Z,,,,,,,,,23,2,94,3,,,,,,,,,254.6600894,,,,,,,,,,,,,,,,,,,,,,,,,,,,,,,,,,,,,,,,,,,,,,,,,,,,,,,,,,,,254.6443031,254.6600894,255.1439403,255.1439403,255.1439403,255.1439403,255.1602788,255.4436793,255.4436793,255.4436793,,255.7279491,z,255.7283614,255.7438808,256.7445307,256.7282186,0.5824714,None,,,,,,,,,,,,,,,,,,,,,,,,,,,,,,,,,,,,,,,,,,,,,,,,,,,,,,,,,,,,,,,,,,,,,,,,,,,,A_1_,1,2024-11-27_10h02.43.291,untitled,2024.1.5,None,2024-11-27 10h02.59.235206 +0530
triangle.png,you,1,M,,,,,,,,,23,3,95,1,,,,,,,,,256.7445307,,,,,,,,,,,,,,,,,,,,,,,,,,,,,,,,,,,,,,,,,,,,,,,,,,,,,,,,,,,,256.7285756,256.7445307,257.2283089,257.2283089,257.2283089,257.2283089,257.2447097,257.5280361,257.5280361,257.5280361,,257.5957252,m,257.5961206,257.6117425,258.6122928,258.5959283,0.3661216,None,,,,,,,,,,,,,,,,,,,,,,,,,,,,,,,,,,,,,,,,,,,,,,,,,,,,,,,,,,,,,,,,,,,,,,,,,,,,A_1_,1,2024-11-27_10h02.43.291,untitled,2024.1.5,None,2024-11-27 10h02.59.235206 +0530
triangle.png,you,1,M,,,,,,,,,24,0,96,1,,,,,,,,,258.6122928,,,,,,,,,,,,,,,,,,,,,,,,,,,,,,,,,,,,,,,,,,,,,,,,,,,,,,,,,,,,258.5962742,258.6122928,259.0957138,259.0957138,259.0957138,259.0957138,259.1124869,259.3957803,259.3957803,259.3957803,,259.5799506,z,259.5803499,259.5958897,260.596729,260.5800787,0.4786589,None,,,,,,,,,,,,,,,,,,,,,,,,,,,,,,,,,,,,,,,,,,,,,,,,,,,,,,,,,,,,,,,,,,,,,,,,,,,,A_1_,1,2024-11-27_10h02.43.291,untitled,2024.1.5,None,2024-11-27 10h02.59.235206 +0530
triangle.png,stranger,0,Z,,,,,,,,,24,1,97,3,,,,,,,,,260.596729,,,,,,,,,,,,,,,,,,,,,,,,,,,,,,,,,,,,,,,,,,,,,,,,,,,,,,,,,,,,260.5804283,260.596729,261.0800498,261.0800498,261.0800498,261.0800498,261.0969078,261.380209,261.380209,261.380209,,261.4143029,m,261.4147027,261.4304564,262.430739,262.4145732,0.3229089,None,,,,,,,,,,,,,,,,,,,,,,,,,,,,,,,,,,,,,,,,,,,,,,,,,,,,,,,,,,,,,,,,,,,,,,,,,,,,A_1_,1,2024-11-27_10h02.43.291,untitled,2024.1.5,None,2024-11-27 10h02.59.235206 +0530
square.png,you,0,Z,,,,,,,,,24,2,98,2,,,,,,,,,262.430739,,,,,,,,,,,,,,,,,,,,,,,,,,,,,,,,,,,,,,,,,,,,,,,,,,,,,,,,,,,,262.414924,262.430739,262.9145451,262.9145451,262.9145451,262.9145451,262.9312165,263.2145907,263.2145907,263.2145907,,263.2318229,z,263.2322268,263.2478139,264.2483039,264.2324069,0.3077058,None,,,,,,,,,,,,,,,,,,,,,,,,,,,,,,,,,,,,,,,,,,,,,,,,,,,,,,,,,,,,,,,,,,,,,,,,,,,,A_1_,1,2024-11-27_10h02.43.291,untitled,2024.1.5,None,2024-11-27 10h02.59.235206 +0530
square.png,stranger,1,M,,,,,,,,,24,3,99,0,,,,,,,,,264.2483039,,,,,,,,,,,,,,,,,,,,,,,,,,,,,,,,,,,,,,,,,,,,,,,,,,,,,,,,,,,,264.2327548,264.2483039,264.7319887,264.7319887,264.7319887,264.7319887,264.7486525,265.0319435,265.0319435,265.0319435,,265.0829092,z,265.0833088,265.0989532,266.0992799,266.0830023,0.3453988,None,,,,,,,,,,,,,,,,,,,,,,,,,,,,,,,,,,,,,,,,,,,,,,,,,,,,,,,,,,,,,,,,,,,,,,,,,,,,A_1_,1,2024-11-27_10h02.43.291,untitled,2024.1.5,None,2024-11-27 10h02.59.235206 +0530
square.png,stranger,1,M,,,,,,,,,25,0,100,0,,,,,,,,,266.0992799,,,,,,,,,,,,,,,,,,,,,,,,,,,,,,,,,,,,,,,,,,,,,,,,,,,,,,,,,,,,266.0833499,266.0992799,266.58319,266.58319,266.58319,266.58319,266.5993397,266.882777,266.882777,266.882777,,266.9169133,m,266.9173174,266.9329534,267.9333199,267.9171666,0.323118,None,,,,,,,,,,,,,,,,,,,,,,,,,,,,,,,,,,,,,,,,,,,,,,,,,,,,,,,,,,,,,,,,,,,,,,,,,,,,A_1_,1,2024-11-27_10h02.43.291,untitled,2024.1.5,None,2024-11-27 10h02.59.235206 +0530
triangle.png,you,1,M,,,,,,,,,25,1,101,1,,,,,,,,,267.9333199,,,,,,,,,,,,,,,,,,,,,,,,,,,,,,,,,,,,,,,,,,,,,,,,,,,,,,,,,,,,267.9175201,267.9333199,268.4173372,268.4173372,268.4173372,268.4173372,268.4338908,268.7171548,268.7171548,268.7171548,,268.7512647,m,268.7516659,268.7674137,269.7678149,269.7517751,0.3282421,None,,,,,,,,,,,,,,,,,,,,,,,,,,,,,,,,,,,,,,,,,,,,,,,,,,,,,,,,,,,,,,,,,,,,,,,,,,,,A_1_,1,2024-11-27_10h02.43.291,untitled,2024.1.5,None,2024-11-27 10h02.59.235206 +0530
triangle.png,stranger,0,Z,,,,,,,,,25,2,102,3,,,,,,,,,269.7678149,,,,,,,,,,,,,,,,,,,,,,,,,,,,,,,,,,,,,,,,,,,,,,,,,,,,,,,,,,,,269.7521339,269.7678149,270.2517022,270.2517022,270.2517022,270.2517022,270.2683076,270.5515357,270.5515357,270.5515357,,270.6189791,m,270.6193786,270.6350904,271.635625,271.619206,0.35199,None,,,,,,,,,,,,,,,,,,,,,,,,,,,,,,,,,,,,,,,,,,,,,,,,,,,,,,,,,,,,,,,,,,,,,,,,,,,,A_1_,1,2024-11-27_10h02.43.291,untitled,2024.1.5,None,2024-11-27 10h02.59.235206 +0530
square.png,you,0,Z,,,,,,,,,25,3,103,2,,,,,,,,,271.635625,,,,,,,,,,,,,,,,,,,,,,,,,,,,,,,,,,,,,,,,,,,,,,,,,,,,,,,,,,,,271.6195543,271.635625,272.1193453,272.1193453,272.1193453,272.1193453,272.1356675,272.4190466,272.4190466,272.4190466,,272.5866783,z,272.5870776,272.6026559,273.603187,273.5867956,0.4598365,None,,,,,,,,,,,,,,,,,,,,,,,,,,,,,,,,,,,,,,,,,,,,,,,,,,,,,,,,,,,,,,,,,,,,,,,,,,,,A_1_,1,2024-11-27_10h02.43.291,untitled,2024.1.5,None,2024-11-27 10h02.59.235206 +0530
triangle.png,stranger,0,Z,,,,,,,,,26,0,104,3,,,,,,,,,273.603187,,,,,,,,,,,,,,,,,,,,,,,,,,,,,,,,,,,,,,,,,,,,,,,,,,,,,,,,,,,,273.5871433,273.603187,274.0869656,274.0869656,274.0869656,274.0869656,274.1036371,274.3870354,274.3870354,274.3870354,,274.5043171,m,274.5047222,274.5201838,275.5207846,275.5044528,0.4082464,None,,,,,,,,,,,,,,,,,,,,,,,,,,,,,,,,,,,,,,,,,,,,,,,,,,,,,,,,,,,,,,,,,,,,,,,,,,,,A_1_,1,2024-11-27_10h02.43.291,untitled,2024.1.5,None,2024-11-27 10h02.59.235206 +0530
square.png,stranger,1,M,,,,,,,,,26,1,105,0,,,,,,,,,275.5207846,,,,,,,,,,,,,,,,,,,,,,,,,,,,,,,,,,,,,,,,,,,,,,,,,,,,,,,,,,,,275.5048028,275.5207846,276.0043449,276.0043449,276.0043449,276.0043449,276.0210063,276.3045306,276.3045306,276.3045306,,276.3218336,z,276.3222745,276.3380631,277.3384818,277.3222462,0.3051683,None,,,,,,,,,,,,,,,,,,,,,,,,,,,,,,,,,,,,,,,,,,,,,,,,,,,,,,,,,,,,,,,,,,,,,,,,,,,,A_1_,1,2024-11-27_10h02.43.291,untitled,2024.1.5,None,2024-11-27 10h02.59.235206 +0530
triangle.png,you,1,M,,,,,,,,,26,2,106,1,,,,,,,,,277.3384818,,,,,,,,,,,,,,,,,,,,,,,,,,,,,,,,,,,,,,,,,,,,,,,,,,,,,,,,,,,,277.3226017,277.3384818,277.822316,277.822316,277.822316,277.822316,277.8385997,278.1219593,278.1219593,278.1219593,,278.2560503,m,278.2564476,278.2722351,279.2725795,279.256503,0.432437,None,,,,,,,,,,,,,,,,,,,,,,,,,,,,,,,,,,,,,,,,,,,,,,,,,,,,,,,,,,,,,,,,,,,,,,,,,,,,A_1_,1,2024-11-27_10h02.43.291,untitled,2024.1.5,None,2024-11-27 10h02.59.235206 +0530
square.png,you,0,Z,,,,,,,,,26,3,107,2,,,,,,,,,279.2725795,,,,,,,,,,,,,,,,,,,,,,,,,,,,,,,,,,,,,,,,,,,,,,,,,,,,,,,,,,,,279.2568482,279.2725795,279.7563036,279.7563036,279.7563036,279.7563036,279.7727405,280.0562937,280.0562937,280.0562937,,280.2404334,z,280.2408396,280.2566579,281.2569505,281.2407613,0.4744296,None,,,,,,,,,,,,,,,,,,,,,,,,,,,,,,,,,,,,,,,,,,,,,,,,,,,,,,,,,,,,,,,,,,,,,,,,,,,,A_1_,1,2024-11-27_10h02.43.291,untitled,2024.1.5,None,2024-11-27 10h02.59.235206 +0530
triangle.png,stranger,0,Z,,,,,,,,,27,0,108,3,,,,,,,,,281.2569505,,,,,,,,,,,,,,,,,,,,,,,,,,,,,,,,,,,,,,,,,,,,,,,,,,,,,,,,,,,,281.2411161,281.2569505,281.7406309,281.7406309,281.7406309,281.7406309,281.7575778,282.0407548,282.0407548,282.0407548,,282.1080907,m,282.1084897,282.1242978,283.1245871,283.1085474,0.3660807,None,,,,,,,,,,,,,,,,,,,,,,,,,,,,,,,,,,,,,,,,,,,,,,,,,,,,,,,,,,,,,,,,,,,,,,,,,,,,A_1_,1,2024-11-27_10h02.43.291,untitled,2024.1.5,None,2024-11-27 10h02.59.235206 +0530
square.png,stranger,1,M,,,,,,,,,27,1,109,0,,,,,,,,,283.1245871,,,,,,,,,,,,,,,,,,,,,,,,,,,,,,,,,,,,,,,,,,,,,,,,,,,,,,,,,,,,283.108896,283.1245871,283.6084283,283.6084283,283.6084283,283.6084283,283.6251006,283.9084092,283.9084092,283.9084092,,284.0593317,z,284.0597265,284.075099,285.0757587,285.0594396,0.4466406,None,,,,,,,,,,,,,,,,,,,,,,,,,,,,,,,,,,,,,,,,,,,,,,,,,,,,,,,,,,,,,,,,,,,,,,,,,,,,A_1_,1,2024-11-27_10h02.43.291,untitled,2024.1.5,None,2024-11-27 10h02.59.235206 +0530
square.png,you,0,Z,,,,,,,,,27,2,110,2,,,,,,,,,285.0757587,,,,,,,,,,,,,,,,,,,,,,,,,,,,,,,,,,,,,,,,,,,,,,,,,,,,,,,,,,,,285.0597828,285.0757587,285.559437,285.559437,285.559437,285.559437,285.5762391,285.8594521,285.8594521,285.8594521,,285.9099802,m,285.910388,285.926239,286.9266676,286.910179,0.3388386,None,,,,,,,,,,,,,,,,,,,,,,,,,,,,,,,,,,,,,,,,,,,,,,,,,,,,,,,,,,,,,,,,,,,,,,,,,,,,A_1_,1,2024-11-27_10h02.43.291,untitled,2024.1.5,None,2024-11-27 10h02.59.235206 +0530
triangle.png,you,1,M,,,,,,,,,27,3,111,1,,,,,,,,,286.9266676,,,,,,,,,,,,,,,,,,,,,,,,,,,,,,,,,,,,,,,,,,,,,,,,,,,,,,,,,,,,286.9105333,286.9266676,287.4102691,287.4102691,287.4102691,287.4102691,287.4268559,287.7104261,287.7104261,287.7104261,,287.8777658,z,287.878176,287.8937864,288.894415,288.8783852,0.4592574,None,,,,,,,,,,,,,,,,,,,,,,,,,,,,,,,,,,,,,,,,,,,,,,,,,,,,,,,,,,,,,,,,,,,,,,,,,,,,A_1_,1,2024-11-27_10h02.43.291,untitled,2024.1.5,None,2024-11-27 10h02.59.235206 +0530
triangle.png,you,1,M,,,,,,,,,28,0,112,1,,,,,,,,,288.894415,,,,,,,,,,,,,,,,,,,,,,,,,,,,,,,,,,,,,,,,,,,,,,,,,,,,,,,,,,,,288.878734,288.894415,289.3779273,289.3779273,289.3779273,289.3779273,289.3946569,289.6781815,289.6781815,289.6781815,,289.7955407,m,289.7959425,289.8116344,290.8121079,290.7956572,0.4082633,None,,,,,,,,,,,,,,,,,,,,,,,,,,,,,,,,,,,,,,,,,,,,,,,,,,,,,,,,,,,,,,,,,,,,,,,,,,,,A_1_,1,2024-11-27_10h02.43.291,untitled,2024.1.5,None,2024-11-27 10h02.59.235206 +0530
square.png,you,0,Z,,,,,,,,,28,1,113,2,,,,,,,,,290.8121079,,,,,,,,,,,,,,,,,,,,,,,,,,,,,,,,,,,,,,,,,,,,,,,,,,,,,,,,,,,,290.7960045,290.8121079,291.2956318,291.2956318,291.2956318,291.2956318,291.3124034,291.595588,291.595588,291.595588,,291.9130875,m,291.9134851,291.9292166,292.9296685,292.913267,0.6020316,None,,,,,,,,,,,,,,,,,,,,,,,,,,,,,,,,,,,,,,,,,,,,,,,,,,,,,,,,,,,,,,,,,,,,,,,,,,,,A_1_,1,2024-11-27_10h02.43.291,untitled,2024.1.5,None,2024-11-27 10h02.59.235206 +0530
triangle.png,stranger,0,Z,,,,,,,,,28,2,114,3,,,,,,,,,292.9296685,,,,,,,,,,,,,,,,,,,,,,,,,,,,,,,,,,,,,,,,,,,,,,,,,,,,,,,,,,,,292.9136185,292.9296685,293.4133477,293.4133477,293.4133477,293.4133477,293.4302414,293.713471,293.713471,293.713471,,293.8308454,z,293.8312523,293.8467646,294.8473575,294.8311464,0.4082724,None,,,,,,,,,,,,,,,,,,,,,,,,,,,,,,,,,,,,,,,,,,,,,,,,,,,,,,,,,,,,,,,,,,,,,,,,,,,,A_1_,1,2024-11-27_10h02.43.291,untitled,2024.1.5,None,2024-11-27 10h02.59.235206 +0530
square.png,stranger,1,M,,,,,,,,,28,3,115,0,,,,,,,,,294.8473575,,,,,,,,,,,,,,,,,,,,,,,,,,,,,,,,,,,,,,,,,,,,,,,,,,,,,,,,,,,,294.831496,294.8473575,295.331212,295.331212,295.331212,295.331212,295.3475817,295.631133,295.631133,295.631133,,295.898357,m,295.8988935,295.9145557,296.9152083,296.8985622,0.5521659,None,,,,,,,,,,,,,,,,,,,,,,,,,,,,,,,,,,,,,,,,,,,,,,,,,,,,,,,,,,,,,,,,,,,,,,,,,,,,A_1_,1,2024-11-27_10h02.43.291,untitled,2024.1.5,None,2024-11-27 10h02.59.235206 +0530
triangle.png,stranger,0,Z,,,,,,,,,29,0,116,3,,,,,,,,,296.9152083,,,,,,,,,,,,,,,,,,,,,,,,,,,,,,,,,,,,,,,,,,,,,,,,,,,,,,,,,,,,296.8989374,296.9152083,297.3989305,297.3989305,297.3989305,297.3989305,297.4155507,297.6987459,297.6987459,297.6987459,,297.9497429,z,297.9501442,297.9657005,298.9661925,298.9498844,0.5345453,None,,,,,,,,,,,,,,,,,,,,,,,,,,,,,,,,,,,,,,,,,,,,,,,,,,,,,,,,,,,,,,,,,,,,,,,,,,,,A_1_,1,2024-11-27_10h02.43.291,untitled,2024.1.5,None,2024-11-27 10h02.59.235206 +0530
square.png,stranger,1,M,,,,,,,,,29,1,117,0,,,,,,,,,298.9661925,,,,,,,,,,,,,,,,,,,,,,,,,,,,,,,,,,,,,,,,,,,,,,,,,,,,,,,,,,,,298.9502381,298.9661925,299.4498004,299.4498004,299.4498004,299.4498004,299.4664322,299.7497156,299.7497156,299.7497156,,299.7672269,m,299.7676819,299.7833162,300.7836527,300.7675269,0.3035882,None,,,,,,,,,,,,,,,,,,,,,,,,,,,,,,,,,,,,,,,,,,,,,,,,,,,,,,,,,,,,,,,,,,,,,,,,,,,,A_1_,1,2024-11-27_10h02.43.291,untitled,2024.1.5,None,2024-11-27 10h02.59.235206 +0530
square.png,you,0,Z,,,,,,,,,29,2,118,2,,,,,,,,,300.7836527,,,,,,,,,,,,,,,,,,,,,,,,,,,,,,,,,,,,,,,,,,,,,,,,,,,,,,,,,,,,300.767878,300.7836527,301.267512,301.267512,301.267512,301.267512,301.2840419,301.5675946,301.5675946,301.5675946,,301.6183239,z,301.6187229,301.6343757,302.6349484,302.618619,0.3394306,None,,,,,,,,,,,,,,,,,,,,,,,,,,,,,,,,,,,,,,,,,,,,,,,,,,,,,,,,,,,,,,,,,,,,,,,,,,,,A_1_,1,2024-11-27_10h02.43.291,untitled,2024.1.5,None,2024-11-27 10h02.59.235206 +0530
triangle.png,you,1,M,,,,,,,,,29,3,119,1,,,,,,,,,302.6349484,,,,,,,,,,,,,,,,,,,,,,,,,,,,,,,,,,,,,,,,,,,,,,,,,,,,,,,,,,,,302.6189653,302.6349484,303.1185936,303.1185936,303.1185936,303.1185936,303.1349543,303.4184658,303.4184658,303.4184658,,303.4526679,m,303.4530675,303.4684367,304.4690062,304.4526683,0.3284119,None,,,,,,,,,,,,,,,,,,,,,,,,,,,,,,,,,,,,,,,,,,,,,,,,,,,,,,,,,,,,,,,,,,,,,,,,,,,,A_1_,1,2024-11-27_10h02.43.291,untitled,2024.1.5,None,2024-11-27 10h02.59.235206 +0530
triangle.png,stranger,0,Z,,,,,,,,,30,0,120,3,,,,,,,,,304.4690062,,,,,,,,,,,,,,,,,,,,,,,,,,,,,,,,,,,,,,,,,,,,,,,,,,,,,,,,,,,,304.4530125,304.4690062,304.9528226,304.9528226,304.9528226,304.9528226,304.9694809,305.2527782,305.2527782,305.2527782,,305.3034011,z,305.3037966,305.3193395,306.319973,306.3037298,0.341819,None,,,,,,,,,,,,,,,,,,,,,,,,,,,,,,,,,,,,,,,,,,,,,,,,,,,,,,,,,,,,,,,,,,,,,,,,,,,,A_1_,1,2024-11-27_10h02.43.291,untitled,2024.1.5,None,2024-11-27 10h02.59.235206 +0530
square.png,you,0,Z,,,,,,,,,30,1,121,2,,,,,,,,,306.319973,,,,,,,,,,,,,,,,,,,,,,,,,,,,,,,,,,,,,,,,,,,,,,,,,,,,,,,,,,,,306.3040761,306.319973,306.8037861,306.8037861,306.8037861,306.8037861,306.8201234,307.1038586,307.1038586,307.1038586,,307.1046397,m,307.1050606,307.1204079,308.1209487,308.1045321,0.2989027,None,,,,,,,,,,,,,,,,,,,,,,,,,,,,,,,,,,,,,,,,,,,,,,,,,,,,,,,,,,,,,,,,,,,,,,,,,,,,A_1_,1,2024-11-27_10h02.43.291,untitled,2024.1.5,None,2024-11-27 10h02.59.235206 +0530
triangle.png,you,1,M,,,,,,,,,30,2,122,1,,,,,,,,,308.1209487,,,,,,,,,,,,,,,,,,,,,,,,,,,,,,,,,,,,,,,,,,,,,,,,,,,,,,,,,,,,308.1048801,308.1209487,308.604502,308.604502,308.604502,308.604502,308.6211024,308.9046598,308.9046598,308.9046598,309.7050544,309.6886068,None,309.6887948,309.7050544,310.7054872,310.689205,,,,,,,,,,,,,,,,,,,,,,,,,,,,,,,,,,,,,,,,,,,,,,,,,,,,,,,,,,,,,,,,,,,,,,,,,,,,,,A_1_,1,2024-11-27_10h02.43.291,untitled,2024.1.5,None,2024-11-27 10h02.59.235206 +0530
square.png,stranger,1,M,,,,,,,,,30,3,123,0,,,,,,,,,310.7054872,,,,,,,,,,,,,,,,,,,,,,,,,,,,,,,,,,,,,,,,,,,,,,,,,,,,,,,,,,,,310.6895606,310.7054872,311.2060831,311.2060831,311.2060831,311.2060831,311.2060831,,,,,311.4568678,m,311.4572776,311.4727102,312.4732427,312.4568219,0.2487471,None,,,,,,,,,,,,,,,,,,,,,,,,,,,,,,,,,,,,,,,,,,,,,,,,,,,,,,,,,,,,,,,,,,,,,,,,,,,,A_1_,1,2024-11-27_10h02.43.291,untitled,2024.1.5,None,2024-11-27 10h02.59.235206 +0530
square.png,stranger,1,M,,,,,,,,,31,0,124,0,,,,,,,,,312.4732427,,,,,,,,,,,,,,,,,,,,,,,,,,,,,,,,,,,,,,,,,,,,,,,,,,,,,,,,,,,,312.4571688,312.4732427,312.9567005,312.9567005,312.9567005,312.9567005,312.9733551,,,,,313.2075699,m,313.2079675,313.2235651,314.223999,314.2078516,0.2461193,None,,,,,,,,,,,,,,,,,,,,,,,,,,,,,,,,,,,,,,,,,,,,,,,,,,,,,,,,,,,,,,,,,,,,,,,,,,,,A_1_,1,2024-11-27_10h02.43.291,untitled,2024.1.5,None,2024-11-27 10h02.59.235206 +0530
triangle.png,stranger,0,Z,,,,,,,,,31,1,125,3,,,,,,,,,314.223999,,,,,,,,,,,,,,,,,,,,,,,,,,,,,,,,,,,,,,,,,,,,,,,,,,,,,,,,,,,,314.2081987,314.223999,314.7079259,314.7079259,314.7079259,314.7079259,314.7241795,,,,,314.8919266,z,314.892326,314.9075726,315.908137,315.8919011,0.178961,None,,,,,,,,,,,,,,,,,,,,,,,,,,,,,,,,,,,,,,,,,,,,,,,,,,,,,,,,,,,,,,,,,,,,,,,,,,,,A_1_,1,2024-11-27_10h02.43.291,untitled,2024.1.5,None,2024-11-27 10h02.59.235206 +0530
triangle.png,you,1,M,,,,,,,,,31,2,126,1,,,,,,,,,315.908137,,,,,,,,,,,,,,,,,,,,,,,,,,,,,,,,,,,,,,,,,,,,,,,,,,,,,,,,,,,,315.8922459,315.908137,316.3921369,316.3921369,316.3921369,316.3921369,316.4085026,,,,,316.6594968,m,316.6598981,316.6750988,317.6759687,317.6595838,0.2549304,None,,,,,,,,,,,,,,,,,,,,,,,,,,,,,,,,,,,,,,,,,,,,,,,,,,,,,,,,,,,,,,,,,,,,,,,,,,,,A_1_,1,2024-11-27_10h02.43.291,untitled,2024.1.5,None,2024-11-27 10h02.59.235206 +0530
square.png,you,0,Z,,,,,,,,,31,3,127,2,,,,,,,,,317.6759687,,,,,,,,,,,,,,,,,,,,,,,,,,,,,,,,,,,,,,,,,,,,,,,,,,,,,,,,,,,,317.6599301,317.6759687,318.1593703,318.1593703,318.1593703,318.1593703,318.1760491,318.459569,318.459569,318.459569,,318.4437077,m,318.4441075,318.459569,319.4600825,319.4438842,0.282709,None,,,,,,,,,,,,,,,,,,,,,,,,,,,,,,,,,,,,,,,,,,,,,,,,,,,,,,,,,,,,,,,,,,,,,,,,,,,,A_1_,1,2024-11-27_10h02.43.291,untitled,2024.1.5,None,2024-11-27 10h02.59.235206 +0530
square.png,stranger,1,M,,,,,,,,,32,0,128,0,,,,,,,,,319.4600825,,,,,,,,,,,,,,,,,,,,,,,,,,,,,,,,,,,,,,,,,,,,,,,,,,,,,,,,,,,,319.4442356,319.4600825,319.9438666,319.9438666,319.9438666,319.9438666,319.960438,320.2439489,320.2439489,320.2439489,,320.361228,m,320.3616273,320.3772538,321.3778982,321.3614144,0.4068207,None,,,,,,,,,,,,,,,,,,,,,,,,,,,,,,,,,,,,,,,,,,,,,,,,,,,,,,,,,,,,,,,,,,,,,,,,,,,,A_1_,1,2024-11-27_10h02.43.291,untitled,2024.1.5,None,2024-11-27 10h02.59.235206 +0530
square.png,you,0,Z,,,,,,,,,32,1,129,2,,,,,,,,,321.3778982,,,,,,,,,,,,,,,,,,,,,,,,,,,,,,,,,,,,,,,,,,,,,,,,,,,,,,,,,,,,321.3617617,321.3778982,321.8615802,321.8615802,321.8615802,321.8615802,321.878134,322.1612197,322.1612197,322.1612197,,322.2286696,m,322.2290679,322.2445703,323.2451661,323.2289669,0.3651767,None,,,,,,,,,,,,,,,,,,,,,,,,,,,,,,,,,,,,,,,,,,,,,,,,,,,,,,,,,,,,,,,,,,,,,,,,,,,,A_1_,1,2024-11-27_10h02.43.291,untitled,2024.1.5,None,2024-11-27 10h02.59.235206 +0530
triangle.png,you,1,M,,,,,,,,,32,2,130,1,,,,,,,,,323.2451661,,,,,,,,,,,,,,,,,,,,,,,,,,,,,,,,,,,,,,,,,,,,,,,,,,,,,,,,,,,,323.2293155,323.2451661,323.7289432,323.7289432,323.7289432,323.7289432,323.7455944,324.0291032,324.0291032,324.0291032,,324.4962899,m,324.4967041,324.512255,325.5129417,325.4968773,0.7613559,None,,,,,,,,,,,,,,,,,,,,,,,,,,,,,,,,,,,,,,,,,,,,,,,,,,,,,,,,,,,,,,,,,,,,,,,,,,,,A_1_,1,2024-11-27_10h02.43.291,untitled,2024.1.5,None,2024-11-27 10h02.59.235206 +0530
triangle.png,stranger,0,Z,,,,,,,,,32,3,131,3,,,,,,,,,325.5129417,,,,,,,,,,,,,,,,,,,,,,,,,,,,,,,,,,,,,,,,,,,,,,,,,,,,,,,,,,,,325.4972321,325.5129417,325.9964979,325.9964979,325.9964979,325.9964979,326.0133015,326.2966971,326.2966971,326.2966971,,326.3140337,m,326.3144446,326.3300575,327.3305696,327.3144869,0.3019133,None,,,,,,,,,,,,,,,,,,,,,,,,,,,,,,,,,,,,,,,,,,,,,,,,,,,,,,,,,,,,,,,,,,,,,,,,,,,,A_1_,1,2024-11-27_10h02.43.291,untitled,2024.1.5,None,2024-11-27 10h02.59.235206 +0530
square.png,stranger,1,M,,,,,,,,,33,0,132,0,,,,,,,,,327.3305696,,,,,,,,,,,,,,,,,,,,,,,,,,,,,,,,,,,,,,,,,,,,,,,,,,,,,,,,,,,,327.3148391,327.3305696,327.8143534,327.8143534,327.8143534,327.8143534,327.8310119,328.1143692,328.1143692,328.1143692,,328.0988844,z,328.0993188,328.1143692,329.1148696,329.0988057,0.2751118,None,,,,,,,,,,,,,,,,,,,,,,,,,,,,,,,,,,,,,,,,,,,,,,,,,,,,,,,,,,,,,,,,,,,,,,,,,,,,A_1_,1,2024-11-27_10h02.43.291,untitled,2024.1.5,None,2024-11-27 10h02.59.235206 +0530
triangle.png,stranger,0,Z,,,,,,,,,33,1,133,3,,,,,,,,,329.1148696,,,,,,,,,,,,,,,,,,,,,,,,,,,,,,,,,,,,,,,,,,,,,,,,,,,,,,,,,,,,329.099153,329.1148696,329.5985605,329.5985605,329.5985605,329.5985605,329.6153185,329.8987237,329.8987237,329.8987237,,329.8994763,m,329.8998718,329.9154256,330.915886,330.899699,0.2852752,None,,,,,,,,,,,,,,,,,,,,,,,,,,,,,,,,,,,,,,,,,,,,,,,,,,,,,,,,,,,,,,,,,,,,,,,,,,,,A_1_,1,2024-11-27_10h02.43.291,untitled,2024.1.5,None,2024-11-27 10h02.59.235206 +0530
square.png,you,0,Z,,,,,,,,,33,2,134,2,,,,,,,,,330.915886,,,,,,,,,,,,,,,,,,,,,,,,,,,,,,,,,,,,,,,,,,,,,,,,,,,,,,,,,,,,330.9000466,330.915886,331.3995516,331.3995516,331.3995516,331.3995516,331.4162797,,,,,331.6171025,z,331.617506,331.6329233,332.6333598,332.6173783,0.2069187,None,,,,,,,,,,,,,,,,,,,,,,,,,,,,,,,,,,,,,,,,,,,,,,,,,,,,,,,,,,,,,,,,,,,,,,,,,,,,A_1_,1,2024-11-27_10h02.43.291,untitled,2024.1.5,None,2024-11-27 10h02.59.235206 +0530
triangle.png,you,1,M,,,,,,,,,33,3,135,1,,,,,,,,,332.6333598,,,,,,,,,,,,,,,,,,,,,,,,,,,,,,,,,,,,,,,,,,,,,,,,,,,,,,,,,,,,332.6177289,332.6333598,333.1170225,333.1170225,333.1170225,333.1170225,333.1338337,,,,,333.3516147,z,333.3520153,333.3671079,334.3678101,334.3515596,0.2324325,None,,,,,,,,,,,,,,,,,,,,,,,,,,,,,,,,,,,,,,,,,,,,,,,,,,,,,,,,,,,,,,,,,,,,,,,,,,,,A_1_,1,2024-11-27_10h02.43.291,untitled,2024.1.5,None,2024-11-27 10h02.59.235206 +0530
square.png,stranger,1,M,,,,,,,,,34,0,136,0,,,,,,,,,334.3678101,,,,,,,,,,,,,,,,,,,,,,,,,,,,,,,,,,,,,,,,,,,,,,,,,,,,,,,,,,,,334.3519058,334.3678101,334.851274,334.851274,334.851274,334.851274,334.8679658,335.1513838,335.1513838,335.1513838,,335.7524656,m,335.7528662,335.7683938,336.7690115,336.7525446,0.899869,None,,,,,,,,,,,,,,,,,,,,,,,,,,,,,,,,,,,,,,,,,,,,,,,,,,,,,,,,,,,,,,,,,,,,,,,,,,,,A_1_,1,2024-11-27_10h02.43.291,untitled,2024.1.5,None,2024-11-27 10h02.59.235206 +0530
triangle.png,stranger,0,Z,,,,,,,,,34,1,137,3,,,,,,,,,336.7690115,,,,,,,,,,,,,,,,,,,,,,,,,,,,,,,,,,,,,,,,,,,,,,,,,,,,,,,,,,,,336.7528954,336.7690115,337.2527212,337.2527212,337.2527212,337.2527212,337.2692233,337.552533,337.552533,337.552533,,337.5866873,m,337.5870873,337.6027311,338.6031576,338.586897,0.3207907,None,,,,,,,,,,,,,,,,,,,,,,,,,,,,,,,,,,,,,,,,,,,,,,,,,,,,,,,,,,,,,,,,,,,,,,,,,,,,A_1_,1,2024-11-27_10h02.43.291,untitled,2024.1.5,None,2024-11-27 10h02.59.235206 +0530
triangle.png,you,1,M,,,,,,,,,34,2,138,1,,,,,,,,,338.6031576,,,,,,,,,,,,,,,,,,,,,,,,,,,,,,,,,,,,,,,,,,,,,,,,,,,,,,,,,,,,338.5872498,338.6031576,339.0868877,339.0868877,339.0868877,339.0868877,339.1034588,339.3868218,339.3868218,339.3868218,,340.0878392,z,340.0882397,340.1040242,341.1045796,341.0883798,0.9882836,None,,,,,,,,,,,,,,,,,,,,,,,,,,,,,,,,,,,,,,,,,,,,,,,,,,,,,,,,,,,,,,,,,,,,,,,,,,,,A_1_,1,2024-11-27_10h02.43.291,untitled,2024.1.5,None,2024-11-27 10h02.59.235206 +0530
square.png,you,0,Z,,,,,,,,,34,3,139,2,,,,,,,,,341.1045796,,,,,,,,,,,,,,,,,,,,,,,,,,,,,,,,,,,,,,,,,,,,,,,,,,,,,,,,,,,,341.0887315,341.1045796,341.5882003,341.5882003,341.5882003,341.5882003,341.6048895,341.8879816,341.8879816,341.8879816,,341.9054233,m,341.9058309,341.9214705,342.9222637,342.9058479,0.3024559,None,,,,,,,,,,,,,,,,,,,,,,,,,,,,,,,,,,,,,,,,,,,,,,,,,,,,,,,,,,,,,,,,,,,,,,,,,,,,A_1_,1,2024-11-27_10h02.43.291,untitled,2024.1.5,None,2024-11-27 10h02.59.235206 +0530
square.png,stranger,1,M,,,,,,,,,35,0,140,0,,,,,,,,,342.9222637,,,,,,,,,,,,,,,,,,,,,,,,,,,,,,,,,,,,,,,,,,,,,,,,,,,,,,,,,,,,342.9062051,342.9222637,343.4055962,343.4055962,343.4055962,343.4055962,343.4224264,343.7057161,343.7057161,343.7057161,,343.7400212,m,343.740495,343.7558702,344.7564837,344.7399878,0.3323433,None,,,,,,,,,,,,,,,,,,,,,,,,,,,,,,,,,,,,,,,,,,,,,,,,,,,,,,,,,,,,,,,,,,,,,,,,,,,,A_1_,1,2024-11-27_10h02.43.291,untitled,2024.1.5,None,2024-11-27 10h02.59.235206 +0530
square.png,you,0,Z,,,,,,,,,35,1,141,2,,,,,,,,,344.7564837,,,,,,,,,,,,,,,,,,,,,,,,,,,,,,,,,,,,,,,,,,,,,,,,,,,,,,,,,,,,344.7403406,344.7564837,345.2402055,345.2402055,345.2402055,345.2402055,345.256508,345.5399527,345.5399527,345.5399527,,345.6743522,m,345.6747552,345.6903212,346.6905742,346.6742891,0.4181918,None,,,,,,,,,,,,,,,,,,,,,,,,,,,,,,,,,,,,,,,,,,,,,,,,,,,,,,,,,,,,,,,,,,,,,,,,,,,,A_1_,1,2024-11-27_10h02.43.291,untitled,2024.1.5,None,2024-11-27 10h02.59.235206 +0530
triangle.png,stranger,0,Z,,,,,,,,,35,2,142,3,,,,,,,,,346.6905742,,,,,,,,,,,,,,,,,,,,,,,,,,,,,,,,,,,,,,,,,,,,,,,,,,,,,,,,,,,,346.6746379,346.6905742,347.1745081,347.1745081,347.1745081,347.1745081,347.1908374,347.4743247,347.4743247,347.4743247,348.2748767,348.2584325,None,348.2586226,348.2748767,349.2754827,349.2589823,,,,,,,,,,,,,,,,,,,,,,,,,,,,,,,,,,,,,,,,,,,,,,,,,,,,,,,,,,,,,,,,,,,,,,,,,,,,,,A_1_,1,2024-11-27_10h02.43.291,untitled,2024.1.5,None,2024-11-27 10h02.59.235206 +0530
triangle.png,you,1,M,,,,,,,,,35,3,143,1,,,,,,,,,349.2754827,,,,,,,,,,,,,,,,,,,,,,,,,,,,,,,,,,,,,,,,,,,,,,,,,,,,,,,,,,,,349.2593287,349.2754827,349.7756051,349.7756051,349.7756051,349.7756051,349.7756051,350.0758345,350.0758345,350.0758345,,350.3101228,m,350.3105247,350.3259862,351.3265582,351.310058,0.5259945,None,,,,,,,,,,,,,,,,,,,,,,,,,,,,,,,,,,,,,,,,,,,,,,,,,,,,,,,,,,,,,,,,,,,,,,,,,,,,A_1_,1,2024-11-27_10h02.43.291,untitled,2024.1.5,None,2024-11-27 10h02.59.235206 +0530
triangle.png,you,1,M,,,,,,,,,36,0,144,1,,,,,,,,,351.3265582,,,,,,,,,,,,,,,,,,,,,,,,,,,,,,,,,,,,,,,,,,,,,,,,,,,,,,,,,,,,351.3104091,351.3265582,351.8101865,351.8101865,351.8101865,351.8101865,351.8267244,352.1100577,352.1100577,352.1100577,,352.1441185,m,352.1445167,352.1600388,353.1610663,353.1445543,0.3194546,None,,,,,,,,,,,,,,,,,,,,,,,,,,,,,,,,,,,,,,,,,,,,,,,,,,,,,,,,,,,,,,,,,,,,,,,,,,,,A_1_,1,2024-11-27_10h02.43.291,untitled,2024.1.5,None,2024-11-27 10h02.59.235206 +0530
square.png,you,0,Z,,,,,,,,,36,1,145,2,,,,,,,,,353.1610663,,,,,,,,,,,,,,,,,,,,,,,,,,,,,,,,,,,,,,,,,,,,,,,,,,,,,,,,,,,,353.1449029,353.1610663,353.6444667,353.6444667,353.6444667,353.6444667,353.6611125,353.9445598,353.9445598,353.9445598,,354.1452517,m,354.1456488,354.1611062,355.1616768,355.145613,0.4851726,None,,,,,,,,,,,,,,,,,,,,,,,,,,,,,,,,,,,,,,,,,,,,,,,,,,,,,,,,,,,,,,,,,,,,,,,,,,,,A_1_,1,2024-11-27_10h02.43.291,untitled,2024.1.5,None,2024-11-27 10h02.59.235206 +0530
square.png,stranger,1,M,,,,,,,,,36,2,146,0,,,,,,,,,355.1616768,,,,,,,,,,,,,,,,,,,,,,,,,,,,,,,,,,,,,,,,,,,,,,,,,,,,,,,,,,,,355.1459607,355.1616768,355.645296,355.645296,355.645296,355.645296,355.6618646,355.9453419,355.9453419,355.9453419,,356.2128318,z,356.2132362,356.2289046,357.2294244,357.2132814,0.5609718,None,,,,,,,,,,,,,,,,,,,,,,,,,,,,,,,,,,,,,,,,,,,,,,,,,,,,,,,,,,,,,,,,,,,,,,,,,,,,A_1_,1,2024-11-27_10h02.43.291,untitled,2024.1.5,None,2024-11-27 10h02.59.235206 +0530
triangle.png,stranger,0,Z,,,,,,,,,36,3,147,3,,,,,,,,,357.2294244,,,,,,,,,,,,,,,,,,,,,,,,,,,,,,,,,,,,,,,,,,,,,,,,,,,,,,,,,,,,357.2136323,357.2294244,357.713228,357.713228,357.713228,357.713228,357.7298548,358.0132503,358.0132503,358.0132503,,358.1473388,m,358.1477365,358.1633715,359.1637717,359.1476405,0.4295225,None,,,,,,,,,,,,,,,,,,,,,,,,,,,,,,,,,,,,,,,,,,,,,,,,,,,,,,,,,,,,,,,,,,,,,,,,,,,,A_1_,1,2024-11-27_10h02.43.291,untitled,2024.1.5,None,2024-11-27 10h02.59.235206 +0530
triangle.png,you,1,M,,,,,,,,,37,0,148,1,,,,,,,,,359.1637717,,,,,,,,,,,,,,,,,,,,,,,,,,,,,,,,,,,,,,,,,,,,,,,,,,,,,,,,,,,,359.147991,359.1637717,359.647685,359.647685,359.647685,359.647685,359.6640101,359.9476328,359.9476328,359.9476328,,360.3485146,m,360.3489193,360.3644123,361.3647416,361.3486649,0.698949,None,,,,,,,,,,,,,,,,,,,,,,,,,,,,,,,,,,,,,,,,,,,,,,,,,,,,,,,,,,,,,,,,,,,,,,,,,,,,A_1_,1,2024-11-27_10h02.43.291,untitled,2024.1.5,None,2024-11-27 10h02.59.235206 +0530
square.png,stranger,1,M,,,,,,,,,37,1,149,0,,,,,,,,,361.3647416,,,,,,,,,,,,,,,,,,,,,,,,,,,,,,,,,,,,,,,,,,,,,,,,,,,,,,,,,,,,361.3490163,361.3647416,361.8484618,361.8484618,361.8484618,361.8484618,361.8651938,362.1485001,362.1485001,362.1485001,,362.149249,z,362.1496445,362.1654659,363.1657293,363.1494886,0.2861037,None,,,,,,,,,,,,,,,,,,,,,,,,,,,,,,,,,,,,,,,,,,,,,,,,,,,,,,,,,,,,,,,,,,,,,,,,,,,,A_1_,1,2024-11-27_10h02.43.291,untitled,2024.1.5,None,2024-11-27 10h02.59.235206 +0530
triangle.png,stranger,0,Z,,,,,,,,,37,2,150,3,,,,,,,,,363.1657293,,,,,,,,,,,,,,,,,,,,,,,,,,,,,,,,,,,,,,,,,,,,,,,,,,,,,,,,,,,,363.1498393,363.1657293,363.6496496,363.6496496,363.6496496,363.6496496,363.666322,363.949489,363.949489,363.949489,,364.1170723,m,364.1174732,364.1329771,365.133377,365.1173083,0.4535514,None,,,,,,,,,,,,,,,,,,,,,,,,,,,,,,,,,,,,,,,,,,,,,,,,,,,,,,,,,,,,,,,,,,,,,,,,,,,,A_1_,1,2024-11-27_10h02.43.291,untitled,2024.1.5,None,2024-11-27 10h02.59.235206 +0530
square.png,you,0,Z,,,,,,,,,37,3,151,2,,,,,,,,,365.133377,,,,,,,,,,,,,,,,,,,,,,,,,,,,,,,,,,,,,,,,,,,,,,,,,,,,,,,,,,,,365.1176563,365.133377,365.6171026,365.6171026,365.6171026,365.6171026,365.6337053,365.9172807,365.9172807,365.9172807,,366.0013069,m,366.0017102,366.0171647,367.0179308,367.0016993,0.3740121,None,,,,,,,,,,,,,,,,,,,,,,,,,,,,,,,,,,,,,,,,,,,,,,,,,,,,,,,,,,,,,,,,,,,,,,,,,,,,A_1_,1,2024-11-27_10h02.43.291,untitled,2024.1.5,None,2024-11-27 10h02.59.235206 +0530
square.png,you,0,Z,,,,,,,,,38,0,152,2,,,,,,,,,367.0179308,,,,,,,,,,,,,,,,,,,,,,,,,,,,,,,,,,,,,,,,,,,,,,,,,,,,,,,,,,,,367.0020449,367.0179308,367.5016024,367.5016024,367.5016024,367.5016024,367.5182874,367.8014934,367.8014934,367.8014934,,368.1691896,z,368.1695879,368.1851368,369.1856502,369.1694054,0.6575945,None,,,,,,,,,,,,,,,,,,,,,,,,,,,,,,,,,,,,,,,,,,,,,,,,,,,,,,,,,,,,,,,,,,,,,,,,,,,,A_1_,1,2024-11-27_10h02.43.291,untitled,2024.1.5,None,2024-11-27 10h02.59.235206 +0530
triangle.png,stranger,0,Z,,,,,,,,,38,1,153,3,,,,,,,,,369.1856502,,,,,,,,,,,,,,,,,,,,,,,,,,,,,,,,,,,,,,,,,,,,,,,,,,,,,,,,,,,,369.169756,369.1856502,369.6695029,369.6695029,369.6695029,369.6695029,369.6860776,369.9693249,369.9693249,369.9693249,,370.2702282,z,370.2706861,370.2862794,371.286313,371.2702786,0.5959171,None,,,,,,,,,,,,,,,,,,,,,,,,,,,,,,,,,,,,,,,,,,,,,,,,,,,,,,,,,,,,,,,,,,,,,,,,,,,,A_1_,1,2024-11-27_10h02.43.291,untitled,2024.1.5,None,2024-11-27 10h02.59.235206 +0530
triangle.png,you,1,M,,,,,,,,,38,2,154,1,,,,,,,,,371.286313,,,,,,,,,,,,,,,,,,,,,,,,,,,,,,,,,,,,,,,,,,,,,,,,,,,,,,,,,,,,371.2706156,371.286313,371.770113,371.770113,371.770113,371.770113,371.7869562,372.0703656,372.0703656,372.0703656,,372.087789,m,372.0882007,372.1037673,373.1044712,373.0882379,0.3158233,None,,,,,,,,,,,,,,,,,,,,,,,,,,,,,,,,,,,,,,,,,,,,,,,,,,,,,,,,,,,,,,,,,,,,,,,,,,,,A_1_,1,2024-11-27_10h02.43.291,untitled,2024.1.5,None,2024-11-27 10h02.59.235206 +0530
square.png,stranger,1,M,,,,,,,,,38,3,155,0,,,,,,,,,373.1044712,,,,,,,,,,,,,,,,,,,,,,,,,,,,,,,,,,,,,,,,,,,,,,,,,,,,,,,,,,,,373.0885853,373.1044712,373.5881097,373.5881097,373.5881097,373.5881097,373.6045006,373.8879987,373.8879987,373.8879987,,373.955403,m,373.9558017,373.9713779,374.9719988,374.9554776,0.3505869,None,,,,,,,,,,,,,,,,,,,,,,,,,,,,,,,,,,,,,,,,,,,,,,,,,,,,,,,,,,,,,,,,,,,,,,,,,,,,A_1_,1,2024-11-27_10h02.43.291,untitled,2024.1.5,None,2024-11-27 10h02.59.235206 +0530
square.png,stranger,1,M,,,,,,,,,39,0,156,0,,,,,,,,,374.9719988,,,,,,,,,,,,,,,,,,,,,,,,,,,,,,,,,,,,,,,,,,,,,,,,,,,,,,,,,,,,374.9558249,374.9719988,375.4553961,375.4553961,375.4553961,375.4553961,375.4721079,375.7555475,375.7555475,375.7555475,,375.8232137,m,375.8236148,375.8389844,376.8396721,376.8232273,0.3621866,None,,,,,,,,,,,,,,,,,,,,,,,,,,,,,,,,,,,,,,,,,,,,,,,,,,,,,,,,,,,,,,,,,,,,,,,,,,,,A_1_,1,2024-11-27_10h02.43.291,untitled,2024.1.5,None,2024-11-27 10h02.59.235206 +0530
square.png,you,0,Z,,,,,,,,,39,1,157,2,,,,,,,,,376.8396721,,,,,,,,,,,,,,,,,,,,,,,,,,,,,,,,,,,,,,,,,,,,,,,,,,,,,,,,,,,,376.8235744,376.8396721,377.3230908,377.3230908,377.3230908,377.3230908,377.3396991,377.6231388,377.6231388,377.6231388,,377.7739326,m,377.7743745,377.7898754,378.7903563,378.7744708,0.4350966,None,,,,,,,,,,,,,,,,,,,,,,,,,,,,,,,,,,,,,,,,,,,,,,,,,,,,,,,,,,,,,,,,,,,,,,,,,,,,A_1_,1,2024-11-27_10h02.43.291,untitled,2024.1.5,None,2024-11-27 10h02.59.235206 +0530
triangle.png,you,1,M,,,,,,,,,39,2,158,1,,,,,,,,,378.7903563,,,,,,,,,,,,,,,,,,,,,,,,,,,,,,,,,,,,,,,,,,,,,,,,,,,,,,,,,,,,378.7749039,378.7903563,379.2741063,379.2741063,379.2741063,379.2741063,379.2907858,379.5742911,379.5742911,379.5742911,,379.625092,m,379.6254913,379.6409569,380.6415443,380.6253051,0.3488902,None,,,,,,,,,,,,,,,,,,,,,,,,,,,,,,,,,,,,,,,,,,,,,,,,,,,,,,,,,,,,,,,,,,,,,,,,,,,,A_1_,1,2024-11-27_10h02.43.291,untitled,2024.1.5,None,2024-11-27 10h02.59.235206 +0530
triangle.png,stranger,0,Z,,,,,,,,,39,3,159,3,,,,,,,,,380.6415443,,,,,,,,,,,,,,,,,,,,,,,,,,,,,,,,,,,,,,,,,,,,,,,,,,,,,,,,,,,,380.6256575,380.6415443,381.1251258,381.1251258,381.1251258,381.1251258,381.1416842,381.4251112,381.4251112,381.4251112,,381.5427009,m,381.543099,381.5588228,382.5593125,382.5428994,0.4135154,None,,,,,,,,,,,,,,,,,,,,,,,,,,,,,,,,,,,,,,,,,,,,,,,,,,,,,,,,,,,,,,,,,,,,,,,,,,,,A_1_,1,2024-11-27_10h02.43.291,untitled,2024.1.5,None,2024-11-27 10h02.59.235206 +0530
square.png,stranger,1,M,,,,,,,,,40,0,160,0,,,,,,,,,382.5593125,,,,,,,,,,,,,,,,,,,,,,,,,,,,,,,,,,,,,,,,,,,,,,,,,,,,,,,,,,,,382.5432491,382.5593125,383.0429151,383.0429151,383.0429151,383.0429151,383.0595907,,,,,383.3104543,m,383.310854,383.3261167,384.3266015,384.3104583,0.2510797,None,,,,,,,,,,,,,,,,,,,,,,,,,,,,,,,,,,,,,,,,,,,,,,,,,,,,,,,,,,,,,,,,,,,,,,,,,,,,A_1_,1,2024-11-27_10h02.43.291,untitled,2024.1.5,None,2024-11-27 10h02.59.235206 +0530
square.png,you,0,Z,,,,,,,,,40,1,161,2,,,,,,,,,384.3266015,,,,,,,,,,,,,,,,,,,,,,,,,,,,,,,,,,,,,,,,,,,,,,,,,,,,,,,,,,,,384.3108078,384.3266015,384.8104983,384.8104983,384.8104983,384.8104983,384.8268556,385.1102775,385.1102775,385.1102775,,385.2776383,z,385.2780503,385.2938185,386.294497,386.2782448,0.4600217,None,,,,,,,,,,,,,,,,,,,,,,,,,,,,,,,,,,,,,,,,,,,,,,,,,,,,,,,,,,,,,,,,,,,,,,,,,,,,A_1_,1,2024-11-27_10h02.43.291,untitled,2024.1.5,None,2024-11-27 10h02.59.235206 +0530
triangle.png,you,1,M,,,,,,,,,40,2,162,1,,,,,,,,,386.294497,,,,,,,,,,,,,,,,,,,,,,,,,,,,,,,,,,,,,,,,,,,,,,,,,,,,,,,,,,,,386.2785923,386.294497,386.7782162,386.7782162,386.7782162,386.7782162,386.7945346,387.0780483,387.0780483,387.0780483,,387.2290147,m,387.2294169,387.2448116,388.2454739,388.2289517,0.4432007,None,,,,,,,,,,,,,,,,,,,,,,,,,,,,,,,,,,,,,,,,,,,,,,,,,,,,,,,,,,,,,,,,,,,,,,,,,,,,A_1_,1,2024-11-27_10h02.43.291,untitled,2024.1.5,None,2024-11-27 10h02.59.235206 +0530
triangle.png,stranger,0,Z,,,,,,,,,40,3,163,3,,,,,,,,,388.2454739,,,,,,,,,,,,,,,,,,,,,,,,,,,,,,,,,,,,,,,,,,,,,,,,,,,,,,,,,,,,388.229296,388.2454739,388.7291943,388.7291943,388.7291943,388.7291943,388.7457961,389.0291272,389.0291272,389.0291272,,389.0130671,z,389.0134765,389.0291272,390.0297109,390.0132738,0.2803325,None,,,,,,,,,,,,,,,,,,,,,,,,,,,,,,,,,,,,,,,,,,,,,,,,,,,,,,,,,,,,,,,,,,,,,,,,,,,,A_1_,1,2024-11-27_10h02.43.291,untitled,2024.1.5,None,2024-11-27 10h02.59.235206 +0530
triangle.png,you,1,M,,,,,,,,,41,0,164,1,,,,,,,,,390.0297109,,,,,,,,,,,,,,,,,,,,,,,,,,,,,,,,,,,,,,,,,,,,,,,,,,,,,,,,,,,,390.0136206,390.0297109,390.5131877,390.5131877,390.5131877,390.5131877,390.5297927,390.8134346,390.8134346,390.8134346,,390.8973515,m,390.8977578,390.913461,391.9141365,391.8977333,0.3724375,None,,,,,,,,,,,,,,,,,,,,,,,,,,,,,,,,,,,,,,,,,,,,,,,,,,,,,,,,,,,,,,,,,,,,,,,,,,,,A_1_,1,2024-11-27_10h02.43.291,untitled,2024.1.5,None,2024-11-27 10h02.59.235206 +0530
triangle.png,stranger,0,Z,,,,,,,,,41,1,165,3,,,,,,,,,391.9141365,,,,,,,,,,,,,,,,,,,,,,,,,,,,,,,,,,,,,,,,,,,,,,,,,,,,,,,,,,,,391.8980835,391.9141365,392.3976,392.3976,392.3976,392.3976,392.4143829,,,,,392.6486407,z,392.6490387,392.6641424,393.6646654,393.648604,0.2456162,None,,,,,,,,,,,,,,,,,,,,,,,,,,,,,,,,,,,,,,,,,,,,,,,,,,,,,,,,,,,,,,,,,,,,,,,,,,,,A_1_,1,2024-11-27_10h02.43.291,untitled,2024.1.5,None,2024-11-27 10h02.59.235206 +0530
square.png,you,0,Z,,,,,,,,,41,2,166,2,,,,,,,,,393.6646654,,,,,,,,,,,,,,,,,,,,,,,,,,,,,,,,,,,,,,,,,,,,,,,,,,,,,,,,,,,,393.6489553,393.6646654,394.1486535,394.1486535,394.1486535,394.1486535,394.1649761,394.448592,394.448592,394.448592,,394.4659319,m,394.4663507,394.4819844,395.4822578,395.4660492,0.3013695,None,,,,,,,,,,,,,,,,,,,,,,,,,,,,,,,,,,,,,,,,,,,,,,,,,,,,,,,,,,,,,,,,,,,,,,,,,,,,A_1_,1,2024-11-27_10h02.43.291,untitled,2024.1.5,None,2024-11-27 10h02.59.235206 +0530
square.png,stranger,1,M,,,,,,,,,41,3,167,0,,,,,,,,,395.4822578,,,,,,,,,,,,,,,,,,,,,,,,,,,,,,,,,,,,,,,,,,,,,,,,,,,,,,,,,,,,395.4664025,395.4822578,395.9660092,395.9660092,395.9660092,395.9660092,395.9826317,,,,,396.2335549,z,396.233964,396.2496508,397.2498731,397.2336616,0.2519356,None,,,,,,,,,,,,,,,,,,,,,,,,,,,,,,,,,,,,,,,,,,,,,,,,,,,,,,,,,,,,,,,,,,,,,,,,,,,,A_1_,1,2024-11-27_10h02.43.291,untitled,2024.1.5,None,2024-11-27 10h02.59.235206 +0530
square.png,you,0,Z,,,,,,,,,42,0,168,2,,,,,,,,,397.2498731,,,,,,,,,,,,,,,,,,,,,,,,,,,,,,,,,,,,,,,,,,,,,,,,,,,,,,,,,,,,397.2340133,397.2498731,397.7335351,397.7335351,397.7335351,397.7335351,397.750376,,,,,397.9842839,m,397.9847631,398.0003307,399.0009033,398.9845179,0.2369426,None,,,,,,,,,,,,,,,,,,,,,,,,,,,,,,,,,,,,,,,,,,,,,,,,,,,,,,,,,,,,,,,,,,,,,,,,,,,,A_1_,1,2024-11-27_10h02.43.291,untitled,2024.1.5,None,2024-11-27 10h02.59.235206 +0530
square.png,stranger,1,M,,,,,,,,,42,1,169,0,,,,,,,,,399.0009033,,,,,,,,,,,,,,,,,,,,,,,,,,,,,,,,,,,,,,,,,,,,,,,,,,,,,,,,,,,,398.9848807,399.0009033,399.4844965,399.4844965,399.4844965,399.4844965,399.5013474,399.7844827,399.7844827,399.7844827,,399.9688016,z,399.9692727,399.9846562,400.9852784,400.9690197,0.4691672,None,,,,,,,,,,,,,,,,,,,,,,,,,,,,,,,,,,,,,,,,,,,,,,,,,,,,,,,,,,,,,,,,,,,,,,,,,,,,A_1_,1,2024-11-27_10h02.43.291,untitled,2024.1.5,None,2024-11-27 10h02.59.235206 +0530
triangle.png,you,1,M,,,,,,,,,42,2,170,1,,,,,,,,,400.9852784,,,,,,,,,,,,,,,,,,,,,,,,,,,,,,,,,,,,,,,,,,,,,,,,,,,,,,,,,,,,400.9693727,400.9852784,401.4689166,401.4689166,401.4689166,401.4689166,401.4855986,,,,,401.7366346,m,401.7370291,401.7521608,402.7528145,402.7366978,0.2662358,None,,,,,,,,,,,,,,,,,,,,,,,,,,,,,,,,,,,,,,,,,,,,,,,,,,,,,,,,,,,,,,,,,,,,,,,,,,,,A_1_,1,2024-11-27_10h02.43.291,untitled,2024.1.5,None,2024-11-27 10h02.59.235206 +0530
triangle.png,stranger,0,Z,,,,,,,,,42,3,171,3,,,,,,,,,402.7528145,,,,,,,,,,,,,,,,,,,,,,,,,,,,,,,,,,,,,,,,,,,,,,,,,,,,,,,,,,,,402.7370519,402.7528145,403.2363494,403.2363494,403.2363494,403.2363494,403.2532433,,,,,403.5039458,m,403.5043438,403.519941,404.5205792,404.5041139,0.2579106,None,,,,,,,,,,,,,,,,,,,,,,,,,,,,,,,,,,,,,,,,,,,,,,,,,,,,,,,,,,,,,,,,,,,,,,,,,,,,A_1_,1,2024-11-27_10h02.43.291,untitled,2024.1.5,None,2024-11-27 10h02.59.235206 +0530
square.png,you,0,Z,,,,,,,,,43,0,172,2,,,,,,,,,404.5205792,,,,,,,,,,,,,,,,,,,,,,,,,,,,,,,,,,,,,,,,,,,,,,,,,,,,,,,,,,,,404.5044621,404.5205792,405.0041772,405.0041772,405.0041772,405.0041772,405.0206133,405.3041473,405.3041473,405.3041473,,405.3377787,z,405.3381922,405.3537867,406.3546872,406.3383009,0.3258747,None,,,,,,,,,,,,,,,,,,,,,,,,,,,,,,,,,,,,,,,,,,,,,,,,,,,,,,,,,,,,,,,,,,,,,,,,,,,,A_1_,1,2024-11-27_10h02.43.291,untitled,2024.1.5,None,2024-11-27 10h02.59.235206 +0530
triangle.png,stranger,0,Z,,,,,,,,,43,1,173,3,,,,,,,,,406.3546872,,,,,,,,,,,,,,,,,,,,,,,,,,,,,,,,,,,,,,,,,,,,,,,,,,,,,,,,,,,,406.3386468,406.3546872,406.8382896,406.8382896,406.8382896,406.8382896,406.8549806,407.1382632,407.1382632,407.1382632,,407.1725376,z,407.172933,407.1884902,408.1889983,408.1725783,0.3205968,None,,,,,,,,,,,,,,,,,,,,,,,,,,,,,,,,,,,,,,,,,,,,,,,,,,,,,,,,,,,,,,,,,,,,,,,,,,,,A_1_,1,2024-11-27_10h02.43.291,untitled,2024.1.5,None,2024-11-27 10h02.59.235206 +0530
triangle.png,you,1,M,,,,,,,,,43,2,174,1,,,,,,,,,408.1889983,,,,,,,,,,,,,,,,,,,,,,,,,,,,,,,,,,,,,,,,,,,,,,,,,,,,,,,,,,,,408.1729236,408.1889983,408.6727467,408.6727467,408.6727467,408.6727467,408.6890865,408.9726537,408.9726537,408.9726537,,409.023539,z,409.0239349,409.0392551,410.0398589,410.0235215,0.3455331,None,,,,,,,,,,,,,,,,,,,,,,,,,,,,,,,,,,,,,,,,,,,,,,,,,,,,,,,,,,,,,,,,,,,,,,,,,,,,A_1_,1,2024-11-27_10h02.43.291,untitled,2024.1.5,None,2024-11-27 10h02.59.235206 +0530
square.png,stranger,1,M,,,,,,,,,43,3,175,0,,,,,,,,,410.0398589,,,,,,,,,,,,,,,,,,,,,,,,,,,,,,,,,,,,,,,,,,,,,,,,,,,,,,,,,,,,410.023871,410.0398589,410.5238305,410.5238305,410.5238305,410.5238305,410.5403906,410.8236346,410.8236346,410.8236346,,411.2413899,z,411.241807,411.2571109,412.2577867,412.2415092,0.7071631,None,,,,,,,,,,,,,,,,,,,,,,,,,,,,,,,,,,,,,,,,,,,,,,,,,,,,,,,,,,,,,,,,,,,,,,,,,,,,A_1_,1,2024-11-27_10h02.43.291,untitled,2024.1.5,None,2024-11-27 10h02.59.235206 +0530
triangle.png,you,1,M,,,,,,,,,44,0,176,1,,,,,,,,,412.2577867,,,,,,,,,,,,,,,,,,,,,,,,,,,,,,,,,,,,,,,,,,,,,,,,,,,,,,,,,,,,412.2418565,412.2577867,412.7412823,412.7412823,412.7412823,412.7412823,412.758124,413.0416212,413.0416212,413.0416212,,413.0256073,m,413.0260066,413.0416212,414.0419925,414.0258321,0.2808627,None,,,,,,,,,,,,,,,,,,,,,,,,,,,,,,,,,,,,,,,,,,,,,,,,,,,,,,,,,,,,,,,,,,,,,,,,,,,,A_1_,1,2024-11-27_10h02.43.291,untitled,2024.1.5,None,2024-11-27 10h02.59.235206 +0530
square.png,stranger,1,M,,,,,,,,,44,1,177,0,,,,,,,,,414.0419925,,,,,,,,,,,,,,,,,,,,,,,,,,,,,,,,,,,,,,,,,,,,,,,,,,,,,,,,,,,,414.0261785,414.0419925,414.5256313,414.5256313,414.5256313,414.5256313,414.5422301,414.8255341,414.8255341,414.8255341,,414.8098755,m,414.8102871,414.8255341,415.8261327,415.8099088,0.2731664,None,,,,,,,,,,,,,,,,,,,,,,,,,,,,,,,,,,,,,,,,,,,,,,,,,,,,,,,,,,,,,,,,,,,,,,,,,,,,A_1_,1,2024-11-27_10h02.43.291,untitled,2024.1.5,None,2024-11-27 10h02.59.235206 +0530
square.png,you,0,Z,,,,,,,,,44,2,178,2,,,,,,,,,415.8261327,,,,,,,,,,,,,,,,,,,,,,,,,,,,,,,,,,,,,,,,,,,,,,,,,,,,,,,,,,,,415.8102578,415.8261327,416.3100041,416.3100041,416.3100041,416.3100041,416.3266185,416.609884,416.609884,416.609884,,416.6941077,m,416.6945049,416.7102094,417.7103794,417.6943346,0.3810685,None,,,,,,,,,,,,,,,,,,,,,,,,,,,,,,,,,,,,,,,,,,,,,,,,,,,,,,,,,,,,,,,,,,,,,,,,,,,,A_1_,1,2024-11-27_10h02.43.291,untitled,2024.1.5,None,2024-11-27 10h02.59.235206 +0530
triangle.png,stranger,0,Z,,,,,,,,,44,3,179,3,,,,,,,,,417.7103794,,,,,,,,,,,,,,,,,,,,,,,,,,,,,,,,,,,,,,,,,,,,,,,,,,,,,,,,,,,,417.6946855,417.7103794,418.1942326,418.1942326,418.1942326,418.1942326,418.2107479,418.4942611,418.4942611,418.4942611,,418.5281373,z,418.5285383,418.5442983,419.5448757,419.5285755,0.3231624,None,,,,,,,,,,,,,,,,,,,,,,,,,,,,,,,,,,,,,,,,,,,,,,,,,,,,,,,,,,,,,,,,,,,,,,,,,,,,A_1_,1,2024-11-27_10h02.43.291,untitled,2024.1.5,None,2024-11-27 10h02.59.235206 +0530
triangle.png,you,1,M,,,,,,,,,45,0,180,1,,,,,,,,,419.5448757,,,,,,,,,,,,,,,,,,,,,,,,,,,,,,,,,,,,,,,,,,,,,,,,,,,,,,,,,,,,419.5289315,419.5448757,420.028465,420.028465,420.028465,420.028465,420.0452097,420.3284094,420.3284094,420.3284094,,420.345767,z,420.3461626,420.3619217,421.3626831,421.3462649,0.302161,None,,,,,,,,,,,,,,,,,,,,,,,,,,,,,,,,,,,,,,,,,,,,,,,,,,,,,,,,,,,,,,,,,,,,,,,,,,,,A_1_,1,2024-11-27_10h02.43.291,untitled,2024.1.5,None,2024-11-27 10h02.59.235206 +0530
square.png,you,0,Z,,,,,,,,,45,1,181,2,,,,,,,,,421.3626831,,,,,,,,,,,,,,,,,,,,,,,,,,,,,,,,,,,,,,,,,,,,,,,,,,,,,,,,,,,,421.3466128,421.3626831,421.8459248,421.8459248,421.8459248,421.8459248,421.8626142,422.146249,422.146249,422.146249,,422.3301328,m,422.3305282,422.3462434,423.3468095,423.3305197,0.4811457,None,,,,,,,,,,,,,,,,,,,,,,,,,,,,,,,,,,,,,,,,,,,,,,,,,,,,,,,,,,,,,,,,,,,,,,,,,,,,A_1_,1,2024-11-27_10h02.43.291,untitled,2024.1.5,None,2024-11-27 10h02.59.235206 +0530
triangle.png,stranger,0,Z,,,,,,,,,45,2,182,3,,,,,,,,,423.3468095,,,,,,,,,,,,,,,,,,,,,,,,,,,,,,,,,,,,,,,,,,,,,,,,,,,,,,,,,,,,423.3308689,423.3468095,423.8305455,423.8305455,423.8305455,423.8305455,423.8469459,,,,,424.0812095,z,424.0816061,424.0970711,425.0978196,425.0813042,0.2429423,None,,,,,,,,,,,,,,,,,,,,,,,,,,,,,,,,,,,,,,,,,,,,,,,,,,,,,,,,,,,,,,,,,,,,,,,,,,,,A_1_,1,2024-11-27_10h02.43.291,untitled,2024.1.5,None,2024-11-27 10h02.59.235206 +0530
square.png,stranger,1,M,,,,,,,,,45,3,183,0,,,,,,,,,425.0978196,,,,,,,,,,,,,,,,,,,,,,,,,,,,,,,,,,,,,,,,,,,,,,,,,,,,,,,,,,,,425.0816562,425.0978196,425.5812329,425.5812329,425.5812329,425.5812329,425.5980942,,,,,425.6821875,z,425.682588,425.6979869,426.6985604,426.682263,0.0882069,None,,,,,,,,,,,,,,,,,,,,,,,,,,,,,,,,,,,,,,,,,,,,,,,,,,,,,,,,,,,,,,,,,,,,,,,,,,,,A_1_,1,2024-11-27_10h02.43.291,untitled,2024.1.5,None,2024-11-27 10h02.59.235206 +0530
square.png,you,0,Z,,,,,,,,,46,0,184,2,,,,,,,,,426.6985604,,,,,,,,,,,,,,,,,,,,,,,,,,,,,,,,,,,,,,,,,,,,,,,,,,,,,,,,,,,,426.6826124,426.6985604,427.1820101,427.1820101,427.1820101,427.1820101,427.1987256,427.4821702,427.4821702,427.4821702,428.2824598,428.2664674,None,428.2666571,428.2824598,429.2830455,429.2670374,,,,,,,,,,,,,,,,,,,,,,,,,,,,,,,,,,,,,,,,,,,,,,,,,,,,,,,,,,,,,,,,,,,,,,,,,,,,,,A_1_,1,2024-11-27_10h02.43.291,untitled,2024.1.5,None,2024-11-27 10h02.59.235206 +0530
triangle.png,you,1,M,,,,,,,,,46,1,185,1,,,,,,,,,429.2830455,,,,,,,,,,,,,,,,,,,,,,,,,,,,,,,,,,,,,,,,,,,,,,,,,,,,,,,,,,,,429.2674551,429.2830455,429.7835257,429.7835257,429.7835257,429.7835257,429.7835257,,,,,430.0344504,z,430.0348478,430.0499859,431.0506618,431.0344044,0.2348139,None,,,,,,,,,,,,,,,,,,,,,,,,,,,,,,,,,,,,,,,,,,,,,,,,,,,,,,,,,,,,,,,,,,,,,,,,,,,,A_1_,1,2024-11-27_10h02.43.291,untitled,2024.1.5,None,2024-11-27 10h02.59.235206 +0530
square.png,stranger,1,M,,,,,,,,,46,2,186,0,,,,,,,,,431.0506618,,,,,,,,,,,,,,,,,,,,,,,,,,,,,,,,,,,,,,,,,,,,,,,,,,,,,,,,,,,,431.0347527,431.0506618,431.5343024,431.5343024,431.5343024,431.5343024,431.5510509,431.8346313,431.8346313,431.8346313,,431.8354153,m,431.8358167,431.8511261,432.8516583,432.8353965,0.2951522,None,,,,,,,,,,,,,,,,,,,,,,,,,,,,,,,,,,,,,,,,,,,,,,,,,,,,,,,,,,,,,,,,,,,,,,,,,,,,A_1_,1,2024-11-27_10h02.43.291,untitled,2024.1.5,None,2024-11-27 10h02.59.235206 +0530
triangle.png,stranger,0,Z,,,,,,,,,46,3,187,3,,,,,,,,,432.8516583,,,,,,,,,,,,,,,,,,,,,,,,,,,,,,,,,,,,,,,,,,,,,,,,,,,,,,,,,,,,432.8358124,432.8516583,433.335312,433.335312,433.335312,433.335312,433.3517458,,,,,433.5861751,m,433.5865797,433.6020486,434.6026278,434.5864505,0.2393218,None,,,,,,,,,,,,,,,,,,,,,,,,,,,,,,,,,,,,,,,,,,,,,,,,,,,,,,,,,,,,,,,,,,,,,,,,,,,,A_1_,1,2024-11-27_10h02.43.291,untitled,2024.1.5,None,2024-11-27 10h02.59.235206 +0530
square.png,you,0,Z,,,,,,,,,47,0,188,2,,,,,,,,,434.6026278,,,,,,,,,,,,,,,,,,,,,,,,,,,,,,,,,,,,,,,,,,,,,,,,,,,,,,,,,,,,434.5867985,434.6026278,435.0862758,435.0862758,435.0862758,435.0862758,435.1030026,435.386057,435.386057,435.386057,,435.3869297,m,435.3873468,435.4028869,436.403345,436.387215,0.284767,None,,,,,,,,,,,,,,,,,,,,,,,,,,,,,,,,,,,,,,,,,,,,,,,,,,,,,,,,,,,,,,,,,,,,,,,,,,,,A_1_,1,2024-11-27_10h02.43.291,untitled,2024.1.5,None,2024-11-27 10h02.59.235206 +0530
square.png,stranger,1,M,,,,,,,,,47,1,189,0,,,,,,,,,436.403345,,,,,,,,,,,,,,,,,,,,,,,,,,,,,,,,,,,,,,,,,,,,,,,,,,,,,,,,,,,,436.3875804,436.403345,436.887335,436.887335,436.887335,436.887335,436.9036485,437.1872969,437.1872969,437.1872969,437.9875646,437.9712562,None,437.9714428,437.9875646,438.9882766,438.9719436,,,,,,,,,,,,,,,,,,,,,,,,,,,,,,,,,,,,,,,,,,,,,,,,,,,,,,,,,,,,,,,,,,,,,,,,,,,,,,A_1_,1,2024-11-27_10h02.43.291,untitled,2024.1.5,None,2024-11-27 10h02.59.235206 +0530
