stimulus,label,is_match,shouldpress,stimulus_2,label_2,is_match_2,shouldpress_2,p_trials.thisRepN,p_trials.thisTrialN,p_trials.thisN,p_trials.thisIndex,trials.thisRepN,trials.thisTrialN,trials.thisN,trials.thisIndex,p_trials_2.thisRepN,p_trials_2.thisTrialN,p_trials_2.thisN,p_trials_2.thisIndex,trials_2.thisRepN,trials_2.thisTrialN,trials_2.thisN,trials_2.thisIndex,thisRow.t,notes,Intruduction.started,text_3.started,key_resp_2.started,Intruduction.stopped,key_resp_2.keys,key_resp_2.rt,key_resp_2.duration,self_other_instructions.started,text_4.started,key_resp_3.started,self_other_instructions.stopped,key_resp_3.keys,key_resp_3.rt,key_resp_3.duration,self_other_info.started,square_image.started,triangle_image.started,self_label.started,other_label.started,key_resp_4.started,text_5.started,self_other_info.stopped,key_resp_4.keys,key_resp_4.rt,key_resp_4.duration,self_other_starting_2.started,text_6.started,key_resp_5.started,self_other_starting_2.stopped,key_resp_5.keys,key_resp_5.rt,key_resp_5.duration,practice1.started,p_fication.started,p_fixation_3.started,p_text.started,key_resp_p.started,p_image.started,p_fication.stopped,p_fixation_3.stopped,p_text.stopped,p_image.stopped,key_resp_p.stopped,practice1.stopped,key_resp_p.keys,p_feedback.started,text_15.started,p_feedback.stopped,key_resp_p.rt,key_resp_p.duration,text_15.stopped,start2.started,start_2.started,key_resp_11.started,start2.stopped,key_resp_11.keys,key_resp_11.rt,key_resp_11.duration,trial.started,fixation.started,fixation_3.started,text.started,key_resp.started,image.started,fixation.stopped,fixation_3.stopped,text.stopped,image.stopped,key_resp.stopped,trial.stopped,key_resp.keys,feedback.started,text_2.started,text_2.stopped,feedback.stopped,key_resp.rt,key_resp.duration,break_3.started,text_13.started,text_14.started,key_resp_10.started,text_13.stopped,break_3.stopped,key_resp_10.keys,key_resp_10.rt,key_resp_10.duration,self_other_instructions_2.started,text_10.started,key_resp_7.started,self_other_instructions_2.stopped,key_resp_7.keys,key_resp_7.rt,key_resp_7.duration,self_other_intro_2.started,circle_image.started,diamond_image.started,Disgusting_self_lable.started,Desirable_self_lable.started,key_resp_8.started,text_11.started,self_other_intro_2.stopped,key_resp_8.keys,key_resp_8.rt,key_resp_8.duration,self_other_starting_3.started,text_12.started,key_resp_9.started,self_other_starting_3.stopped,key_resp_9.keys,key_resp_9.rt,key_resp_9.duration,practice2.started,p_fixation_2.started,p_fixation_2.stopped,p_fixation_4.started,p_text_8.started,key_resp_6_p.started,p_image_2.started,p_fixation_4.stopped,p_text_8.stopped,p_image_2.stopped,practice2.stopped,key_resp_6_p.keys,key_resp_6_p.rt,key_resp_6_p.duration,feedback_2_p.started,text_16.started,text_16.stopped,feedback_2_p.stopped,key_resp_6_p.stopped,trial_2.started,fixation_2.started,fixation_4.started,text_8.started,key_resp_6.started,image_2.started,fixation_2.stopped,fixation_4.stopped,text_8.stopped,image_2.stopped,trial_2.stopped,key_resp_6.keys,key_resp_6.rt,key_resp_6.duration,feedback_2.started,text_9.started,text_9.stopped,feedback_2.stopped,key_resp_6.stopped,Thank_you.started,text_7.started,text_7.stopped,Thank_you.stopped,participant,session,date,expName,psychopyVersion,frameRate,expStart,
,,,,,,,,,,,,,,,,,,,,,,,,,,0.0026625000173226,0.006495199981145561,0.006495199981145561,7.49723889993038,space,7.476650699973106,None,,,,,,,,,,,,,,,,,,,,,,,,,,,,,,,,,,,,,,,,,,,,,,,,,,,,,,,,,,,,,,,,,,,,,,,,,,,,,,,,,,,,,,,,,,,,,,,,,,,,,,,,,,,,,,,,,,,,,,,,,,,,,,,,,,,,,,,,,,,,,,,,,,,A_6,001,2024-11-28_12h06.44.776,untitled,2024.1.5,None,2024-11-28 12h07.06.721246 +0530,
,,,,,,,,,,,,,,,,,,,,,,,,,,,,,,,,,7.497264700010419,7.511664599995129,7.511664599995129,31.2411209999118,space,23.724873299943283,None,,,,,,,,,,,,,,,,,,,,,,,,,,,,,,,,,,,,,,,,,,,,,,,,,,,,,,,,,,,,,,,,,,,,,,,,,,,,,,,,,,,,,,,,,,,,,,,,,,,,,,,,,,,,,,,,,,,,,,,,,,,,,,,,,,,,,,,,,,,,A_6,001,2024-11-28_12h06.44.776,untitled,2024.1.5,None,2024-11-28 12h07.06.721246 +0530,
,,,,,,,,,,,,,,,,,,,,,,,,,,,,,,,,,,,,,,,,31.24114769999869,31.273948699934408,31.273948699934408,31.273948699934408,31.273948699934408,31.273948699934408,31.273948699934408,98.54146689991467,space,67.26195880002342,None,,,,,,,,,,,,,,,,,,,,,,,,,,,,,,,,,,,,,,,,,,,,,,,,,,,,,,,,,,,,,,,,,,,,,,,,,,,,,,,,,,,,,,,,,,,,,,,,,,,,,,,,,,,,,,,,,,,,,,,,,,,,,,,,,A_6,001,2024-11-28_12h06.44.776,untitled,2024.1.5,None,2024-11-28 12h07.06.721246 +0530,
,,,,,,,,,,,,,,,,,,,,,,,,,,,,,,,,,,,,,,,,,,,,,,,,,,,98.54150029993616,98.55772449995857,98.55772449995857,107.5630987000186,space,8.998749800026417,None,,,,,,,,,,,,,,,,,,,,,,,,,,,,,,,,,,,,,,,,,,,,,,,,,,,,,,,,,,,,,,,,,,,,,,,,,,,,,,,,,,,,,,,,,,,,,,,,,,,,,,,,,,,,,,,,,,,,,,,,,,A_6,001,2024-11-28_12h06.44.776,untitled,2024.1.5,None,2024-11-28 12h07.06.721246 +0530,
triangle.png,stranger,0,Z,,,,,0,0,0,3,,,,,,,,,,,,,107.58000650000758,,,,,,,,,,,,,,,,,,,,,,,,,,,,,,,,,,107.56929249991663,107.58000650000758,108.07891119993292,108.07891119993292,108.07891119993292,108.07891119993292,108.0955294999294,108.37897379999049,108.37897379999049,108.37897379999049,109.17922159994487,109.16301889996976,None,109.16322589991614,109.17922159994487,110.16345589992125,,,,,,,,,,,,,,,,,,,,,,,,,,,,,,,,,,,,,,,,,,,,,,,,,,,,,,,,,,,,,,,,,,,,,,,,,,,,,,,,,,,,,,,,,,,,,,,,,,,,,,,,,,A_6,001,2024-11-28_12h06.44.776,untitled,2024.1.5,None,2024-11-28 12h07.06.721246 +0530,
triangle.png,you,1,M,,,,,0,1,1,1,,,,,,,,,,,,,110.18003199994564,,,,,,,,,,,,,,,,,,,,,,,,,,,,,,,,,,110.16369859990664,110.18003199994564,110.66361950000282,110.66361950000282,110.66361950000282,110.66361950000282,110.68028059997596,110.9635677000042,110.9635677000042,110.9635677000042,,111.48109499993734,m,111.4814250000054,111.49712079996243,112.48149139992893,0.8089184999698773,None,112.49765169993043,,,,,,,,,,,,,,,,,,,,,,,,,,,,,,,,,,,,,,,,,,,,,,,,,,,,,,,,,,,,,,,,,,,,,,,,,,,,,,,,,,,,,,,,,,,,,,,,,,,,,,,A_6,001,2024-11-28_12h06.44.776,untitled,2024.1.5,None,2024-11-28 12h07.06.721246 +0530,
square.png,you,0,Z,,,,,0,2,2,2,,,,,,,,,,,,,112.49765169993043,,,,,,,,,,,,,,,,,,,,,,,,,,,,,,,,,,112.48172359995078,112.49765169993043,112.98145720001776,112.98145720001776,112.98145720001776,112.98145720001776,112.99795819993597,113.28146999992896,113.28146999992896,113.28146999992896,,113.64896719995886,z,113.64921259996481,113.6649982999079,114.64928879996296,0.663171400083229,None,114.66538199991919,,,,,,,,,,,,,,,,,,,,,,,,,,,,,,,,,,,,,,,,,,,,,,,,,,,,,,,,,,,,,,,,,,,,,,,,,,,,,,,,,,,,,,,,,,,,,,,,,,,,,,,A_6,001,2024-11-28_12h06.44.776,untitled,2024.1.5,None,2024-11-28 12h07.06.721246 +0530,
square.png,stranger,1,M,,,,,0,3,3,0,,,,,,,,,,,,,114.66538199991919,,,,,,,,,,,,,,,,,,,,,,,,,,,,,,,,,,114.64951619994827,114.66538199991919,115.14918099995703,115.14918099995703,115.14918099995703,115.14918099995703,115.16562260000501,115.44916869990993,115.44916869990993,115.44916869990993,116.24956309993286,116.23345689999405,None,116.2335881999461,116.24956309993286,117.23383509996347,,,117.25015510001685,,,,,,,,,,,,,,,,,,,,,,,,,,,,,,,,,,,,,,,,,,,,,,,,,,,,,,,,,,,,,,,,,,,,,,,,,,,,,,,,,,,,,,,,,,,,,,,,,,,,,,,A_6,001,2024-11-28_12h06.44.776,untitled,2024.1.5,None,2024-11-28 12h07.06.721246 +0530,
triangle.png,you,1,M,,,,,1,0,4,1,,,,,,,,,,,,,117.25015510001685,,,,,,,,,,,,,,,,,,,,,,,,,,,,,,,,,,117.23406539997086,117.25015510001685,117.7504300000146,117.7504300000146,117.7504300000146,117.7504300000146,117.7504300000146,118.05046509997919,118.05046509997919,118.05046509997919,,118.76844999997411,m,118.76870179991238,118.78439029993024,119.76865609991364,1.0134221999906003,None,119.7848666999489,,,,,,,,,,,,,,,,,,,,,,,,,,,,,,,,,,,,,,,,,,,,,,,,,,,,,,,,,,,,,,,,,,,,,,,,,,,,,,,,,,,,,,,,,,,,,,,,,,,,,,,A_6,001,2024-11-28_12h06.44.776,untitled,2024.1.5,None,2024-11-28 12h07.06.721246 +0530,
square.png,stranger,1,M,,,,,1,1,5,0,,,,,,,,,,,,,119.7848666999489,,,,,,,,,,,,,,,,,,,,,,,,,,,,,,,,,,119.76888819993474,119.7848666999489,120.26859039999545,120.26859039999545,120.26859039999545,120.26859039999545,120.28495060000569,120.56855919992086,120.56855919992086,120.56855919992086,121.36907839996275,121.35257260000799,None,121.35270329995546,121.36907839996275,122.35341019998305,,,122.36947299994063,,,,,,,,,,,,,,,,,,,,,,,,,,,,,,,,,,,,,,,,,,,,,,,,,,,,,,,,,,,,,,,,,,,,,,,,,,,,,,,,,,,,,,,,,,,,,,,,,,,,,,,A_6,001,2024-11-28_12h06.44.776,untitled,2024.1.5,None,2024-11-28 12h07.06.721246 +0530,
square.png,you,0,Z,,,,,1,2,6,2,,,,,,,,,,,,,122.36947299994063,,,,,,,,,,,,,,,,,,,,,,,,,,,,,,,,,,122.35364159999881,122.36947299994063,122.87006979994476,122.87006979994476,122.87006979994476,122.87006979994476,122.87006979994476,123.16998959996272,123.16998959996272,123.16998959996272,,123.52067669993266,z,123.52092219993938,123.53684139996767,124.52108969993424,0.6489904000191018,None,124.53716379997786,,,,,,,,,,,,,,,,,,,,,,,,,,,,,,,,,,,,,,,,,,,,,,,,,,,,,,,,,,,,,,,,,,,,,,,,,,,,,,,,,,,,,,,,,,,,,,,,,,,,,,,A_6,001,2024-11-28_12h06.44.776,untitled,2024.1.5,None,2024-11-28 12h07.06.721246 +0530,
triangle.png,stranger,0,Z,,,,,1,3,7,3,,,,,,,,,,,,,124.53716379997786,,,,,,,,,,,,,,,,,,,,,,,,,,,,,,,,,,124.52132459997665,124.53716379997786,125.02122489991598,125.02122489991598,125.02122489991598,125.02122489991598,125.03748109994922,125.32104939990677,125.32104939990677,125.32104939990677,,125.97194610000588,z,125.97218879999127,125.98796910000965,126.97239050001372,0.9458546000532806,None,126.98852289991919,,,,,,,,,,,,,,,,,,,,,,,,,,,,,,,,,,,,,,,,,,,,,,,,,,,,,,,,,,,,,,,,,,,,,,,,,,,,,,,,,,,,,,,,,,,,,,,,,,,,,,,A_6,001,2024-11-28_12h06.44.776,untitled,2024.1.5,None,2024-11-28 12h07.06.721246 +0530,
square.png,you,0,Z,,,,,2,0,8,2,,,,,,,,,,,,,126.98852289991919,,,,,,,,,,,,,,,,,,,,,,,,,,,,,,,,,,126.97261749999598,126.98852289991919,127.47203860001173,127.47203860001173,127.47203860001173,127.47203860001173,127.48866889998317,127.77233409998007,127.77233409998007,127.77233409998007,,128.25654739991296,m,128.25679079990368,128.27252449991647,129.2566872999305,0.7765802999492735,None,129.27309239993338,,,,,,,,,,,,,,,,,,,,,,,,,,,,,,,,,,,,,,,,,,,,,,,,,,,,,,,,,,,,,,,,,,,,,,,,,,,,,,,,,,,,,,,,,,,,,,,,,,,,,,,A_6,001,2024-11-28_12h06.44.776,untitled,2024.1.5,None,2024-11-28 12h07.06.721246 +0530,
triangle.png,you,1,M,,,,,2,1,9,1,,,,,,,,,,,,,129.27309239993338,,,,,,,,,,,,,,,,,,,,,,,,,,,,,,,,,,129.25691819994245,129.27309239993338,129.7567213999573,129.7567213999573,129.7567213999573,129.7567213999573,129.77332319994457,130.0566308000125,130.0566308000125,130.0566308000125,,130.47446800000034,m,130.47471270000096,130.49040489993058,131.47440459998325,0.7110375999473035,None,131.49080829997547,,,,,,,,,,,,,,,,,,,,,,,,,,,,,,,,,,,,,,,,,,,,,,,,,,,,,,,,,,,,,,,,,,,,,,,,,,,,,,,,,,,,,,,,,,,,,,,,,,,,,,,A_6,001,2024-11-28_12h06.44.776,untitled,2024.1.5,None,2024-11-28 12h07.06.721246 +0530,
square.png,stranger,1,M,,,,,2,2,10,0,,,,,,,,,,,,,131.49080829997547,,,,,,,,,,,,,,,,,,,,,,,,,,,,,,,,,,131.47463179996703,131.49080829997547,131.9743790999055,131.9743790999055,131.9743790999055,131.9743790999055,131.99104250001255,132.27440749993548,132.27440749993548,132.27440749993548,,132.50880119996145,z,132.50904729997274,132.52472789993044,133.50896439992357,0.5257881000870839,None,133.52504719991703,,,,,,,,,,,,,,,,,,,,,,,,,,,,,,,,,,,,,,,,,,,,,,,,,,,,,,,,,,,,,,,,,,,,,,,,,,,,,,,,,,,,,,,,,,,,,,,,,,,,,,,A_6,001,2024-11-28_12h06.44.776,untitled,2024.1.5,None,2024-11-28 12h07.06.721246 +0530,
triangle.png,stranger,0,Z,,,,,2,3,11,3,,,,,,,,,,,,,133.52504719991703,,,,,,,,,,,,,,,,,,,,,,,,,,,,,,,,,,133.5091937999241,133.52504719991703,134.00881359993946,134.00881359993946,134.00881359993946,134.00881359993946,134.02564859995618,134.30898629990406,134.30898629990406,134.30898629990406,,134.6599585999502,m,134.6602019999409,134.67565170000307,135.65997879998758,0.6382129000267014,None,135.67643260001205,,,,,,,,,,,,,,,,,,,,,,,,,,,,,,,,,,,,,,,,,,,,,,,,,,,,,,,,,,,,,,,,,,,,,,,,,,,,,,,,,,,,,,,,,,,,,,,,,,,,,,,A_6,001,2024-11-28_12h06.44.776,untitled,2024.1.5,None,2024-11-28 12h07.06.721246 +0530,
square.png,stranger,1,M,,,,,3,0,12,0,,,,,,,,,,,,,135.67643260001205,,,,,,,,,,,,,,,,,,,,,,,,,,,,,,,,,,135.66025670000818,135.67643260001205,136.1600788999349,136.1600788999349,136.1600788999349,136.1600788999349,136.17677849996835,136.45998829999007,136.45998829999007,136.45998829999007,,137.161071099923,m,137.1613130000187,137.17694229993504,138.1614231999265,0.9958172000478953,None,138.17753430001903,,,,,,,,,,,,,,,,,,,,,,,,,,,,,,,,,,,,,,,,,,,,,,,,,,,,,,,,,,,,,,,,,,,,,,,,,,,,,,,,,,,,,,,,,,,,,,,,,,,,,,,A_6,001,2024-11-28_12h06.44.776,untitled,2024.1.5,None,2024-11-28 12h07.06.721246 +0530,
triangle.png,stranger,0,Z,,,,,3,1,13,3,,,,,,,,,,,,,138.17753430001903,,,,,,,,,,,,,,,,,,,,,,,,,,,,,,,,,,138.1616539999377,138.17753430001903,138.66112249996513,138.66112249996513,138.66112249996513,138.66112249996513,138.67803479998838,138.96087029995397,138.96087029995397,138.96087029995397,,139.32864409999456,m,139.3288925999077,139.34479120001197,140.32889849995263,0.658556199981831,None,140.34537110000383,,,,,,,,,,,,,,,,,,,,,,,,,,,,,,,,,,,,,,,,,,,,,,,,,,,,,,,,,,,,,,,,,,,,,,,,,,,,,,,,,,,,,,,,,,,,,,,,,,,,,,,A_6,001,2024-11-28_12h06.44.776,untitled,2024.1.5,None,2024-11-28 12h07.06.721246 +0530,
square.png,you,0,Z,,,,,3,2,14,2,,,,,,,,,,,,,140.34537110000383,,,,,,,,,,,,,,,,,,,,,,,,,,,,,,,,,,140.32913319999352,140.34537110000383,140.8291254999349,140.8291254999349,140.8291254999349,140.8291254999349,140.84549569990486,141.12905260000844,141.12905260000844,141.12905260000844,,141.74687389994506,z,141.74712810001802,141.76284280000255,142.7468993999064,0.9111505000619218,None,142.76325309998356,,,,,,,,,,,,,,,,,,,,,,,,,,,,,,,,,,,,,,,,,,,,,,,,,,,,,,,,,,,,,,,,,,,,,,,,,,,,,,,,,,,,,,,,,,,,,,,,,,,,,,,A_6,001,2024-11-28_12h06.44.776,untitled,2024.1.5,None,2024-11-28 12h07.06.721246 +0530,
triangle.png,you,1,M,,,,,3,3,15,1,,,,,,,,,,,,,142.76325309998356,,,,,,,,,,,,,,,,,,,,,,,,,,,,,,,,,,142.74712909990922,142.76325309998356,143.24705299991183,143.24705299991183,143.24705299991183,143.24705299991183,143.26377309998497,143.5468795999186,143.5468795999186,143.5468795999186,,143.83122309995815,m,143.83146729995497,143.8470647999784,144.83127979992423,0.5813187999883667,None,144.84772059996612,,,,,,,,,,,,,,,,,,,,,,,,,,,,,,,,,,,,,,,,,,,,,,,,,,,,,,,,,,,,,,,,,,,,,,,,,,,,,,,,,,,,,,,,,,,,,,,,,,,,,,,A_6,001,2024-11-28_12h06.44.776,untitled,2024.1.5,None,2024-11-28 12h07.06.721246 +0530,
triangle.png,stranger,0,Z,,,,,4,0,16,3,,,,,,,,,,,,,144.84772059996612,,,,,,,,,,,,,,,,,,,,,,,,,,,,,,,,,,144.8315082999179,144.84772059996612,145.33147219999228,145.33147219999228,145.33147219999228,145.33147219999228,145.34781269996893,145.6314903999446,145.6314903999446,145.6314903999446,,146.08219609991647,z,146.0824404999148,146.09837139991578,147.0824037999846,0.7412238999968395,None,147.09893879992887,,,,,,,,,,,,,,,,,,,,,,,,,,,,,,,,,,,,,,,,,,,,,,,,,,,,,,,,,,,,,,,,,,,,,,,,,,,,,,,,,,,,,,,,,,,,,,,,,,,,,,,A_6,001,2024-11-28_12h06.44.776,untitled,2024.1.5,None,2024-11-28 12h07.06.721246 +0530,
square.png,you,0,Z,,,,,4,1,17,2,,,,,,,,,,,,,147.09893879992887,,,,,,,,,,,,,,,,,,,,,,,,,,,,,,,,,,147.0826309999684,147.09893879992887,147.5826187999919,147.5826187999919,147.5826187999919,147.5826187999919,147.5990543999942,147.88245789997745,147.88245789997745,147.88245789997745,,148.38345159997698,z,148.38369599997532,148.39945909997914,149.3838447999442,0.793487099930644,None,149.40031930000987,,,,,,,,,,,,,,,,,,,,,,,,,,,,,,,,,,,,,,,,,,,,,,,,,,,,,,,,,,,,,,,,,,,,,,,,,,,,,,,,,,,,,,,,,,,,,,,,,,,,,,,A_6,001,2024-11-28_12h06.44.776,untitled,2024.1.5,None,2024-11-28 12h07.06.721246 +0530,
triangle.png,you,1,M,,,,,4,2,18,1,,,,,,,,,,,,,149.40031930000987,,,,,,,,,,,,,,,,,,,,,,,,,,,,,,,,,,149.38414149999153,149.40031930000987,149.88392739999108,149.88392739999108,149.88392739999108,149.88392739999108,149.90029119991232,150.18362599995453,150.18362599995453,150.18362599995453,,150.65136019990314,m,150.6516038000118,150.667461099918,151.65142249991186,0.7551909999456257,None,151.6677428999683,,,,,,,,,,,,,,,,,,,,,,,,,,,,,,,,,,,,,,,,,,,,,,,,,,,,,,,,,,,,,,,,,,,,,,,,,,,,,,,,,,,,,,,,,,,,,,,,,,,,,,,A_6,001,2024-11-28_12h06.44.776,untitled,2024.1.5,None,2024-11-28 12h07.06.721246 +0530,
square.png,stranger,1,M,,,,,4,3,19,0,,,,,,,,,,,,,151.6677428999683,,,,,,,,,,,,,,,,,,,,,,,,,,,,,,,,,,151.6516504000174,151.6677428999683,152.15174230001867,152.15174230001867,152.15174230001867,152.15174230001867,152.16809529997408,152.4514751000097,152.4514751000097,152.4514751000097,,152.9357708999887,m,152.93601780000608,152.9518864999991,153.93618129997049,0.779405300039798,None,153.95253809995484,,,,,,,,,,,,,,,,,,,,,,,,,,,,,,,,,,,,,,,,,,,,,,,,,,,,,,,,,,,,,,,,,,,,,,,,,,,,,,,,,,,,,,,,,,,,,,,,,,,,,,,A_6,001,2024-11-28_12h06.44.776,untitled,2024.1.5,None,2024-11-28 12h07.06.721246 +0530,
,,,,,,,,,,,,,,,,,,,,,,,,,,,,,,,,,,,,,,,,,,,,,,,,,,,,,,,,,,,,,,,,,,,,,,,,,,,,,153.9362275999738,153.95253809995484,153.95253809995484,155.53719559998717,space,1.580006800009869,None,,,,,,,,,,,,,,,,,,,,,,,,,,,,,,,,,,,,,,,,,,,,,,,,,,,,,,,,,,,,,,,,,,,,,,,,,,,,,,,,,,,,,,,,,,,,,,,,A_6,001,2024-11-28_12h06.44.776,untitled,2024.1.5,None,2024-11-28 12h07.06.721246 +0530,
triangle.png,stranger,0,Z,,,,,,,,,0,0,0,3,,,,,,,,,155.5533200999489,,,,,,,,,,,,,,,,,,,,,,,,,,,,,,,,,,,,,,,,,,,,,,,,,,,,,,,,,,,,155.54244180000387,155.5533200999489,156.03680709993932,156.03680709993932,156.03680709993932,156.03680709993932,156.05358979990706,156.33677269995678,156.33677269995678,156.33677269995678,157.1371890999144,157.12109079991933,None,157.12141199992038,157.1371890999144,158.1379163999809,158.1216163999634,,,,,,,,,,,,,,,,,,,,,,,,,,,,,,,,,,,,,,,,,,,,,,,,,,,,,,,,,,,,,,,,,,,,,,,,,,,,,,,A_6,001,2024-11-28_12h06.44.776,untitled,2024.1.5,None,2024-11-28 12h07.06.721246 +0530,
square.png,stranger,1,M,,,,,,,,,0,1,1,0,,,,,,,,,158.1379163999809,,,,,,,,,,,,,,,,,,,,,,,,,,,,,,,,,,,,,,,,,,,,,,,,,,,,,,,,,,,,158.12196969997603,158.1379163999809,158.63822510000318,158.63822510000318,158.63822510000318,158.63822510000318,158.63822510000318,158.93833509995602,158.93833509995602,158.93833509995602,,159.4392125000013,z,159.43979829992168,159.45528310001828,160.4558457999956,160.43949749995954,0.7943498999811709,None,,,,,,,,,,,,,,,,,,,,,,,,,,,,,,,,,,,,,,,,,,,,,,,,,,,,,,,,,,,,,,,,,,,,,,,,,,,,,A_6,001,2024-11-28_12h06.44.776,untitled,2024.1.5,None,2024-11-28 12h07.06.721246 +0530,
square.png,you,0,Z,,,,,,,,,0,2,2,2,,,,,,,,,160.4558457999956,,,,,,,,,,,,,,,,,,,,,,,,,,,,,,,,,,,,,,,,,,,,,,,,,,,,,,,,,,,,160.4398450999288,160.4558457999956,160.9393064000178,160.9393064000178,160.9393064000178,160.9393064000178,160.95603859995026,161.23940879991278,161.23940879991278,161.23940879991278,162.03994249994867,162.02372639998794,None,162.0239106999943,162.03994249994867,163.04054089996498,163.02411339990795,,,,,,,,,,,,,,,,,,,,,,,,,,,,,,,,,,,,,,,,,,,,,,,,,,,,,,,,,,,,,,,,,,,,,,,,,,,,,,,A_6,001,2024-11-28_12h06.44.776,untitled,2024.1.5,None,2024-11-28 12h07.06.721246 +0530,
triangle.png,you,1,M,,,,,,,,,0,3,3,1,,,,,,,,,163.04054089996498,,,,,,,,,,,,,,,,,,,,,,,,,,,,,,,,,,,,,,,,,,,,,,,,,,,,,,,,,,,,163.02445629995782,163.04054089996498,163.54065099998843,163.54065099998843,163.54065099998843,163.54065099998843,163.54065099998843,163.840850199922,163.840850199922,163.840850199922,,163.99158939998597,m,163.99203259998467,164.00733779999427,165.00796129996888,164.99172129994258,0.435160499997437,None,,,,,,,,,,,,,,,,,,,,,,,,,,,,,,,,,,,,,,,,,,,,,,,,,,,,,,,,,,,,,,,,,,,,,,,,,,,,,A_6,001,2024-11-28_12h06.44.776,untitled,2024.1.5,None,2024-11-28 12h07.06.721246 +0530,
square.png,you,0,Z,,,,,,,,,1,0,4,2,,,,,,,,,165.00796129996888,,,,,,,,,,,,,,,,,,,,,,,,,,,,,,,,,,,,,,,,,,,,,,,,,,,,,,,,,,,,164.992070499924,165.00796129996888,165.4916112999199,165.4916112999199,165.4916112999199,165.4916112999199,165.50825459999032,165.79166409990285,165.79166409990285,165.79166409990285,,166.09256299992558,m,166.0930086999433,166.10831609996967,167.10938099992927,167.09307309996802,0.5920963999815285,None,,,,,,,,,,,,,,,,,,,,,,,,,,,,,,,,,,,,,,,,,,,,,,,,,,,,,,,,,,,,,,,,,,,,,,,,,,,,,A_6,001,2024-11-28_12h06.44.776,untitled,2024.1.5,None,2024-11-28 12h07.06.721246 +0530,
triangle.png,stranger,0,Z,,,,,,,,,1,1,5,3,,,,,,,,,167.10938099992927,,,,,,,,,,,,,,,,,,,,,,,,,,,,,,,,,,,,,,,,,,,,,,,,,,,,,,,,,,,,167.09342689998448,167.10938099992927,167.59274079999886,167.59274079999886,167.59274079999886,167.59274079999886,167.60939709993545,167.892832399928,167.892832399928,167.892832399928,,168.07721689995378,m,168.07764239993412,168.0928570999531,169.09373219998088,169.07722939993255,0.48234129999764264,None,,,,,,,,,,,,,,,,,,,,,,,,,,,,,,,,,,,,,,,,,,,,,,,,,,,,,,,,,,,,,,,,,,,,,,,,,,,,,A_6,001,2024-11-28_12h06.44.776,untitled,2024.1.5,None,2024-11-28 12h07.06.721246 +0530,
triangle.png,you,1,M,,,,,,,,,1,2,6,1,,,,,,,,,169.09373219998088,,,,,,,,,,,,,,,,,,,,,,,,,,,,,,,,,,,,,,,,,,,,,,,,,,,,,,,,,,,,169.0775826999452,169.09373219998088,169.57722370000556,169.57722370000556,169.57722370000556,169.57722370000556,169.59360729996115,169.87721359997522,169.87721359997522,169.87721359997522,,170.1615452999249,m,170.16197409993038,170.17721779993735,171.17792669998016,171.16174229991157,0.5755801999475807,None,,,,,,,,,,,,,,,,,,,,,,,,,,,,,,,,,,,,,,,,,,,,,,,,,,,,,,,,,,,,,,,,,,,,,,,,,,,,,A_6,001,2024-11-28_12h06.44.776,untitled,2024.1.5,None,2024-11-28 12h07.06.721246 +0530,
square.png,stranger,1,M,,,,,,,,,1,3,7,0,,,,,,,,,171.17792669998016,,,,,,,,,,,,,,,,,,,,,,,,,,,,,,,,,,,,,,,,,,,,,,,,,,,,,,,,,,,,171.1621481999755,171.17792669998016,171.66155319998506,171.66155319998506,171.66155319998506,171.66155319998506,171.67824649997056,171.96180279995315,171.96180279995315,171.96180279995315,,172.2792191999033,m,172.27963899995666,172.29521229991224,173.29549950000364,173.27961610001512,0.6063301999820396,None,,,,,,,,,,,,,,,,,,,,,,,,,,,,,,,,,,,,,,,,,,,,,,,,,,,,,,,,,,,,,,,,,,,,,,,,,,,,,A_6,001,2024-11-28_12h06.44.776,untitled,2024.1.5,None,2024-11-28 12h07.06.721246 +0530,
square.png,stranger,1,M,,,,,,,,,2,0,8,0,,,,,,,,,173.29549950000364,,,,,,,,,,,,,,,,,,,,,,,,,,,,,,,,,,,,,,,,,,,,,,,,,,,,,,,,,,,,173.27996730001178,173.29549950000364,173.7794598999899,173.7794598999899,173.7794598999899,173.7794598999899,173.79612899990752,174.0794731999049,174.0794731999049,174.0794731999049,,174.29685259994585,z,174.29732609994244,174.3128965999931,175.3132106999401,175.29701669991482,0.5016227000160143,None,,,,,,,,,,,,,,,,,,,,,,,,,,,,,,,,,,,,,,,,,,,,,,,,,,,,,,,,,,,,,,,,,,,,,,,,,,,,,A_6,001,2024-11-28_12h06.44.776,untitled,2024.1.5,None,2024-11-28 12h07.06.721246 +0530,
triangle.png,stranger,0,Z,,,,,,,,,2,1,9,3,,,,,,,,,175.3132106999401,,,,,,,,,,,,,,,,,,,,,,,,,,,,,,,,,,,,,,,,,,,,,,,,,,,,,,,,,,,,175.297362399986,175.3132106999401,175.7969068000093,175.7969068000093,175.7969068000093,175.7969068000093,175.8137588999234,176.0971074999543,176.0971074999543,176.0971074999543,,176.66451249993406,z,176.66493450000416,176.68066179996822,177.68106769991573,177.66474999999627,0.8662262000143528,None,,,,,,,,,,,,,,,,,,,,,,,,,,,,,,,,,,,,,,,,,,,,,,,,,,,,,,,,,,,,,,,,,,,,,,,,,,,,,A_6,001,2024-11-28_12h06.44.776,untitled,2024.1.5,None,2024-11-28 12h07.06.721246 +0530,
triangle.png,you,1,M,,,,,,,,,2,2,10,1,,,,,,,,,177.68106769991573,,,,,,,,,,,,,,,,,,,,,,,,,,,,,,,,,,,,,,,,,,,,,,,,,,,,,,,,,,,,177.6651023000013,177.68106769991573,178.1649273999501,178.1649273999501,178.1649273999501,178.1649273999501,178.18142089992762,178.4645800999133,178.4645800999133,178.4645800999133,,178.83242799993604,m,178.83285899995826,178.84842429996934,179.8491009999998,179.83260630001314,0.6595575000392273,None,,,,,,,,,,,,,,,,,,,,,,,,,,,,,,,,,,,,,,,,,,,,,,,,,,,,,,,,,,,,,,,,,,,,,,,,,,,,,A_6,001,2024-11-28_12h06.44.776,untitled,2024.1.5,None,2024-11-28 12h07.06.721246 +0530,
square.png,you,0,Z,,,,,,,,,2,3,11,2,,,,,,,,,179.8491009999998,,,,,,,,,,,,,,,,,,,,,,,,,,,,,,,,,,,,,,,,,,,,,,,,,,,,,,,,,,,,179.83295349997934,179.8491009999998,180.33258899999782,180.33258899999782,180.33258899999782,180.33258899999782,180.3493829999352,180.63282609998714,180.63282609998714,180.63282609998714,181.43309720000252,181.41670299996622,None,181.41689559991937,181.43309720000252,182.4336777999997,182.41740219993517,,,,,,,,,,,,,,,,,,,,,,,,,,,,,,,,,,,,,,,,,,,,,,,,,,,,,,,,,,,,,,,,,,,,,,,,,,,,,,,A_6,001,2024-11-28_12h06.44.776,untitled,2024.1.5,None,2024-11-28 12h07.06.721246 +0530,
triangle.png,you,1,M,,,,,,,,,3,0,12,1,,,,,,,,,182.4336777999997,,,,,,,,,,,,,,,,,,,,,,,,,,,,,,,,,,,,,,,,,,,,,,,,,,,,,,,,,,,,182.41774940001778,182.4336777999997,182.93411279993597,182.93411279993597,182.93411279993597,182.93411279993597,182.93411279993597,183.23383389995433,183.23383389995433,183.23383389995433,,183.51832119992469,m,183.5187415999826,183.53427519998513,184.5347792999819,184.51845189998858,0.5786087999586016,None,,,,,,,,,,,,,,,,,,,,,,,,,,,,,,,,,,,,,,,,,,,,,,,,,,,,,,,,,,,,,,,,,,,,,,,,,,,,,A_6,001,2024-11-28_12h06.44.776,untitled,2024.1.5,None,2024-11-28 12h07.06.721246 +0530,
square.png,you,0,Z,,,,,,,,,3,1,13,2,,,,,,,,,184.5347792999819,,,,,,,,,,,,,,,,,,,,,,,,,,,,,,,,,,,,,,,,,,,,,,,,,,,,,,,,,,,,184.51880259998143,184.5347792999819,185.018501500017,185.018501500017,185.018501500017,185.018501500017,185.0351706999354,185.31843629991636,185.31843629991636,185.31843629991636,,185.869307499961,m,185.8697335999459,185.88547049998306,186.88601609994657,186.86961309995968,0.8495162000181153,None,,,,,,,,,,,,,,,,,,,,,,,,,,,,,,,,,,,,,,,,,,,,,,,,,,,,,,,,,,,,,,,,,,,,,,,,,,,,,A_6,001,2024-11-28_12h06.44.776,untitled,2024.1.5,None,2024-11-28 12h07.06.721246 +0530,
triangle.png,stranger,0,Z,,,,,,,,,3,2,14,3,,,,,,,,,186.88601609994657,,,,,,,,,,,,,,,,,,,,,,,,,,,,,,,,,,,,,,,,,,,,,,,,,,,,,,,,,,,,186.8699604999274,186.88601609994657,187.36982679995708,187.36982679995708,187.36982679995708,187.36982679995708,187.3861603999976,187.66966979997233,187.66966979997233,187.66966979997233,,188.237553199986,m,188.2379740999313,188.25349349994212,189.25371630000882,189.2377855000086,0.8611969000194222,None,,,,,,,,,,,,,,,,,,,,,,,,,,,,,,,,,,,,,,,,,,,,,,,,,,,,,,,,,,,,,,,,,,,,,,,,,,,,,A_6,001,2024-11-28_12h06.44.776,untitled,2024.1.5,None,2024-11-28 12h07.06.721246 +0530,
square.png,stranger,1,M,,,,,,,,,3,3,15,0,,,,,,,,,189.25371630000882,,,,,,,,,,,,,,,,,,,,,,,,,,,,,,,,,,,,,,,,,,,,,,,,,,,,,,,,,,,,189.23813539999537,189.25371630000882,189.73764830001164,189.73764830001164,189.73764830001164,189.73764830001164,189.75424849998672,190.0373990999069,190.0373990999069,190.0373990999069,,190.47172679996584,m,190.47215239994694,190.4877650999697,191.4884245999856,191.47190869995393,0.7293464998947456,None,,,,,,,,,,,,,,,,,,,,,,,,,,,,,,,,,,,,,,,,,,,,,,,,,,,,,,,,,,,,,,,,,,,,,,,,,,,,,A_6,001,2024-11-28_12h06.44.776,untitled,2024.1.5,None,2024-11-28 12h07.06.721246 +0530,
triangle.png,stranger,0,Z,,,,,,,,,4,0,16,3,,,,,,,,,191.4884245999856,,,,,,,,,,,,,,,,,,,,,,,,,,,,,,,,,,,,,,,,,,,,,,,,,,,,,,,,,,,,191.47225759993307,191.4884245999856,191.97216339991428,191.97216339991428,191.97216339991428,191.97216339991428,191.98875869996846,192.27214909996837,192.27214909996837,192.27214909996837,,192.73970729997382,z,192.7402063999325,192.75561059999745,193.7561929000076,193.73988090001512,0.7564300000667572,None,,,,,,,,,,,,,,,,,,,,,,,,,,,,,,,,,,,,,,,,,,,,,,,,,,,,,,,,,,,,,,,,,,,,,,,,,,,,,A_6,001,2024-11-28_12h06.44.776,untitled,2024.1.5,None,2024-11-28 12h07.06.721246 +0530,
triangle.png,you,1,M,,,,,,,,,4,1,17,1,,,,,,,,,193.7561929000076,,,,,,,,,,,,,,,,,,,,,,,,,,,,,,,,,,,,,,,,,,,,,,,,,,,,,,,,,,,,193.74022959999274,193.7561929000076,194.23981279996224,194.23981279996224,194.23981279996224,194.23981279996224,194.25653249991592,194.53990269999485,194.53990269999485,194.53990269999485,,194.69080549990758,m,194.6912284999853,194.7069051999133,195.7070108000189,195.69096989999525,0.44447530002798885,None,,,,,,,,,,,,,,,,,,,,,,,,,,,,,,,,,,,,,,,,,,,,,,,,,,,,,,,,,,,,,,,,,,,,,,,,,,,,,A_6,001,2024-11-28_12h06.44.776,untitled,2024.1.5,None,2024-11-28 12h07.06.721246 +0530,
square.png,you,0,Z,,,,,,,,,4,2,18,2,,,,,,,,,195.7070108000189,,,,,,,,,,,,,,,,,,,,,,,,,,,,,,,,,,,,,,,,,,,,,,,,,,,,,,,,,,,,195.69137739995494,195.7070108000189,196.1907131000189,196.1907131000189,196.1907131000189,196.1907131000189,196.2076849999139,196.49097189994063,196.49097189994063,196.49097189994063,197.291392599931,197.27484219998587,None,197.2750314999139,197.291392599931,198.2919407999143,198.2753953000065,,,,,,,,,,,,,,,,,,,,,,,,,,,,,,,,,,,,,,,,,,,,,,,,,,,,,,,,,,,,,,,,,,,,,,,,,,,,,,,A_6,001,2024-11-28_12h06.44.776,untitled,2024.1.5,None,2024-11-28 12h07.06.721246 +0530,
square.png,stranger,1,M,,,,,,,,,4,3,19,0,,,,,,,,,198.2919407999143,,,,,,,,,,,,,,,,,,,,,,,,,,,,,,,,,,,,,,,,,,,,,,,,,,,,,,,,,,,,198.27574139996432,198.2919407999143,198.79228479997255,198.79228479997255,198.79228479997255,198.79228479997255,198.79228479997255,199.09229719999712,199.09229719999712,199.09229719999712,,199.30954419996124,m,199.30996509990655,199.32559369993396,200.32623389991932,200.31013459991664,0.5066852000309154,None,,,,,,,,,,,,,,,,,,,,,,,,,,,,,,,,,,,,,,,,,,,,,,,,,,,,,,,,,,,,,,,,,,,,,,,,,,,,,A_6,001,2024-11-28_12h06.44.776,untitled,2024.1.5,None,2024-11-28 12h07.06.721246 +0530,
triangle.png,you,1,M,,,,,,,,,5,0,20,1,,,,,,,,,200.32623389991932,,,,,,,,,,,,,,,,,,,,,,,,,,,,,,,,,,,,,,,,,,,,,,,,,,,,,,,,,,,,200.310484000016,200.32623389991932,200.80980259994976,200.80980259994976,200.80980259994976,200.80980259994976,200.82646259991452,201.10965709993616,201.10965709993616,201.10965709993616,,201.3774102999596,m,201.37783669994678,201.3934392000083,202.39393219992053,202.3777465999592,0.5581070999614894,None,,,,,,,,,,,,,,,,,,,,,,,,,,,,,,,,,,,,,,,,,,,,,,,,,,,,,,,,,,,,,,,,,,,,,,,,,,,,,A_6,001,2024-11-28_12h06.44.776,untitled,2024.1.5,None,2024-11-28 12h07.06.721246 +0530,
square.png,you,0,Z,,,,,,,,,5,1,21,2,,,,,,,,,202.39393219992053,,,,,,,,,,,,,,,,,,,,,,,,,,,,,,,,,,,,,,,,,,,,,,,,,,,,,,,,,,,,202.37809999997262,202.39393219992053,202.8776640999131,202.8776640999131,202.8776640999131,202.8776640999131,202.89423609990627,203.17779739992693,203.17779739992693,203.17779739992693,,203.36195209994912,z,203.3623726000078,203.3778935999144,204.37828309996985,204.36207879998256,0.4820361000020057,None,,,,,,,,,,,,,,,,,,,,,,,,,,,,,,,,,,,,,,,,,,,,,,,,,,,,,,,,,,,,,,,,,,,,,,,,,,,,,A_6,001,2024-11-28_12h06.44.776,untitled,2024.1.5,None,2024-11-28 12h07.06.721246 +0530,
square.png,stranger,1,M,,,,,,,,,5,2,22,0,,,,,,,,,204.37828309996985,,,,,,,,,,,,,,,,,,,,,,,,,,,,,,,,,,,,,,,,,,,,,,,,,,,,,,,,,,,,204.3624232999282,204.37828309996985,204.86206259997562,204.86206259997562,204.86206259997562,204.86206259997562,204.87854049995076,205.16195809992496,205.16195809992496,205.16195809992496,,205.6297431999119,z,205.63015959993936,205.64552559994627,206.64610979997087,206.62977699993644,0.7610541000030935,None,,,,,,,,,,,,,,,,,,,,,,,,,,,,,,,,,,,,,,,,,,,,,,,,,,,,,,,,,,,,,,,,,,,,,,,,,,,,,A_6,001,2024-11-28_12h06.44.776,untitled,2024.1.5,None,2024-11-28 12h07.06.721246 +0530,
triangle.png,stranger,0,Z,,,,,,,,,5,3,23,3,,,,,,,,,206.64610979997087,,,,,,,,,,,,,,,,,,,,,,,,,,,,,,,,,,,,,,,,,,,,,,,,,,,,,,,,,,,,206.63012350001372,206.64610979997087,207.12993639998604,207.12993639998604,207.12993639998604,207.12993639998604,207.1465171999298,207.42977499996778,207.42977499996778,207.42977499996778,,207.58065469993744,m,207.58107720001135,207.59671869990416,208.59710999997333,208.58098149998114,0.44513499992899597,None,,,,,,,,,,,,,,,,,,,,,,,,,,,,,,,,,,,,,,,,,,,,,,,,,,,,,,,,,,,,,,,,,,,,,,,,,,,,,A_6,001,2024-11-28_12h06.44.776,untitled,2024.1.5,None,2024-11-28 12h07.06.721246 +0530,
triangle.png,stranger,0,Z,,,,,,,,,6,0,24,3,,,,,,,,,208.59710999997333,,,,,,,,,,,,,,,,,,,,,,,,,,,,,,,,,,,,,,,,,,,,,,,,,,,,,,,,,,,,208.58132459991612,208.59710999997333,209.0806604999816,209.0806604999816,209.0806604999816,209.0806604999816,209.09768589993473,209.38070270000026,209.38070270000026,209.38070270000026,,209.68177159992047,z,209.68219730001874,209.69754869991448,210.69825169991236,210.68194429995492,0.5877094999887049,None,,,,,,,,,,,,,,,,,,,,,,,,,,,,,,,,,,,,,,,,,,,,,,,,,,,,,,,,,,,,,,,,,,,,,,,,,,,,,A_6,001,2024-11-28_12h06.44.776,untitled,2024.1.5,None,2024-11-28 12h07.06.721246 +0530,
square.png,you,0,Z,,,,,,,,,6,1,25,2,,,,,,,,,210.69825169991236,,,,,,,,,,,,,,,,,,,,,,,,,,,,,,,,,,,,,,,,,,,,,,,,,,,,,,,,,,,,210.68229039991274,210.69825169991236,211.18195299990475,211.18195299990475,211.18195299990475,211.18195299990475,211.19835799990688,211.48172939999495,211.48172939999495,211.48172939999495,,211.89942799997516,m,211.89984869991895,211.91556330001913,212.91580409999005,212.89988159993663,0.7058695000596344,None,,,,,,,,,,,,,,,,,,,,,,,,,,,,,,,,,,,,,,,,,,,,,,,,,,,,,,,,,,,,,,,,,,,,,,,,,,,,,A_6,001,2024-11-28_12h06.44.776,untitled,2024.1.5,None,2024-11-28 12h07.06.721246 +0530,
square.png,stranger,1,M,,,,,,,,,6,2,26,0,,,,,,,,,212.91580409999005,,,,,,,,,,,,,,,,,,,,,,,,,,,,,,,,,,,,,,,,,,,,,,,,,,,,,,,,,,,,212.9002319999272,212.91580409999005,213.39960080001038,213.39960080001038,213.39960080001038,213.39960080001038,213.41639389994089,213.69957149995025,213.69957149995025,213.69957149995025,,214.05064579995815,z,214.0510656000115,214.06665649998467,215.06697419995908,215.050996499951,0.6394403999438509,None,,,,,,,,,,,,,,,,,,,,,,,,,,,,,,,,,,,,,,,,,,,,,,,,,,,,,,,,,,,,,,,,,,,,,,,,,,,,,A_6,001,2024-11-28_12h06.44.776,untitled,2024.1.5,None,2024-11-28 12h07.06.721246 +0530,
triangle.png,you,1,M,,,,,,,,,6,3,27,1,,,,,,,,,215.06697419995908,,,,,,,,,,,,,,,,,,,,,,,,,,,,,,,,,,,,,,,,,,,,,,,,,,,,,,,,,,,,215.05134429992177,215.06697419995908,215.55090399994515,215.55090399994515,215.55090399994515,215.55090399994515,215.5674685999984,215.85067009995691,215.85067009995691,215.85067009995691,,216.03491799999028,m,216.0353437999729,216.05087379994802,217.05119689996354,217.03511319996323,0.4761152999708429,None,,,,,,,,,,,,,,,,,,,,,,,,,,,,,,,,,,,,,,,,,,,,,,,,,,,,,,,,,,,,,,,,,,,,,,,,,,,,,A_6,001,2024-11-28_12h06.44.776,untitled,2024.1.5,None,2024-11-28 12h07.06.721246 +0530,
triangle.png,stranger,0,Z,,,,,,,,,7,0,28,3,,,,,,,,,217.05119689996354,,,,,,,,,,,,,,,,,,,,,,,,,,,,,,,,,,,,,,,,,,,,,,,,,,,,,,,,,,,,217.03546769998502,217.05119689996354,217.53502959990874,217.53502959990874,217.53502959990874,217.53502959990874,217.55181029997766,217.83514159999322,217.83514159999322,217.83514159999322,,218.28636739996728,z,218.2867952999659,218.30212409992237,219.30243769998197,219.28639849997126,0.7493365999544039,None,,,,,,,,,,,,,,,,,,,,,,,,,,,,,,,,,,,,,,,,,,,,,,,,,,,,,,,,,,,,,,,,,,,,,,,,,,,,,A_6,001,2024-11-28_12h06.44.776,untitled,2024.1.5,None,2024-11-28 12h07.06.721246 +0530,
triangle.png,you,1,M,,,,,,,,,7,1,29,1,,,,,,,,,219.30243769998197,,,,,,,,,,,,,,,,,,,,,,,,,,,,,,,,,,,,,,,,,,,,,,,,,,,,,,,,,,,,219.28674060001504,219.30243769998197,219.78646829992067,219.78646829992067,219.78646829992067,219.78646829992067,219.8029376999475,220.08643619995564,220.08643619995564,220.08643619995564,,220.5204125000164,m,220.52083179994952,220.53666380001232,221.53725860000122,221.5207363999216,0.7218453000532463,None,,,,,,,,,,,,,,,,,,,,,,,,,,,,,,,,,,,,,,,,,,,,,,,,,,,,,,,,,,,,,,,,,,,,,,,,,,,,,A_6,001,2024-11-28_12h06.44.776,untitled,2024.1.5,None,2024-11-28 12h07.06.721246 +0530,
square.png,you,0,Z,,,,,,,,,7,2,30,2,,,,,,,,,221.53725860000122,,,,,,,,,,,,,,,,,,,,,,,,,,,,,,,,,,,,,,,,,,,,,,,,,,,,,,,,,,,,221.52108159998897,221.53725860000122,222.02060009993147,222.02060009993147,222.02060009993147,222.02060009993147,222.03750629990827,222.32069389999378,222.32069389999378,222.32069389999378,,222.73840379994363,z,222.73882580001373,222.7543814999517,223.75496149994433,223.7384990999708,0.7078591000754386,None,,,,,,,,,,,,,,,,,,,,,,,,,,,,,,,,,,,,,,,,,,,,,,,,,,,,,,,,,,,,,,,,,,,,,,,,,,,,,A_6,001,2024-11-28_12h06.44.776,untitled,2024.1.5,None,2024-11-28 12h07.06.721246 +0530,
square.png,stranger,1,M,,,,,,,,,7,3,31,0,,,,,,,,,223.75496149994433,,,,,,,,,,,,,,,,,,,,,,,,,,,,,,,,,,,,,,,,,,,,,,,,,,,,,,,,,,,,223.7388457999332,223.75496149994433,224.2384822999593,224.2384822999593,224.2384822999593,224.2384822999593,224.25533710001037,224.53837369999383,224.53837369999383,224.53837369999383,,225.08966149995103,m,225.09008389990777,225.1054433999816,226.10632159991655,226.08977369999047,0.8420085000107065,None,,,,,,,,,,,,,,,,,,,,,,,,,,,,,,,,,,,,,,,,,,,,,,,,,,,,,,,,,,,,,,,,,,,,,,,,,,,,,A_6,001,2024-11-28_12h06.44.776,untitled,2024.1.5,None,2024-11-28 12h07.06.721246 +0530,
square.png,you,0,Z,,,,,,,,,8,0,32,2,,,,,,,,,226.10632159991655,,,,,,,,,,,,,,,,,,,,,,,,,,,,,,,,,,,,,,,,,,,,,,,,,,,,,,,,,,,,226.0901197999483,226.10632159991655,226.58966429997236,226.58966429997236,226.58966429997236,226.58966429997236,226.60628850001376,226.8898565999698,226.8898565999698,226.8898565999698,,227.15731809998397,m,227.15773879992776,227.17324359994382,228.17383049998898,228.1576936999336,0.5663552000187337,None,,,,,,,,,,,,,,,,,,,,,,,,,,,,,,,,,,,,,,,,,,,,,,,,,,,,,,,,,,,,,,,,,,,,,,,,,,,,,A_6,001,2024-11-28_12h06.44.776,untitled,2024.1.5,None,2024-11-28 12h07.06.721246 +0530,
triangle.png,stranger,0,Z,,,,,,,,,8,1,33,3,,,,,,,,,228.17383049998898,,,,,,,,,,,,,,,,,,,,,,,,,,,,,,,,,,,,,,,,,,,,,,,,,,,,,,,,,,,,228.15803839999717,228.17383049998898,228.65769759996329,228.65769759996329,228.65769759996329,228.65769759996329,228.67402669996955,228.95758789998945,228.95758789998945,228.95758789998945,,229.42526930000167,m,229.42569469998125,229.44105369993486,230.44169929996133,230.42521989997476,0.7589665999403223,None,,,,,,,,,,,,,,,,,,,,,,,,,,,,,,,,,,,,,,,,,,,,,,,,,,,,,,,,,,,,,,,,,,,,,,,,,,,,,A_6,001,2024-11-28_12h06.44.776,untitled,2024.1.5,None,2024-11-28 12h07.06.721246 +0530,
square.png,stranger,1,M,,,,,,,,,8,2,34,0,,,,,,,,,230.44169929996133,,,,,,,,,,,,,,,,,,,,,,,,,,,,,,,,,,,,,,,,,,,,,,,,,,,,,,,,,,,,230.42556579993106,230.44169929996133,230.9254087000154,230.9254087000154,230.9254087000154,230.9254087000154,230.94179939990863,231.22539739997592,231.22539739997592,231.22539739997592,,231.54318389995024,z,231.54360219999216,231.55903819995,232.5594601999037,232.54322350001894,0.6056332000298426,None,,,,,,,,,,,,,,,,,,,,,,,,,,,,,,,,,,,,,,,,,,,,,,,,,,,,,,,,,,,,,,,,,,,,,,,,,,,,,A_6,001,2024-11-28_12h06.44.776,untitled,2024.1.5,None,2024-11-28 12h07.06.721246 +0530,
triangle.png,you,1,M,,,,,,,,,8,3,35,1,,,,,,,,,232.5594601999037,,,,,,,,,,,,,,,,,,,,,,,,,,,,,,,,,,,,,,,,,,,,,,,,,,,,,,,,,,,,232.5435689999722,232.5594601999037,233.04303249996156,233.04303249996156,233.04303249996156,233.04303249996156,233.05974239995703,233.3430565999588,233.3430565999588,233.3430565999588,,233.52727069996763,m,233.52769499993883,233.54314319998957,234.54403170000296,234.527365499991,0.46913899993523955,None,,,,,,,,,,,,,,,,,,,,,,,,,,,,,,,,,,,,,,,,,,,,,,,,,,,,,,,,,,,,,,,,,,,,,,,,,,,,,A_6,001,2024-11-28_12h06.44.776,untitled,2024.1.5,None,2024-11-28 12h07.06.721246 +0530,
triangle.png,stranger,0,Z,,,,,,,,,9,0,36,3,,,,,,,,,234.54403170000296,,,,,,,,,,,,,,,,,,,,,,,,,,,,,,,,,,,,,,,,,,,,,,,,,,,,,,,,,,,,234.52771259995643,234.54403170000296,235.02734069991857,235.02734069991857,235.02734069991857,235.02734069991857,235.04422059992794,235.32737919990905,235.32737919990905,235.32737919990905,,235.44498899998143,m,235.44540849991608,235.46097269991878,236.46148840000387,236.4452614999609,0.41304300003685057,None,,,,,,,,,,,,,,,,,,,,,,,,,,,,,,,,,,,,,,,,,,,,,,,,,,,,,,,,,,,,,,,,,,,,,,,,,,,,,A_6,001,2024-11-28_12h06.44.776,untitled,2024.1.5,None,2024-11-28 12h07.06.721246 +0530,
square.png,stranger,1,M,,,,,,,,,9,1,37,0,,,,,,,,,236.46148840000387,,,,,,,,,,,,,,,,,,,,,,,,,,,,,,,,,,,,,,,,,,,,,,,,,,,,,,,,,,,,236.44560849992558,236.46148840000387,236.9450317999581,236.9450317999581,236.9450317999581,236.9450317999581,236.96178499993403,237.24494459992275,237.24494459992275,237.24494459992275,,237.4294033999322,m,237.42982919991482,237.44516299990937,238.44560430001002,238.4296090999851,0.4824357000179589,None,,,,,,,,,,,,,,,,,,,,,,,,,,,,,,,,,,,,,,,,,,,,,,,,,,,,,,,,,,,,,,,,,,,,,,,,,,,,,A_6,001,2024-11-28_12h06.44.776,untitled,2024.1.5,None,2024-11-28 12h07.06.721246 +0530,
triangle.png,you,1,M,,,,,,,,,9,2,38,1,,,,,,,,,238.44560430001002,,,,,,,,,,,,,,,,,,,,,,,,,,,,,,,,,,,,,,,,,,,,,,,,,,,,,,,,,,,,238.42995309992693,238.44560430001002,238.9296080999775,238.9296080999775,238.9296080999775,238.9296080999775,238.94615819992032,239.2295499999309,239.2295499999309,239.2295499999309,,239.43018359993584,m,239.43060189997777,239.44631849997677,240.4466332999291,240.4305404999759,0.4989488000283018,None,,,,,,,,,,,,,,,,,,,,,,,,,,,,,,,,,,,,,,,,,,,,,,,,,,,,,,,,,,,,,,,,,,,,,,,,,,,,,A_6,001,2024-11-28_12h06.44.776,untitled,2024.1.5,None,2024-11-28 12h07.06.721246 +0530,
square.png,you,0,Z,,,,,,,,,9,3,39,2,,,,,,,,,240.4466332999291,,,,,,,,,,,,,,,,,,,,,,,,,,,,,,,,,,,,,,,,,,,,,,,,,,,,,,,,,,,,240.43088579992764,240.4466332999291,240.93060560000595,240.93060560000595,240.93060560000595,240.93060560000595,240.9469540999271,241.2305641999701,241.2305641999701,241.2305641999701,,241.66471749998163,m,241.6651486000046,241.6807391999755,242.6813629999524,242.66492929996457,0.7297590000089258,None,,,,,,,,,,,,,,,,,,,,,,,,,,,,,,,,,,,,,,,,,,,,,,,,,,,,,,,,,,,,,,,,,,,,,,,,,,,,,A_6,001,2024-11-28_12h06.44.776,untitled,2024.1.5,None,2024-11-28 12h07.06.721246 +0530,
square.png,you,0,Z,,,,,,,,,10,0,40,2,,,,,,,,,242.6813629999524,,,,,,,,,,,,,,,,,,,,,,,,,,,,,,,,,,,,,,,,,,,,,,,,,,,,,,,,,,,,242.66528229997493,242.6813629999524,243.16503409994766,243.16503409994766,243.16503409994766,243.16503409994766,243.18173189996742,243.4648475999711,243.4648475999711,243.4648475999711,,243.5155760999769,m,243.51601369993296,243.53178419999313,244.53232329990715,244.51583799999207,0.3470184999750927,None,,,,,,,,,,,,,,,,,,,,,,,,,,,,,,,,,,,,,,,,,,,,,,,,,,,,,,,,,,,,,,,,,,,,,,,,,,,,,A_6,001,2024-11-28_12h06.44.776,untitled,2024.1.5,None,2024-11-28 12h07.06.721246 +0530,
square.png,stranger,1,M,,,,,,,,,10,1,41,0,,,,,,,,,244.53232329990715,,,,,,,,,,,,,,,,,,,,,,,,,,,,,,,,,,,,,,,,,,,,,,,,,,,,,,,,,,,,244.51617929991335,244.53232329990715,245.0159206999233,245.0159206999233,245.0159206999233,245.0159206999233,245.03243489994202,245.3158103999449,245.3158103999449,245.3158103999449,,245.4667688999325,m,245.46718819998205,245.48258780001197,246.48293399997056,246.4665096999379,0.44465239997953176,None,,,,,,,,,,,,,,,,,,,,,,,,,,,,,,,,,,,,,,,,,,,,,,,,,,,,,,,,,,,,,,,,,,,,,,,,,,,,,A_6,001,2024-11-28_12h06.44.776,untitled,2024.1.5,None,2024-11-28 12h07.06.721246 +0530,
triangle.png,you,1,M,,,,,,,,,10,2,42,1,,,,,,,,,246.48293399997056,,,,,,,,,,,,,,,,,,,,,,,,,,,,,,,,,,,,,,,,,,,,,,,,,,,,,,,,,,,,246.4668845999986,246.48293399997056,246.96672819997184,246.96672819997184,246.96672819997184,246.96672819997184,246.9833462999668,247.26686530001462,247.26686530001462,247.26686530001462,,247.48448559991084,m,247.48493289994076,247.5003740999382,248.50111449998803,248.48485729994718,0.5138267999282107,None,,,,,,,,,,,,,,,,,,,,,,,,,,,,,,,,,,,,,,,,,,,,,,,,,,,,,,,,,,,,,,,,,,,,,,,,,,,,,A_6,001,2024-11-28_12h06.44.776,untitled,2024.1.5,None,2024-11-28 12h07.06.721246 +0530,
triangle.png,stranger,0,Z,,,,,,,,,10,3,43,3,,,,,,,,,248.50111449998803,,,,,,,,,,,,,,,,,,,,,,,,,,,,,,,,,,,,,,,,,,,,,,,,,,,,,,,,,,,,248.4852740999777,248.50111449998803,248.9845066999551,248.9845066999551,248.9845066999551,248.9845066999551,249.00122390000615,249.28470119996928,249.28470119996928,249.28470119996928,,249.58556989999488,m,249.58598440000787,249.60161979997065,250.60201179992873,250.58561989990994,0.5954808000242338,None,,,,,,,,,,,,,,,,,,,,,,,,,,,,,,,,,,,,,,,,,,,,,,,,,,,,,,,,,,,,,,,,,,,,,,,,,,,,,A_6,001,2024-11-28_12h06.44.776,untitled,2024.1.5,None,2024-11-28 12h07.06.721246 +0530,
triangle.png,stranger,0,Z,,,,,,,,,11,0,44,3,,,,,,,,,250.60201179992873,,,,,,,,,,,,,,,,,,,,,,,,,,,,,,,,,,,,,,,,,,,,,,,,,,,,,,,,,,,,250.58597379992716,250.60201179992873,251.08551849995274,251.08551849995274,251.08551849995274,251.08551849995274,251.10227169992868,251.38564739993308,251.38564739993308,251.38564739993308,,251.5363287999062,m,251.5367520999862,251.55260329996236,252.55288069997914,252.5367778999498,0.44318820000626147,None,,,,,,,,,,,,,,,,,,,,,,,,,,,,,,,,,,,,,,,,,,,,,,,,,,,,,,,,,,,,,,,,,,,,,,,,,,,,,A_6,001,2024-11-28_12h06.44.776,untitled,2024.1.5,None,2024-11-28 12h07.06.721246 +0530,
square.png,stranger,1,M,,,,,,,,,11,1,45,0,,,,,,,,,252.55288069997914,,,,,,,,,,,,,,,,,,,,,,,,,,,,,,,,,,,,,,,,,,,,,,,,,,,,,,,,,,,,252.53712709993124,252.55288069997914,253.03684409998823,253.03684409998823,253.03684409998823,253.03684409998823,253.05349229997955,253.33656239998527,253.33656239998527,253.33656239998527,,253.70428499998525,m,253.7047083999496,253.72000029997434,254.72087809990626,254.70462619990576,0.6622672999510542,None,,,,,,,,,,,,,,,,,,,,,,,,,,,,,,,,,,,,,,,,,,,,,,,,,,,,,,,,,,,,,,,,,,,,,,,,,,,,,A_6,001,2024-11-28_12h06.44.776,untitled,2024.1.5,None,2024-11-28 12h07.06.721246 +0530,
square.png,you,0,Z,,,,,,,,,11,2,46,2,,,,,,,,,254.72087809990626,,,,,,,,,,,,,,,,,,,,,,,,,,,,,,,,,,,,,,,,,,,,,,,,,,,,,,,,,,,,254.70498089992907,254.72087809990626,255.20440809999127,255.20440809999127,255.20440809999127,255.20440809999127,255.22097689996008,255.50439719995484,255.50439719995484,255.50439719995484,,255.88899219990708,z,255.8894094999414,255.90460609993897,256.9054210999748,256.8889191999333,0.6835576999001205,None,,,,,,,,,,,,,,,,,,,,,,,,,,,,,,,,,,,,,,,,,,,,,,,,,,,,,,,,,,,,,,,,,,,,,,,,,,,,,A_6,001,2024-11-28_12h06.44.776,untitled,2024.1.5,None,2024-11-28 12h07.06.721246 +0530,
triangle.png,you,1,M,,,,,,,,,11,3,47,1,,,,,,,,,256.9054210999748,,,,,,,,,,,,,,,,,,,,,,,,,,,,,,,,,,,,,,,,,,,,,,,,,,,,,,,,,,,,256.8892671999056,256.9054210999748,257.38895119994413,257.38895119994413,257.38895119994413,257.38895119994413,257.40550140000414,257.6890124999918,257.6890124999918,257.6890124999918,,257.97321309999097,m,257.97379859990906,257.98908400000073,258.98971809993964,258.9734901000047,0.5826104000443593,None,,,,,,,,,,,,,,,,,,,,,,,,,,,,,,,,,,,,,,,,,,,,,,,,,,,,,,,,,,,,,,,,,,,,,,,,,,,,,A_6,001,2024-11-28_12h06.44.776,untitled,2024.1.5,None,2024-11-28 12h07.06.721246 +0530,
square.png,you,0,Z,,,,,,,,,12,0,48,2,,,,,,,,,258.98971809993964,,,,,,,,,,,,,,,,,,,,,,,,,,,,,,,,,,,,,,,,,,,,,,,,,,,,,,,,,,,,258.97383489995264,258.98971809993964,259.47341779991984,259.47341779991984,259.47341779991984,259.47341779991984,259.49001359997783,259.77352039993275,259.77352039993275,259.77352039993275,,260.5411648999434,z,260.54158750001807,260.557121599908,261.5577159000095,261.5412579999538,1.062826200039126,None,,,,,,,,,,,,,,,,,,,,,,,,,,,,,,,,,,,,,,,,,,,,,,,,,,,,,,,,,,,,,,,,,,,,,,,,,,,,,A_6,001,2024-11-28_12h06.44.776,untitled,2024.1.5,None,2024-11-28 12h07.06.721246 +0530,
square.png,stranger,1,M,,,,,,,,,12,1,49,0,,,,,,,,,261.5577159000095,,,,,,,,,,,,,,,,,,,,,,,,,,,,,,,,,,,,,,,,,,,,,,,,,,,,,,,,,,,,261.54160359990783,261.5577159000095,262.0410941999871,262.0410941999871,262.0410941999871,262.0410941999871,262.05826189997606,262.3408894999884,262.3408894999884,262.3408894999884,,262.79232379992027,m,262.792748900014,262.80850949999876,263.8089054999873,263.79264909995254,0.739594200043939,None,,,,,,,,,,,,,,,,,,,,,,,,,,,,,,,,,,,,,,,,,,,,,,,,,,,,,,,,,,,,,,,,,,,,,,,,,,,,,A_6,001,2024-11-28_12h06.44.776,untitled,2024.1.5,None,2024-11-28 12h07.06.721246 +0530,
triangle.png,stranger,0,Z,,,,,,,,,12,2,50,3,,,,,,,,,263.8089054999873,,,,,,,,,,,,,,,,,,,,,,,,,,,,,,,,,,,,,,,,,,,,,,,,,,,,,,,,,,,,263.79299709992483,263.8089054999873,264.2925852999324,264.2925852999324,264.2925852999324,264.2925852999324,264.30921559990384,264.59269969991874,264.59269969991874,264.59269969991874,,264.9766842999961,z,264.97710749995895,264.9927732999204,265.9933918999741,265.9770511999959,0.6792225000681356,None,,,,,,,,,,,,,,,,,,,,,,,,,,,,,,,,,,,,,,,,,,,,,,,,,,,,,,,,,,,,,,,,,,,,,,,,,,,,,A_6,001,2024-11-28_12h06.44.776,untitled,2024.1.5,None,2024-11-28 12h07.06.721246 +0530,
triangle.png,you,1,M,,,,,,,,,12,3,51,1,,,,,,,,,265.9933918999741,,,,,,,,,,,,,,,,,,,,,,,,,,,,,,,,,,,,,,,,,,,,,,,,,,,,,,,,,,,,265.9774542999221,265.9933918999741,266.4770336999791,266.4770336999791,266.4770336999791,266.4770336999791,266.493627000018,266.7768254999537,266.7768254999537,266.7768254999537,,267.0777489999309,m,267.07816829998046,267.09390480001457,268.09431049996056,268.0780221999157,0.5980935000116006,None,,,,,,,,,,,,,,,,,,,,,,,,,,,,,,,,,,,,,,,,,,,,,,,,,,,,,,,,,,,,,,,,,,,,,,,,,,,,,A_6,001,2024-11-28_12h06.44.776,untitled,2024.1.5,None,2024-11-28 12h07.06.721246 +0530,
square.png,stranger,1,M,,,,,,,,,13,0,52,0,,,,,,,,,268.09431049996056,,,,,,,,,,,,,,,,,,,,,,,,,,,,,,,,,,,,,,,,,,,,,,,,,,,,,,,,,,,,268.07837010000367,268.09431049996056,268.57792279997375,268.57792279997375,268.57792279997375,268.57792279997375,268.59456120000686,268.87817619997077,268.87817619997077,268.87817619997077,,269.16229399992153,z,269.1627921999898,269.17832019994967,270.17868429992814,270.1623287999537,0.5824459999566898,None,,,,,,,,,,,,,,,,,,,,,,,,,,,,,,,,,,,,,,,,,,,,,,,,,,,,,,,,,,,,,,,,,,,,,,,,,,,,,A_6,001,2024-11-28_12h06.44.776,untitled,2024.1.5,None,2024-11-28 12h07.06.721246 +0530,
triangle.png,you,1,M,,,,,,,,,13,1,53,1,,,,,,,,,270.17868429992814,,,,,,,,,,,,,,,,,,,,,,,,,,,,,,,,,,,,,,,,,,,,,,,,,,,,,,,,,,,,270.1626841999823,270.17868429992814,270.66245830000844,270.66245830000844,270.66245830000844,270.66245830000844,270.6788255999563,270.9624149999581,270.9624149999581,270.9624149999581,,271.0465545000043,m,271.0469874999253,271.06262410001364,272.06295419996604,272.0469147999538,0.3777813999913633,None,,,,,,,,,,,,,,,,,,,,,,,,,,,,,,,,,,,,,,,,,,,,,,,,,,,,,,,,,,,,,,,,,,,,,,,,,,,,,A_6,001,2024-11-28_12h06.44.776,untitled,2024.1.5,None,2024-11-28 12h07.06.721246 +0530,
triangle.png,stranger,0,Z,,,,,,,,,13,2,54,3,,,,,,,,,272.06295419996604,,,,,,,,,,,,,,,,,,,,,,,,,,,,,,,,,,,,,,,,,,,,,,,,,,,,,,,,,,,,272.0472689999733,272.06295419996604,272.5466545999516,272.5466545999516,272.5466545999516,272.5466545999516,272.56319109990727,272.8468334999634,272.8468334999634,272.8468334999634,,272.94761939998716,m,272.94803749991115,272.96359269996174,273.9641389999306,273.94766979990527,0.397995000006631,None,,,,,,,,,,,,,,,,,,,,,,,,,,,,,,,,,,,,,,,,,,,,,,,,,,,,,,,,,,,,,,,,,,,,,,,,,,,,,A_6,001,2024-11-28_12h06.44.776,untitled,2024.1.5,None,2024-11-28 12h07.06.721246 +0530,
square.png,you,0,Z,,,,,,,,,13,3,55,2,,,,,,,,,273.9641389999306,,,,,,,,,,,,,,,,,,,,,,,,,,,,,,,,,,,,,,,,,,,,,,,,,,,,,,,,,,,,273.9480188000016,273.9641389999306,274.44776769995224,274.44776769995224,274.44776769995224,274.44776769995224,274.46414739999454,274.74769929994363,274.74769929994363,274.74769929994363,,274.81524679996073,m,274.81567079992965,274.831098799943,275.8314334999304,275.8154162999708,0.35645950003527105,None,,,,,,,,,,,,,,,,,,,,,,,,,,,,,,,,,,,,,,,,,,,,,,,,,,,,,,,,,,,,,,,,,,,,,,,,,,,,,A_6,001,2024-11-28_12h06.44.776,untitled,2024.1.5,None,2024-11-28 12h07.06.721246 +0530,
triangle.png,you,1,M,,,,,,,,,14,0,56,1,,,,,,,,,275.8314334999304,,,,,,,,,,,,,,,,,,,,,,,,,,,,,,,,,,,,,,,,,,,,,,,,,,,,,,,,,,,,275.81576259993017,275.8314334999304,276.3154203000013,276.3154203000013,276.3154203000013,276.3154203000013,276.3320647999644,276.6152400999563,276.6152400999563,276.6152400999563,,276.8330123999622,m,276.8334291999927,276.84877039992716,277.84943249996286,277.83294029999524,0.5163398999720812,None,,,,,,,,,,,,,,,,,,,,,,,,,,,,,,,,,,,,,,,,,,,,,,,,,,,,,,,,,,,,,,,,,,,,,,,,,,,,,A_6,001,2024-11-28_12h06.44.776,untitled,2024.1.5,None,2024-11-28 12h07.06.721246 +0530,
square.png,you,0,Z,,,,,,,,,14,1,57,2,,,,,,,,,277.84943249996286,,,,,,,,,,,,,,,,,,,,,,,,,,,,,,,,,,,,,,,,,,,,,,,,,,,,,,,,,,,,277.8332881999668,277.84943249996286,278.3329819999635,278.3329819999635,278.3329819999635,278.3329819999635,278.3498033999931,278.63291579997167,278.63291579997167,278.63291579997167,,278.8004997000098,m,278.80092389998026,278.8164311000146,279.81690569990315,279.80057620001025,0.4596095000160858,None,,,,,,,,,,,,,,,,,,,,,,,,,,,,,,,,,,,,,,,,,,,,,,,,,,,,,,,,,,,,,,,,,,,,,,,,,,,,,A_6,001,2024-11-28_12h06.44.776,untitled,2024.1.5,None,2024-11-28 12h07.06.721246 +0530,
square.png,stranger,1,M,,,,,,,,,14,2,58,0,,,,,,,,,279.81690569990315,,,,,,,,,,,,,,,,,,,,,,,,,,,,,,,,,,,,,,,,,,,,,,,,,,,,,,,,,,,,279.8009290000191,279.81690569990315,280.3008477999829,280.3008477999829,280.3008477999829,280.3008477999829,280.3172165999422,280.6008338999236,280.6008338999236,280.6008338999236,,280.75161999999546,m,280.7520461999811,280.76761779992376,281.76806259993464,281.75198449997697,0.4381851999787614,None,,,,,,,,,,,,,,,,,,,,,,,,,,,,,,,,,,,,,,,,,,,,,,,,,,,,,,,,,,,,,,,,,,,,,,,,,,,,,A_6,001,2024-11-28_12h06.44.776,untitled,2024.1.5,None,2024-11-28 12h07.06.721246 +0530,
triangle.png,stranger,0,Z,,,,,,,,,14,3,59,3,,,,,,,,,281.76806259993464,,,,,,,,,,,,,,,,,,,,,,,,,,,,,,,,,,,,,,,,,,,,,,,,,,,,,,,,,,,,281.75233099993784,281.76806259993464,282.25178579997737,282.25178579997737,282.25178579997737,282.25178579997737,282.26843229995575,282.55163509992417,282.55163509992417,282.55163509992417,,282.80273529991973,z,282.80316189990845,282.8187445999356,283.819164799992,283.80270170001313,0.5445916999597102,None,,,,,,,,,,,,,,,,,,,,,,,,,,,,,,,,,,,,,,,,,,,,,,,,,,,,,,,,,,,,,,,,,,,,,,,,,,,,,A_6,001,2024-11-28_12h06.44.776,untitled,2024.1.5,None,2024-11-28 12h07.06.721246 +0530,
triangle.png,you,1,M,,,,,,,,,15,0,60,1,,,,,,,,,283.819164799992,,,,,,,,,,,,,,,,,,,,,,,,,,,,,,,,,,,,,,,,,,,,,,,,,,,,,,,,,,,,283.8030455999542,283.819164799992,284.3026791999582,284.3026791999582,284.3026791999582,284.3026791999582,284.31934319995344,284.6028395999456,284.6028395999456,284.6028395999456,,284.93686599994544,m,284.9372893999098,284.9532118999632,285.95360529993195,285.9372228999855,0.6175139000406489,None,,,,,,,,,,,,,,,,,,,,,,,,,,,,,,,,,,,,,,,,,,,,,,,,,,,,,,,,,,,,,,,,,,,,,,,,,,,,,A_6,001,2024-11-28_12h06.44.776,untitled,2024.1.5,None,2024-11-28 12h07.06.721246 +0530,
square.png,stranger,1,M,,,,,,,,,15,1,61,0,,,,,,,,,285.95360529993195,,,,,,,,,,,,,,,,,,,,,,,,,,,,,,,,,,,,,,,,,,,,,,,,,,,,,,,,,,,,285.93756889994256,285.95360529993195,286.43734979990404,286.43734979990404,286.43734979990404,286.43734979990404,286.4538706999738,286.7370918999659,286.7370918999659,286.7370918999659,,286.9881205999991,m,286.988542099949,287.0041304999031,288.00468769995496,287.98827799991705,0.5351877000648528,None,,,,,,,,,,,,,,,,,,,,,,,,,,,,,,,,,,,,,,,,,,,,,,,,,,,,,,,,,,,,,,,,,,,,,,,,,,,,,A_6,001,2024-11-28_12h06.44.776,untitled,2024.1.5,None,2024-11-28 12h07.06.721246 +0530,
triangle.png,stranger,0,Z,,,,,,,,,15,2,62,3,,,,,,,,,288.00468769995496,,,,,,,,,,,,,,,,,,,,,,,,,,,,,,,,,,,,,,,,,,,,,,,,,,,,,,,,,,,,287.9886211999692,288.00468769995496,288.4881931999698,288.4881931999698,288.4881931999698,288.4881931999698,288.5049045999767,288.78834359999746,288.78834359999746,288.78834359999746,,289.13916019990575,m,289.1395947999554,289.15507599990815,290.15565089997835,290.1394293999765,0.6352017000317574,None,,,,,,,,,,,,,,,,,,,,,,,,,,,,,,,,,,,,,,,,,,,,,,,,,,,,,,,,,,,,,,,,,,,,,,,,,,,,,A_6,001,2024-11-28_12h06.44.776,untitled,2024.1.5,None,2024-11-28 12h07.06.721246 +0530,
square.png,you,0,Z,,,,,,,,,15,3,63,2,,,,,,,,,290.15565089997835,,,,,,,,,,,,,,,,,,,,,,,,,,,,,,,,,,,,,,,,,,,,,,,,,,,,,,,,,,,,290.1397781999549,290.15565089997835,290.63923450000584,290.63923450000584,290.63923450000584,290.63923450000584,290.6558509999886,290.93924340000376,290.93924340000376,290.93924340000376,,291.04040539998095,m,291.04082629992627,291.05604569998104,292.05668909999076,292.0405493999133,0.3881382999243215,None,,,,,,,,,,,,,,,,,,,,,,,,,,,,,,,,,,,,,,,,,,,,,,,,,,,,,,,,,,,,,,,,,,,,,,,,,,,,,A_6,001,2024-11-28_12h06.44.776,untitled,2024.1.5,None,2024-11-28 12h07.06.721246 +0530,
triangle.png,stranger,0,Z,,,,,,,,,16,0,64,3,,,,,,,,,292.05668909999076,,,,,,,,,,,,,,,,,,,,,,,,,,,,,,,,,,,,,,,,,,,,,,,,,,,,,,,,,,,,292.0409024999244,292.05668909999076,292.54054750001524,292.54054750001524,292.54054750001524,292.54054750001524,292.5568303000182,292.8403736000182,292.8403736000182,292.8403736000182,,293.0244560999563,m,293.02488339995034,293.0403131999774,294.04084699996747,294.02475839992985,0.47580059990286827,None,,,,,,,,,,,,,,,,,,,,,,,,,,,,,,,,,,,,,,,,,,,,,,,,,,,,,,,,,,,,,,,,,,,,,,,,,,,,,A_6,001,2024-11-28_12h06.44.776,untitled,2024.1.5,None,2024-11-28 12h07.06.721246 +0530,
square.png,you,0,Z,,,,,,,,,16,1,65,2,,,,,,,,,294.04084699996747,,,,,,,,,,,,,,,,,,,,,,,,,,,,,,,,,,,,,,,,,,,,,,,,,,,,,,,,,,,,294.02511940000113,294.04084699996747,294.52451959997416,294.52451959997416,294.52451959997416,294.52451959997416,294.5413261000067,294.8246354999719,294.8246354999719,294.8246354999719,,295.2423356999643,m,295.2427657999797,295.2582313999301,296.2589718999807,296.24277439992875,0.7158051999285817,None,,,,,,,,,,,,,,,,,,,,,,,,,,,,,,,,,,,,,,,,,,,,,,,,,,,,,,,,,,,,,,,,,,,,,,,,,,,,,A_6,001,2024-11-28_12h06.44.776,untitled,2024.1.5,None,2024-11-28 12h07.06.721246 +0530,
triangle.png,you,1,M,,,,,,,,,16,2,66,1,,,,,,,,,296.2589718999807,,,,,,,,,,,,,,,,,,,,,,,,,,,,,,,,,,,,,,,,,,,,,,,,,,,,,,,,,,,,296.2432433000067,296.2589718999807,296.74260439991485,296.74260439991485,296.74260439991485,296.74260439991485,296.7589617999038,297.04257279995363,297.04257279995363,297.04257279995363,,297.5101430999348,m,297.5105733999517,297.52614129998256,298.52649939991534,298.5104840999702,0.7578895000042394,None,,,,,,,,,,,,,,,,,,,,,,,,,,,,,,,,,,,,,,,,,,,,,,,,,,,,,,,,,,,,,,,,,,,,,,,,,,,,,A_6,001,2024-11-28_12h06.44.776,untitled,2024.1.5,None,2024-11-28 12h07.06.721246 +0530,
square.png,stranger,1,M,,,,,,,,,16,3,67,0,,,,,,,,,298.52649939991534,,,,,,,,,,,,,,,,,,,,,,,,,,,,,,,,,,,,,,,,,,,,,,,,,,,,,,,,,,,,298.5108309999341,298.52649939991534,299.01038280001376,299.01038280001376,299.01038280001376,299.01038280001376,299.02705669996794,299.31026159995236,299.31026159995236,299.31026159995236,300.11065940000117,300.0944968999829,None,300.09468539990485,300.11065940000117,301.11146149993874,301.0949840999674,,,,,,,,,,,,,,,,,,,,,,,,,,,,,,,,,,,,,,,,,,,,,,,,,,,,,,,,,,,,,,,,,,,,,,,,,,,,,,,A_6,001,2024-11-28_12h06.44.776,untitled,2024.1.5,None,2024-11-28 12h07.06.721246 +0530,
square.png,stranger,1,M,,,,,,,,,17,0,68,0,,,,,,,,,301.11146149993874,,,,,,,,,,,,,,,,,,,,,,,,,,,,,,,,,,,,,,,,,,,,,,,,,,,,,,,,,,,,301.09532879991457,301.11146149993874,301.61158639995847,301.61158639995847,301.61158639995847,301.61158639995847,301.61158639995847,301.9117108999053,301.9117108999053,301.9117108999053,,302.0458177999826,m,302.04623169999104,302.06174519995693,303.0622636999469,303.0461952999467,0.4249460999853909,None,,,,,,,,,,,,,,,,,,,,,,,,,,,,,,,,,,,,,,,,,,,,,,,,,,,,,,,,,,,,,,,,,,,,,,,,,,,,,A_6,001,2024-11-28_12h06.44.776,untitled,2024.1.5,None,2024-11-28 12h07.06.721246 +0530,
square.png,you,0,Z,,,,,,,,,17,1,69,2,,,,,,,,,303.0622636999469,,,,,,,,,,,,,,,,,,,,,,,,,,,,,,,,,,,,,,,,,,,,,,,,,,,,,,,,,,,,303.046543299919,303.0622636999469,303.54605000000447,303.54605000000447,303.54605000000447,303.54605000000447,303.56256559991743,303.8458875999786,303.8458875999786,303.8458875999786,,304.14704720000736,z,304.14750209997874,304.1628339999588,305.1634634999791,305.1470380999381,0.589852700009942,None,,,,,,,,,,,,,,,,,,,,,,,,,,,,,,,,,,,,,,,,,,,,,,,,,,,,,,,,,,,,,,,,,,,,,,,,,,,,,A_6,001,2024-11-28_12h06.44.776,untitled,2024.1.5,None,2024-11-28 12h07.06.721246 +0530,
triangle.png,you,1,M,,,,,,,,,17,2,70,1,,,,,,,,,305.1634634999791,,,,,,,,,,,,,,,,,,,,,,,,,,,,,,,,,,,,,,,,,,,,,,,,,,,,,,,,,,,,305.1473821999971,305.1634634999791,305.64718049997464,305.64718049997464,305.64718049997464,305.64718049997464,305.663734999951,305.9470547999954,305.9470547999954,305.9470547999954,,306.2146956999786,m,306.21511969994754,306.2304473000113,307.23106879997067,307.21473030000925,0.5654432999435812,None,,,,,,,,,,,,,,,,,,,,,,,,,,,,,,,,,,,,,,,,,,,,,,,,,,,,,,,,,,,,,,,,,,,,,,,,,,,,,A_6,001,2024-11-28_12h06.44.776,untitled,2024.1.5,None,2024-11-28 12h07.06.721246 +0530,
triangle.png,stranger,0,Z,,,,,,,,,17,3,71,3,,,,,,,,,307.23106879997067,,,,,,,,,,,,,,,,,,,,,,,,,,,,,,,,,,,,,,,,,,,,,,,,,,,,,,,,,,,,307.2150710999267,307.23106879997067,307.7147388999583,307.7147388999583,307.7147388999583,307.7147388999583,307.7312340999488,308.0148405999644,308.0148405999644,308.0148405999644,,308.6493157999357,m,308.6497639999725,308.66515439993236,309.66554800001904,309.6494963999139,0.932808700017631,None,,,,,,,,,,,,,,,,,,,,,,,,,,,,,,,,,,,,,,,,,,,,,,,,,,,,,,,,,,,,,,,,,,,,,,,,,,,,,A_6,001,2024-11-28_12h06.44.776,untitled,2024.1.5,None,2024-11-28 12h07.06.721246 +0530,
triangle.png,stranger,0,Z,,,,,,,,,18,0,72,3,,,,,,,,,309.66554800001904,,,,,,,,,,,,,,,,,,,,,,,,,,,,,,,,,,,,,,,,,,,,,,,,,,,,,,,,,,,,309.6498426999897,309.66554800001904,310.1492627999978,310.1492627999978,310.1492627999978,310.1492627999978,310.1660981000168,310.449296799954,310.449296799954,310.449296799954,311.2497362999711,311.23336760001257,None,311.23355729994364,311.2497362999711,312.2503826000029,312.23427649994846,,,,,,,,,,,,,,,,,,,,,,,,,,,,,,,,,,,,,,,,,,,,,,,,,,,,,,,,,,,,,,,,,,,,,,,,,,,,,,,A_6,001,2024-11-28_12h06.44.776,untitled,2024.1.5,None,2024-11-28 12h07.06.721246 +0530,
square.png,you,0,Z,,,,,,,,,18,1,73,2,,,,,,,,,312.2503826000029,,,,,,,,,,,,,,,,,,,,,,,,,,,,,,,,,,,,,,,,,,,,,,,,,,,,,,,,,,,,312.2346213000128,312.2503826000029,312.75080679997336,312.75080679997336,312.75080679997336,312.75080679997336,312.75080679997336,313.05077049997635,313.05077049997635,313.05077049997635,,313.33505150000565,m,313.33547419996466,313.3509202999994,314.35147489991505,314.3351301999064,0.5816209999611601,None,,,,,,,,,,,,,,,,,,,,,,,,,,,,,,,,,,,,,,,,,,,,,,,,,,,,,,,,,,,,,,,,,,,,,,,,,,,,,A_6,001,2024-11-28_12h06.44.776,untitled,2024.1.5,None,2024-11-28 12h07.06.721246 +0530,
square.png,stranger,1,M,,,,,,,,,18,2,74,0,,,,,,,,,314.35147489991505,,,,,,,,,,,,,,,,,,,,,,,,,,,,,,,,,,,,,,,,,,,,,,,,,,,,,,,,,,,,314.3354742999654,314.35147489991505,314.8353157999227,314.8353157999227,314.8353157999227,314.8353157999227,314.8517591999844,315.1351763999555,315.1351763999555,315.1351763999555,,315.6695887999376,z,315.6700170999393,315.6853569999803,316.6861798999598,316.66966040001716,0.8201734999893233,None,,,,,,,,,,,,,,,,,,,,,,,,,,,,,,,,,,,,,,,,,,,,,,,,,,,,,,,,,,,,,,,,,,,,,,,,,,,,,A_6,001,2024-11-28_12h06.44.776,untitled,2024.1.5,None,2024-11-28 12h07.06.721246 +0530,
triangle.png,you,1,M,,,,,,,,,18,3,75,1,,,,,,,,,316.6861798999598,,,,,,,,,,,,,,,,,,,,,,,,,,,,,,,,,,,,,,,,,,,,,,,,,,,,,,,,,,,,316.67000919999555,316.6861798999598,317.1697694999166,317.1697694999166,317.1697694999166,317.1697694999166,317.1861569000175,317.46978299994953,317.46978299994953,317.46978299994953,,317.6204222999513,m,317.6208452999126,317.63631530001294,318.6371329999529,318.62085119995754,0.438542400021106,None,,,,,,,,,,,,,,,,,,,,,,,,,,,,,,,,,,,,,,,,,,,,,,,,,,,,,,,,,,,,,,,,,,,,,,,,,,,,,A_6,001,2024-11-28_12h06.44.776,untitled,2024.1.5,None,2024-11-28 12h07.06.721246 +0530,
square.png,stranger,1,M,,,,,,,,,19,0,76,0,,,,,,,,,318.6371329999529,,,,,,,,,,,,,,,,,,,,,,,,,,,,,,,,,,,,,,,,,,,,,,,,,,,,,,,,,,,,318.6211997999344,318.6371329999529,319.1206422999967,319.1206422999967,319.1206422999967,319.1206422999967,319.13727539998945,319.4206451999489,319.4206451999489,319.4206451999489,,319.9716008999385,m,319.97202609991655,319.98776960000396,320.9882601000136,320.9719910999993,0.8433619999559596,None,,,,,,,,,,,,,,,,,,,,,,,,,,,,,,,,,,,,,,,,,,,,,,,,,,,,,,,,,,,,,,,,,,,,,,,,,,,,,A_6,001,2024-11-28_12h06.44.776,untitled,2024.1.5,None,2024-11-28 12h07.06.721246 +0530,
triangle.png,you,1,M,,,,,,,,,19,1,77,1,,,,,,,,,320.9882601000136,,,,,,,,,,,,,,,,,,,,,,,,,,,,,,,,,,,,,,,,,,,,,,,,,,,,,,,,,,,,320.97234559990466,320.9882601000136,321.4721121999901,321.4721121999901,321.4721121999901,321.4721121999901,321.48854809999466,321.7718625999987,321.7718625999987,321.7718625999987,,322.03937329992186,m,322.0397989999037,322.0555350999348,323.0560873999493,323.03967369999737,0.5565039999783039,None,,,,,,,,,,,,,,,,,,,,,,,,,,,,,,,,,,,,,,,,,,,,,,,,,,,,,,,,,,,,,,,,,,,,,,,,,,,,,A_6,001,2024-11-28_12h06.44.776,untitled,2024.1.5,None,2024-11-28 12h07.06.721246 +0530,
triangle.png,stranger,0,Z,,,,,,,,,19,2,78,3,,,,,,,,,323.0560873999493,,,,,,,,,,,,,,,,,,,,,,,,,,,,,,,,,,,,,,,,,,,,,,,,,,,,,,,,,,,,323.0400176999392,323.0560873999493,323.5397273999406,323.5397273999406,323.5397273999406,323.5397273999406,323.55636439996306,323.83975329995155,323.83975329995155,323.83975329995155,,324.2738302999642,z,324.2742710999446,324.289783300017,325.29025640001055,325.2740234999219,0.7233538000145927,None,,,,,,,,,,,,,,,,,,,,,,,,,,,,,,,,,,,,,,,,,,,,,,,,,,,,,,,,,,,,,,,,,,,,,,,,,,,,,A_6,001,2024-11-28_12h06.44.776,untitled,2024.1.5,None,2024-11-28 12h07.06.721246 +0530,
square.png,you,0,Z,,,,,,,,,19,3,79,2,,,,,,,,,325.29025640001055,,,,,,,,,,,,,,,,,,,,,,,,,,,,,,,,,,,,,,,,,,,,,,,,,,,,,,,,,,,,325.2743748999201,325.29025640001055,325.7741800999502,325.7741800999502,325.7741800999502,325.7741800999502,325.79071179998573,326.0741126999492,326.0741126999492,326.0741126999492,,326.67523289995734,z,326.6756626999704,326.6913234000094,327.6918374999659,327.67540469998494,0.8983656000345945,None,,,,,,,,,,,,,,,,,,,,,,,,,,,,,,,,,,,,,,,,,,,,,,,,,,,,,,,,,,,,,,,,,,,,,,,,,,,,,A_6,001,2024-11-28_12h06.44.776,untitled,2024.1.5,None,2024-11-28 12h07.06.721246 +0530,
square.png,you,0,Z,,,,,,,,,20,0,80,2,,,,,,,,,327.6918374999659,,,,,,,,,,,,,,,,,,,,,,,,,,,,,,,,,,,,,,,,,,,,,,,,,,,,,,,,,,,,327.6757519999519,327.6918374999659,328.1751664999174,328.1751664999174,328.1751664999174,328.1751664999174,328.19199029996525,328.4752803000156,328.4752803000156,328.4752803000156,,328.84309059998486,z,328.84352549992036,328.85893789993133,329.85931379999965,329.84306859993376,0.6639159000478685,None,,,,,,,,,,,,,,,,,,,,,,,,,,,,,,,,,,,,,,,,,,,,,,,,,,,,,,,,,,,,,,,,,,,,,,,,,,,,,A_6,001,2024-11-28_12h06.44.776,untitled,2024.1.5,None,2024-11-28 12h07.06.721246 +0530,
square.png,stranger,1,M,,,,,,,,,20,1,81,0,,,,,,,,,329.85931379999965,,,,,,,,,,,,,,,,,,,,,,,,,,,,,,,,,,,,,,,,,,,,,,,,,,,,,,,,,,,,329.8434128999943,329.85931379999965,330.3431129999226,330.3431129999226,330.3431129999226,330.3431129999226,330.3597249999875,330.6431961999042,330.6431961999042,330.6431961999042,,331.09403859998565,m,331.09446159994695,331.1098986999132,332.11046739993617,332.0943616000004,0.7367462000111118,None,,,,,,,,,,,,,,,,,,,,,,,,,,,,,,,,,,,,,,,,,,,,,,,,,,,,,,,,,,,,,,,,,,,,,,,,,,,,,A_6,001,2024-11-28_12h06.44.776,untitled,2024.1.5,None,2024-11-28 12h07.06.721246 +0530,
triangle.png,stranger,0,Z,,,,,,,,,20,2,82,3,,,,,,,,,332.11046739993617,,,,,,,,,,,,,,,,,,,,,,,,,,,,,,,,,,,,,,,,,,,,,,,,,,,,,,,,,,,,332.0947106999811,332.11046739993617,332.594440799905,332.594440799905,332.594440799905,332.594440799905,332.6110036999453,332.8943948999513,332.8943948999513,332.8943948999513,,333.26202679995913,m,333.2624488999136,333.27786179992836,334.27840599999763,334.26200989994686,0.6656498000957072,None,,,,,,,,,,,,,,,,,,,,,,,,,,,,,,,,,,,,,,,,,,,,,,,,,,,,,,,,,,,,,,,,,,,,,,,,,,,,,A_6,001,2024-11-28_12h06.44.776,untitled,2024.1.5,None,2024-11-28 12h07.06.721246 +0530,
triangle.png,you,1,M,,,,,,,,,20,3,83,1,,,,,,,,,334.27840599999763,,,,,,,,,,,,,,,,,,,,,,,,,,,,,,,,,,,,,,,,,,,,,,,,,,,,,,,,,,,,334.2623592999298,334.27840599999763,334.76195279997773,334.76195279997773,334.76195279997773,334.76195279997773,334.77875339996535,335.0620546999853,335.0620546999853,335.0620546999853,,335.563088899944,m,335.56350859999657,335.5790258999914,336.57957940001506,336.5632370999083,0.7984830000204965,None,,,,,,,,,,,,,,,,,,,,,,,,,,,,,,,,,,,,,,,,,,,,,,,,,,,,,,,,,,,,,,,,,,,,,,,,,,,,,A_6,001,2024-11-28_12h06.44.776,untitled,2024.1.5,None,2024-11-28 12h07.06.721246 +0530,
square.png,you,0,Z,,,,,,,,,21,0,84,2,,,,,,,,,336.57957940001506,,,,,,,,,,,,,,,,,,,,,,,,,,,,,,,,,,,,,,,,,,,,,,,,,,,,,,,,,,,,336.5635826999787,336.57957940001506,337.0632686999161,337.0632686999161,337.0632686999161,337.0632686999161,337.07979190000333,337.3631685000146,337.3631685000146,337.3631685000146,,337.6475363000063,m,337.6479645000072,337.66329109994695,338.6637888000114,338.6477468999801,0.5798992000054568,None,,,,,,,,,,,,,,,,,,,,,,,,,,,,,,,,,,,,,,,,,,,,,,,,,,,,,,,,,,,,,,,,,,,,,,,,,,,,,A_6,001,2024-11-28_12h06.44.776,untitled,2024.1.5,None,2024-11-28 12h07.06.721246 +0530,
triangle.png,you,1,M,,,,,,,,,21,1,85,1,,,,,,,,,338.6637888000114,,,,,,,,,,,,,,,,,,,,,,,,,,,,,,,,,,,,,,,,,,,,,,,,,,,,,,,,,,,,338.64810509991366,338.6637888000114,339.1475266999332,339.1475266999332,339.1475266999332,339.1475266999332,339.1641227999935,339.4477301000152,339.4477301000152,339.4477301000152,,339.6317151999101,m,339.6321387999924,339.64761509990785,340.6483197999187,340.6319333999418,0.46854130004066974,None,,,,,,,,,,,,,,,,,,,,,,,,,,,,,,,,,,,,,,,,,,,,,,,,,,,,,,,,,,,,,,,,,,,,,,,,,,,,,A_6,001,2024-11-28_12h06.44.776,untitled,2024.1.5,None,2024-11-28 12h07.06.721246 +0530,
triangle.png,stranger,0,Z,,,,,,,,,21,2,86,3,,,,,,,,,340.6483197999187,,,,,,,,,,,,,,,,,,,,,,,,,,,,,,,,,,,,,,,,,,,,,,,,,,,,,,,,,,,,340.63228329992853,340.6483197999187,341.132137699984,341.132137699984,341.132137699984,341.132137699984,341.1486917999573,341.43186269991565,341.43186269991565,341.43186269991565,,341.88298080000095,m,341.8834025999531,341.89897519990336,342.89953799999785,342.88321259990335,0.735162999946624,None,,,,,,,,,,,,,,,,,,,,,,,,,,,,,,,,,,,,,,,,,,,,,,,,,,,,,,,,,,,,,,,,,,,,,,,,,,,,,A_6,001,2024-11-28_12h06.44.776,untitled,2024.1.5,None,2024-11-28 12h07.06.721246 +0530,
square.png,stranger,1,M,,,,,,,,,21,3,87,0,,,,,,,,,342.89953799999785,,,,,,,,,,,,,,,,,,,,,,,,,,,,,,,,,,,,,,,,,,,,,,,,,,,,,,,,,,,,342.88357039995026,342.89953799999785,343.383089800016,343.383089800016,343.383089800016,343.383089800016,343.399845500011,343.68327609996777,343.68327609996777,343.68327609996777,344.48359119996894,344.46705989993643,None,344.467262799968,344.48359119996894,345.4841223999392,345.46766089997254,,,,,,,,,,,,,,,,,,,,,,,,,,,,,,,,,,,,,,,,,,,,,,,,,,,,,,,,,,,,,,,,,,,,,,,,,,,,,,,A_6,001,2024-11-28_12h06.44.776,untitled,2024.1.5,None,2024-11-28 12h07.06.721246 +0530,
square.png,stranger,1,M,,,,,,,,,22,0,88,0,,,,,,,,,345.4841223999392,,,,,,,,,,,,,,,,,,,,,,,,,,,,,,,,,,,,,,,,,,,,,,,,,,,,,,,,,,,,345.4680183000164,345.4841223999392,345.9843857999658,345.9843857999658,345.9843857999658,345.9843857999658,345.9843857999658,346.28447979991324,346.28447979991324,346.28447979991324,,346.71874159993604,z,346.71916179999243,346.73461259994656,347.7353195999749,347.7191342000151,0.7282361999386922,None,,,,,,,,,,,,,,,,,,,,,,,,,,,,,,,,,,,,,,,,,,,,,,,,,,,,,,,,,,,,,,,,,,,,,,,,,,,,,A_6,001,2024-11-28_12h06.44.776,untitled,2024.1.5,None,2024-11-28 12h07.06.721246 +0530,
square.png,you,0,Z,,,,,,,,,22,1,89,2,,,,,,,,,347.7353195999749,,,,,,,,,,,,,,,,,,,,,,,,,,,,,,,,,,,,,,,,,,,,,,,,,,,,,,,,,,,,347.7194808999775,347.7353195999749,348.2188021999318,348.2188021999318,348.2188021999318,348.2188021999318,348.23543230001815,348.51905090000946,348.51905090000946,348.51905090000946,349.31922910001595,349.3032577999402,None,349.3034471999854,349.31922910001595,350.3199408999644,350.30361730000004,,,,,,,,,,,,,,,,,,,,,,,,,,,,,,,,,,,,,,,,,,,,,,,,,,,,,,,,,,,,,,,,,,,,,,,,,,,,,,,A_6,001,2024-11-28_12h06.44.776,untitled,2024.1.5,None,2024-11-28 12h07.06.721246 +0530,
triangle.png,stranger,0,Z,,,,,,,,,22,2,90,3,,,,,,,,,350.3199408999644,,,,,,,,,,,,,,,,,,,,,,,,,,,,,,,,,,,,,,,,,,,,,,,,,,,,,,,,,,,,350.30396009993274,350.3199408999644,350.82015759998467,350.82015759998467,350.82015759998467,350.82015759998467,350.82015759998467,351.12024009996094,351.12024009996094,351.12024009996094,,351.6047788999276,m,351.60520320001524,351.6204566999804,352.6212134999223,352.604763399926,0.7800623999210075,None,,,,,,,,,,,,,,,,,,,,,,,,,,,,,,,,,,,,,,,,,,,,,,,,,,,,,,,,,,,,,,,,,,,,,,,,,,,,,A_6,001,2024-11-28_12h06.44.776,untitled,2024.1.5,None,2024-11-28 12h07.06.721246 +0530,
triangle.png,you,1,M,,,,,,,,,22,3,91,1,,,,,,,,,352.6212134999223,,,,,,,,,,,,,,,,,,,,,,,,,,,,,,,,,,,,,,,,,,,,,,,,,,,,,,,,,,,,352.6051069999812,352.6212134999223,353.10472870001104,353.10472870001104,353.10472870001104,353.10472870001104,353.1213752999902,353.4047383000143,353.4047383000143,353.4047383000143,,353.42215299990494,m,353.4225879999576,353.43797590001486,354.4386924999999,354.4225158999907,0.3071381999179721,None,,,,,,,,,,,,,,,,,,,,,,,,,,,,,,,,,,,,,,,,,,,,,,,,,,,,,,,,,,,,,,,,,,,,,,,,,,,,,A_6,001,2024-11-28_12h06.44.776,untitled,2024.1.5,None,2024-11-28 12h07.06.721246 +0530,
square.png,stranger,1,M,,,,,,,,,23,0,92,0,,,,,,,,,354.4386924999999,,,,,,,,,,,,,,,,,,,,,,,,,,,,,,,,,,,,,,,,,,,,,,,,,,,,,,,,,,,,354.42286549997516,354.4386924999999,354.9222444000188,354.9222444000188,354.9222444000188,354.9222444000188,354.9390740999952,355.22231899993494,355.22231899993494,355.22231899993494,,355.5234196999809,m,355.52383550000377,355.53928899997845,356.5397257999284,356.52371729991864,0.5848270000424236,None,,,,,,,,,,,,,,,,,,,,,,,,,,,,,,,,,,,,,,,,,,,,,,,,,,,,,,,,,,,,,,,,,,,,,,,,,,,,,A_6,001,2024-11-28_12h06.44.776,untitled,2024.1.5,None,2024-11-28 12h07.06.721246 +0530,
triangle.png,you,1,M,,,,,,,,,23,1,93,1,,,,,,,,,356.5397257999284,,,,,,,,,,,,,,,,,,,,,,,,,,,,,,,,,,,,,,,,,,,,,,,,,,,,,,,,,,,,356.5240625999868,356.5397257999284,357.02338509995025,357.02338509995025,357.02338509995025,357.02338509995025,357.04030939994846,357.3234062999254,357.3234062999254,357.3234062999254,,357.55748929991387,m,357.5579064999474,357.5736562999664,358.57409229991026,358.55799539992586,0.5328043999616057,None,,,,,,,,,,,,,,,,,,,,,,,,,,,,,,,,,,,,,,,,,,,,,,,,,,,,,,,,,,,,,,,,,,,,,,,,,,,,,A_6,001,2024-11-28_12h06.44.776,untitled,2024.1.5,None,2024-11-28 12h07.06.721246 +0530,
square.png,you,0,Z,,,,,,,,,23,2,94,2,,,,,,,,,358.57409229991026,,,,,,,,,,,,,,,,,,,,,,,,,,,,,,,,,,,,,,,,,,,,,,,,,,,,,,,,,,,,358.55834939994384,358.57409229991026,359.0576930999523,359.0576930999523,359.0576930999523,359.0576930999523,359.0745563999517,359.3578667999245,359.3578667999245,359.3578667999245,,359.7753489000024,z,359.77577239996754,359.7913244999945,360.79182919999585,360.77566449996084,0.7025061000604182,None,,,,,,,,,,,,,,,,,,,,,,,,,,,,,,,,,,,,,,,,,,,,,,,,,,,,,,,,,,,,,,,,,,,,,,,,,,,,,A_6,001,2024-11-28_12h06.44.776,untitled,2024.1.5,None,2024-11-28 12h07.06.721246 +0530,
triangle.png,stranger,0,Z,,,,,,,,,23,3,95,3,,,,,,,,,360.79182919999585,,,,,,,,,,,,,,,,,,,,,,,,,,,,,,,,,,,,,,,,,,,,,,,,,,,,,,,,,,,,360.7760089999065,360.79182919999585,361.2757952999091,361.2757952999091,361.2757952999091,361.2757952999091,361.2923754999647,361.5756740999641,361.5756740999641,361.5756740999641,,362.0935178999789,m,362.09393979993183,362.1093448000029,363.10975469998084,363.0937344999984,0.815832499996759,None,,,,,,,,,,,,,,,,,,,,,,,,,,,,,,,,,,,,,,,,,,,,,,,,,,,,,,,,,,,,,,,,,,,,,,,,,,,,,A_6,001,2024-11-28_12h06.44.776,untitled,2024.1.5,None,2024-11-28 12h07.06.721246 +0530,
square.png,stranger,1,M,,,,,,,,,24,0,96,0,,,,,,,,,363.10975469998084,,,,,,,,,,,,,,,,,,,,,,,,,,,,,,,,,,,,,,,,,,,,,,,,,,,,,,,,,,,,363.0940871000057,363.10975469998084,363.59339379996527,363.59339379996527,363.59339379996527,363.59339379996527,363.61029260000214,363.8933771000011,363.8933771000011,363.8933771000011,,364.2609793000156,m,364.2613986999495,364.2771172999637,365.2775015999796,365.2614457999589,0.6538361000129953,None,,,,,,,,,,,,,,,,,,,,,,,,,,,,,,,,,,,,,,,,,,,,,,,,,,,,,,,,,,,,,,,,,,,,,,,,,,,,,A_6,001,2024-11-28_12h06.44.776,untitled,2024.1.5,None,2024-11-28 12h07.06.721246 +0530,
triangle.png,stranger,0,Z,,,,,,,,,24,1,97,3,,,,,,,,,365.2775015999796,,,,,,,,,,,,,,,,,,,,,,,,,,,,,,,,,,,,,,,,,,,,,,,,,,,,,,,,,,,,365.26179279992357,365.2775015999796,365.76122059999034,365.76122059999034,365.76122059999034,365.76122059999034,365.77795519994106,366.06136609998066,366.06136609998066,366.06136609998066,,366.59579870000016,z,366.5962169999257,366.61182889994234,367.612174400012,367.5959644999821,0.8220643999520689,None,,,,,,,,,,,,,,,,,,,,,,,,,,,,,,,,,,,,,,,,,,,,,,,,,,,,,,,,,,,,,,,,,,,,,,,,,,,,,A_6,001,2024-11-28_12h06.44.776,untitled,2024.1.5,None,2024-11-28 12h07.06.721246 +0530,
triangle.png,you,1,M,,,,,,,,,24,2,98,1,,,,,,,,,367.612174400012,,,,,,,,,,,,,,,,,,,,,,,,,,,,,,,,,,,,,,,,,,,,,,,,,,,,,,,,,,,,367.59630999993533,367.612174400012,368.09580879996065,368.09580879996065,368.09580879996065,368.09580879996065,368.1124334000051,368.3959852999542,368.3959852999542,368.3959852999542,,368.6134183999384,m,368.6138327999506,368.6295299999183,369.6296862999443,369.6136167999357,0.5119526999769732,None,,,,,,,,,,,,,,,,,,,,,,,,,,,,,,,,,,,,,,,,,,,,,,,,,,,,,,,,,,,,,,,,,,,,,,,,,,,,,A_6,001,2024-11-28_12h06.44.776,untitled,2024.1.5,None,2024-11-28 12h07.06.721246 +0530,
square.png,you,0,Z,,,,,,,,,24,3,99,2,,,,,,,,,369.6296862999443,,,,,,,,,,,,,,,,,,,,,,,,,,,,,,,,,,,,,,,,,,,,,,,,,,,,,,,,,,,,369.6139655999141,369.6296862999443,370.1136351999594,370.1136351999594,370.1136351999594,370.1136351999594,370.1301956999814,370.41357979993336,370.41357979993336,370.41357979993336,,370.9646661999868,z,370.96508649992757,370.98070479999296,371.98105719999876,371.96480770001654,0.8430573999648914,None,,,,,,,,,,,,,,,,,,,,,,,,,,,,,,,,,,,,,,,,,,,,,,,,,,,,,,,,,,,,,,,,,,,,,,,,,,,,,A_6,001,2024-11-28_12h06.44.776,untitled,2024.1.5,None,2024-11-28 12h07.06.721246 +0530,
triangle.png,you,1,M,,,,,,,,,25,0,100,1,,,,,,,,,371.98105719999876,,,,,,,,,,,,,,,,,,,,,,,,,,,,,,,,,,,,,,,,,,,,,,,,,,,,,,,,,,,,371.96515199996065,371.98105719999876,372.464702499914,372.464702499914,372.464702499914,372.464702499914,372.48138060001656,372.76476539997384,372.76476539997384,372.76476539997384,,373.18233949993737,m,373.182761700009,373.19816639996134,374.1989239999093,374.1824672999792,0.7155762000475079,None,,,,,,,,,,,,,,,,,,,,,,,,,,,,,,,,,,,,,,,,,,,,,,,,,,,,,,,,,,,,,,,,,,,,,,,,,,,,,A_6,001,2024-11-28_12h06.44.776,untitled,2024.1.5,None,2024-11-28 12h07.06.721246 +0530,
square.png,you,0,Z,,,,,,,,,25,1,101,2,,,,,,,,,374.1989239999093,,,,,,,,,,,,,,,,,,,,,,,,,,,,,,,,,,,,,,,,,,,,,,,,,,,,,,,,,,,,374.182811299921,374.1989239999093,374.68248189997394,374.68248189997394,374.68248189997394,374.68248189997394,374.69930909993127,374.9826482000062,374.9826482000062,374.9826482000062,,375.5000330999028,z,375.50045829999726,375.5162919999566,376.5166275999509,376.50056229997426,0.805915700038895,None,,,,,,,,,,,,,,,,,,,,,,,,,,,,,,,,,,,,,,,,,,,,,,,,,,,,,,,,,,,,,,,,,,,,,,,,,,,,,A_6,001,2024-11-28_12h06.44.776,untitled,2024.1.5,None,2024-11-28 12h07.06.721246 +0530,
triangle.png,stranger,0,Z,,,,,,,,,25,2,102,3,,,,,,,,,376.5166275999509,,,,,,,,,,,,,,,,,,,,,,,,,,,,,,,,,,,,,,,,,,,,,,,,,,,,,,,,,,,,376.50090799992904,376.5166275999509,377.0005787999835,377.0005787999835,377.0005787999835,377.0005787999835,377.0169024999486,377.3004937999649,377.3004937999649,377.3004937999649,,377.8848545999499,m,377.88527229998726,377.9007118999725,378.9011483999202,378.885209399974,0.8678320000180975,None,,,,,,,,,,,,,,,,,,,,,,,,,,,,,,,,,,,,,,,,,,,,,,,,,,,,,,,,,,,,,,,,,,,,,,,,,,,,,A_6,001,2024-11-28_12h06.44.776,untitled,2024.1.5,None,2024-11-28 12h07.06.721246 +0530,
square.png,stranger,1,M,,,,,,,,,25,3,103,0,,,,,,,,,378.9011483999202,,,,,,,,,,,,,,,,,,,,,,,,,,,,,,,,,,,,,,,,,,,,,,,,,,,,,,,,,,,,378.8855544999242,378.9011483999202,379.3850769000128,379.3850769000128,379.3850769000128,379.3850769000128,379.40165489993524,379.6849013000028,379.6849013000028,379.6849013000028,,379.85254779993556,m,379.8529707000125,379.86845459998585,380.8689855999546,380.85251290001906,0.45888189994730055,None,,,,,,,,,,,,,,,,,,,,,,,,,,,,,,,,,,,,,,,,,,,,,,,,,,,,,,,,,,,,,,,,,,,,,,,,,,,,,A_6,001,2024-11-28_12h06.44.776,untitled,2024.1.5,None,2024-11-28 12h07.06.721246 +0530,
triangle.png,you,1,M,,,,,,,,,26,0,104,1,,,,,,,,,380.8689855999546,,,,,,,,,,,,,,,,,,,,,,,,,,,,,,,,,,,,,,,,,,,,,,,,,,,,,,,,,,,,380.85286039998755,380.8689855999546,381.3528979999246,381.3528979999246,381.3528979999246,381.3528979999246,381.36913579993416,381.6525987999048,381.6525987999048,381.6525987999048,,382.32049610000104,m,382.3209160999395,382.33631099993363,383.33681179990526,383.3205254999921,0.9514350000536069,None,,,,,,,,,,,,,,,,,,,,,,,,,,,,,,,,,,,,,,,,,,,,,,,,,,,,,,,,,,,,,,,,,,,,,,,,,,,,,A_6,001,2024-11-28_12h06.44.776,untitled,2024.1.5,None,2024-11-28 12h07.06.721246 +0530,
triangle.png,stranger,0,Z,,,,,,,,,26,1,105,3,,,,,,,,,383.33681179990526,,,,,,,,,,,,,,,,,,,,,,,,,,,,,,,,,,,,,,,,,,,,,,,,,,,,,,,,,,,,383.32086959993467,383.33681179990526,383.820687099942,383.820687099942,383.820687099942,383.820687099942,383.83724759996403,384.12054689996876,384.12054689996876,384.12054689996876,,384.50466569990385,z,384.5050877999747,384.5208274999168,385.5214030999923,385.5051164999604,0.6826577000319958,None,,,,,,,,,,,,,,,,,,,,,,,,,,,,,,,,,,,,,,,,,,,,,,,,,,,,,,,,,,,,,,,,,,,,,,,,,,,,,A_6,001,2024-11-28_12h06.44.776,untitled,2024.1.5,None,2024-11-28 12h07.06.721246 +0530,
square.png,you,0,Z,,,,,,,,,26,2,106,2,,,,,,,,,385.5214030999923,,,,,,,,,,,,,,,,,,,,,,,,,,,,,,,,,,,,,,,,,,,,,,,,,,,,,,,,,,,,385.50546289992053,385.5214030999923,386.0050174999051,386.0050174999051,386.0050174999051,386.0050174999051,386.02152249997016,386.3050106000155,386.3050106000155,386.3050106000155,,386.82277979992796,m,386.8232138999738,386.83847780001815,387.8392851999961,387.8230664000148,0.8149337000213563,None,,,,,,,,,,,,,,,,,,,,,,,,,,,,,,,,,,,,,,,,,,,,,,,,,,,,,,,,,,,,,,,,,,,,,,,,,,,,,A_6,001,2024-11-28_12h06.44.776,untitled,2024.1.5,None,2024-11-28 12h07.06.721246 +0530,
square.png,stranger,1,M,,,,,,,,,26,3,107,0,,,,,,,,,387.8392851999961,,,,,,,,,,,,,,,,,,,,,,,,,,,,,,,,,,,,,,,,,,,,,,,,,,,,,,,,,,,,387.8234204999171,387.8392851999961,388.3229403999867,388.3229403999867,388.3229403999867,388.3229403999867,388.33956270001363,388.62275619991124,388.62275619991124,388.62275619991124,389.4232988000149,389.40700459992513,None,389.4071934999665,389.4232988000149,390.4238366999198,390.40768989990465,,,,,,,,,,,,,,,,,,,,,,,,,,,,,,,,,,,,,,,,,,,,,,,,,,,,,,,,,,,,,,,,,,,,,,,,,,,,,,,A_6,001,2024-11-28_12h06.44.776,untitled,2024.1.5,None,2024-11-28 12h07.06.721246 +0530,
triangle.png,stranger,0,Z,,,,,,,,,27,0,108,3,,,,,,,,,390.4238366999198,,,,,,,,,,,,,,,,,,,,,,,,,,,,,,,,,,,,,,,,,,,,,,,,,,,,,,,,,,,,390.4080366999842,390.4238366999198,390.9242360999342,390.9242360999342,390.9242360999342,390.9242360999342,390.9242360999342,391.2240444999188,391.2240444999188,391.2240444999188,,391.97551089990884,z,391.9759417999303,391.9915248999605,392.9919579999987,392.9757308999542,1.034809699980542,None,,,,,,,,,,,,,,,,,,,,,,,,,,,,,,,,,,,,,,,,,,,,,,,,,,,,,,,,,,,,,,,,,,,,,,,,,,,,,A_6,001,2024-11-28_12h06.44.776,untitled,2024.1.5,None,2024-11-28 12h07.06.721246 +0530,
square.png,you,0,Z,,,,,,,,,27,1,109,2,,,,,,,,,392.9919579999987,,,,,,,,,,,,,,,,,,,,,,,,,,,,,,,,,,,,,,,,,,,,,,,,,,,,,,,,,,,,392.9760829999577,392.9919579999987,393.47568859998137,393.47568859998137,393.47568859998137,393.47568859998137,393.4920443999581,393.77547869994305,393.77547869994305,393.77547869994305,,394.2598041999154,m,394.26023169991095,394.27566209994256,395.2764272999484,395.2600957999239,0.780867199995555,None,,,,,,,,,,,,,,,,,,,,,,,,,,,,,,,,,,,,,,,,,,,,,,,,,,,,,,,,,,,,,,,,,,,,,,,,,,,,,A_6,001,2024-11-28_12h06.44.776,untitled,2024.1.5,None,2024-11-28 12h07.06.721246 +0530,
triangle.png,you,1,M,,,,,,,,,27,2,110,1,,,,,,,,,395.2764272999484,,,,,,,,,,,,,,,,,,,,,,,,,,,,,,,,,,,,,,,,,,,,,,,,,,,,,,,,,,,,395.2604443000164,395.2764272999484,395.75997189991176,395.75997189991176,395.75997189991176,395.75997189991176,395.7767323999433,396.05989339994267,396.05989339994267,396.05989339994267,,396.39436349994503,m,396.3948178999126,396.41031159996055,397.41077399998903,397.3944915999891,0.6279025000985712,None,,,,,,,,,,,,,,,,,,,,,,,,,,,,,,,,,,,,,,,,,,,,,,,,,,,,,,,,,,,,,,,,,,,,,,,,,,,,,A_6,001,2024-11-28_12h06.44.776,untitled,2024.1.5,None,2024-11-28 12h07.06.721246 +0530,
square.png,stranger,1,M,,,,,,,,,27,3,111,0,,,,,,,,,397.41077399998903,,,,,,,,,,,,,,,,,,,,,,,,,,,,,,,,,,,,,,,,,,,,,,,,,,,,,,,,,,,,397.3948520999402,397.41077399998903,397.8946317000082,397.8946317000082,397.8946317000082,397.8946317000082,397.91097829991486,398.1942887000041,398.1942887000041,398.1942887000041,,398.51215349999256,z,398.51257239992265,398.52790400001686,399.5286414999282,399.51251059991773,0.6133102999301627,None,,,,,,,,,,,,,,,,,,,,,,,,,,,,,,,,,,,,,,,,,,,,,,,,,,,,,,,,,,,,,,,,,,,,,,,,,,,,,A_6,001,2024-11-28_12h06.44.776,untitled,2024.1.5,None,2024-11-28 12h07.06.721246 +0530,
triangle.png,stranger,0,Z,,,,,,,,,28,0,112,3,,,,,,,,,399.5286414999282,,,,,,,,,,,,,,,,,,,,,,,,,,,,,,,,,,,,,,,,,,,,,,,,,,,,,,,,,,,,399.51285880000796,399.5286414999282,400.0123997000046,400.0123997000046,400.0123997000046,400.0123997000046,400.02892630000133,400.31222459999844,400.31222459999844,400.31222459999844,,401.01352419995237,z,401.0139577999944,401.02942639996763,402.02994149993174,402.01364089990966,0.9991440000012517,None,,,,,,,,,,,,,,,,,,,,,,,,,,,,,,,,,,,,,,,,,,,,,,,,,,,,,,,,,,,,,,,,,,,,,,,,,,,,,A_6,001,2024-11-28_12h06.44.776,untitled,2024.1.5,None,2024-11-28 12h07.06.721246 +0530,
square.png,you,0,Z,,,,,,,,,28,1,113,2,,,,,,,,,402.02994149993174,,,,,,,,,,,,,,,,,,,,,,,,,,,,,,,,,,,,,,,,,,,,,,,,,,,,,,,,,,,,402.0139885999961,402.02994149993174,402.5135851999512,402.5135851999512,402.5135851999512,402.5135851999512,402.53026129992213,402.813551499974,402.813551499974,402.813551499974,,403.3645443000132,z,403.3649723000126,403.3804310999112,404.3811368999304,404.3648371999152,0.8384636000264436,None,,,,,,,,,,,,,,,,,,,,,,,,,,,,,,,,,,,,,,,,,,,,,,,,,,,,,,,,,,,,,,,,,,,,,,,,,,,,,A_6,001,2024-11-28_12h06.44.776,untitled,2024.1.5,None,2024-11-28 12h07.06.721246 +0530,
triangle.png,you,1,M,,,,,,,,,28,2,114,1,,,,,,,,,404.3811368999304,,,,,,,,,,,,,,,,,,,,,,,,,,,,,,,,,,,,,,,,,,,,,,,,,,,,,,,,,,,,404.3651831999887,404.3811368999304,404.8648484000005,404.8648484000005,404.8648484000005,404.8648484000005,404.8813726999797,405.1648086999776,405.1648086999776,405.1648086999776,,405.7493244999787,m,405.74974469991866,405.76520909997635,406.76564250001684,406.7492708999198,0.882998599903658,None,,,,,,,,,,,,,,,,,,,,,,,,,,,,,,,,,,,,,,,,,,,,,,,,,,,,,,,,,,,,,,,,,,,,,,,,,,,,,A_6,001,2024-11-28_12h06.44.776,untitled,2024.1.5,None,2024-11-28 12h07.06.721246 +0530,
square.png,stranger,1,M,,,,,,,,,28,3,115,0,,,,,,,,,406.76564250001684,,,,,,,,,,,,,,,,,,,,,,,,,,,,,,,,,,,,,,,,,,,,,,,,,,,,,,,,,,,,406.7496160999872,406.76564250001684,407.2495790999383,407.2495790999383,407.2495790999383,407.2495790999383,407.2658647999633,407.5492122999858,407.5492122999858,407.5492122999858,,407.7669089999981,m,407.76734049990773,407.78294449998066,408.7832913999446,408.76705539994873,0.5102774000260979,None,,,,,,,,,,,,,,,,,,,,,,,,,,,,,,,,,,,,,,,,,,,,,,,,,,,,,,,,,,,,,,,,,,,,,,,,,,,,,A_6,001,2024-11-28_12h06.44.776,untitled,2024.1.5,None,2024-11-28 12h07.06.721246 +0530,
triangle.png,you,1,M,,,,,,,,,29,0,116,1,,,,,,,,,408.7832913999446,,,,,,,,,,,,,,,,,,,,,,,,,,,,,,,,,,,,,,,,,,,,,,,,,,,,,,,,,,,,408.7674077999545,408.7832913999446,409.26684159995057,409.26684159995057,409.26684159995057,409.26684159995057,409.28358459996525,409.5668888000073,409.5668888000073,409.5668888000073,,409.867800100008,m,409.868220299948,409.88391299999785,410.8844157999847,410.86801629990805,0.5979547000024468,None,,,,,,,,,,,,,,,,,,,,,,,,,,,,,,,,,,,,,,,,,,,,,,,,,,,,,,,,,,,,,,,,,,,,,,,,,,,,,A_6,001,2024-11-28_12h06.44.776,untitled,2024.1.5,None,2024-11-28 12h07.06.721246 +0530,
square.png,stranger,1,M,,,,,,,,,29,1,117,0,,,,,,,,,410.8844157999847,,,,,,,,,,,,,,,,,,,,,,,,,,,,,,,,,,,,,,,,,,,,,,,,,,,,,,,,,,,,410.8683895999566,410.8844157999847,411.3682006999152,411.3682006999152,411.3682006999152,411.3682006999152,411.3845626999391,411.66815049992874,411.66815049992874,411.66815049992874,,412.018900899915,z,412.01932309998665,412.03491009993013,413.03531629999634,413.01925399992615,0.638846900081262,None,,,,,,,,,,,,,,,,,,,,,,,,,,,,,,,,,,,,,,,,,,,,,,,,,,,,,,,,,,,,,,,,,,,,,,,,,,,,,A_6,001,2024-11-28_12h06.44.776,untitled,2024.1.5,None,2024-11-28 12h07.06.721246 +0530,
triangle.png,stranger,0,Z,,,,,,,,,29,2,118,3,,,,,,,,,413.03531629999634,,,,,,,,,,,,,,,,,,,,,,,,,,,,,,,,,,,,,,,,,,,,,,,,,,,,,,,,,,,,413.0196038999129,413.03531629999634,413.51918239996303,413.51918239996303,413.51918239996303,413.51918239996303,413.5358635999728,413.81905519997235,413.81905519997235,413.81905519997235,,414.3534770999104,z,414.3539165999973,414.3694911999628,415.3700756999897,415.35369759995956,0.819941799971275,None,,,,,,,,,,,,,,,,,,,,,,,,,,,,,,,,,,,,,,,,,,,,,,,,,,,,,,,,,,,,,,,,,,,,,,,,,,,,,A_6,001,2024-11-28_12h06.44.776,untitled,2024.1.5,None,2024-11-28 12h07.06.721246 +0530,
square.png,you,0,Z,,,,,,,,,29,3,119,2,,,,,,,,,415.3700756999897,,,,,,,,,,,,,,,,,,,,,,,,,,,,,,,,,,,,,,,,,,,,,,,,,,,,,,,,,,,,415.3540433999151,415.3700756999897,415.8538521999726,415.8538521999726,415.8538521999726,415.8538521999726,415.87036189995706,416.15371250000317,416.15371250000317,416.15371250000317,,416.4547419999726,m,416.45516339992173,416.4706717999652,417.4709716999205,417.45486219995655,0.5933711000252515,None,,,,,,,,,,,,,,,,,,,,,,,,,,,,,,,,,,,,,,,,,,,,,,,,,,,,,,,,,,,,,,,,,,,,,,,,,,,,,A_6,001,2024-11-28_12h06.44.776,untitled,2024.1.5,None,2024-11-28 12h07.06.721246 +0530,
square.png,you,0,Z,,,,,,,,,30,0,120,2,,,,,,,,,417.4709716999205,,,,,,,,,,,,,,,,,,,,,,,,,,,,,,,,,,,,,,,,,,,,,,,,,,,,,,,,,,,,417.45521199994255,417.4709716999205,417.95492169994395,417.95492169994395,417.95492169994395,417.95492169994395,417.9713379999157,418.2548807999119,418.2548807999119,418.2548807999119,,418.62228090001736,z,418.62271559995133,418.63840029994026,419.6386622999562,419.62274839996826,0.6578485000645742,None,,,,,,,,,,,,,,,,,,,,,,,,,,,,,,,,,,,,,,,,,,,,,,,,,,,,,,,,,,,,,,,,,,,,,,,,,,,,,A_6,001,2024-11-28_12h06.44.776,untitled,2024.1.5,None,2024-11-28 12h07.06.721246 +0530,
square.png,stranger,1,M,,,,,,,,,30,1,121,0,,,,,,,,,419.6386622999562,,,,,,,,,,,,,,,,,,,,,,,,,,,,,,,,,,,,,,,,,,,,,,,,,,,,,,,,,,,,419.6231006999733,419.6386622999562,420.1225215999875,420.1225215999875,420.1225215999875,420.1225215999875,420.13908180000726,420.4226451999275,420.4226451999275,420.4226451999275,,420.6566530999262,m,420.6570791999111,420.67260779999197,421.6735898000188,421.65703020000365,0.5260306999552995,None,,,,,,,,,,,,,,,,,,,,,,,,,,,,,,,,,,,,,,,,,,,,,,,,,,,,,,,,,,,,,,,,,,,,,,,,,,,,,A_6,001,2024-11-28_12h06.44.776,untitled,2024.1.5,None,2024-11-28 12h07.06.721246 +0530,
triangle.png,you,1,M,,,,,,,,,30,2,122,1,,,,,,,,,421.6735898000188,,,,,,,,,,,,,,,,,,,,,,,,,,,,,,,,,,,,,,,,,,,,,,,,,,,,,,,,,,,,421.65738180000335,421.6735898000188,422.15710029995535,422.15710029995535,422.15710029995535,422.15710029995535,422.17342489992734,422.45706729998346,422.45706729998346,422.45706729998346,,422.807942799991,m,422.80836279992945,422.82398190000094,423.8241617999738,423.8083275000099,0.6393901000265032,None,,,,,,,,,,,,,,,,,,,,,,,,,,,,,,,,,,,,,,,,,,,,,,,,,,,,,,,,,,,,,,,,,,,,,,,,,,,,,A_6,001,2024-11-28_12h06.44.776,untitled,2024.1.5,None,2024-11-28 12h07.06.721246 +0530,
triangle.png,stranger,0,Z,,,,,,,,,30,3,123,3,,,,,,,,,423.8241617999738,,,,,,,,,,,,,,,,,,,,,,,,,,,,,,,,,,,,,,,,,,,,,,,,,,,,,,,,,,,,423.80867539998144,423.8241617999738,424.30827409995254,424.30827409995254,424.30827409995254,424.30827409995254,424.3247571999673,424.6079824999906,424.6079824999906,424.6079824999906,,424.75874819990713,m,424.75917089998256,424.77488439995795,425.77523109992035,425.75912279996555,0.43478689994663,None,,,,,,,,,,,,,,,,,,,,,,,,,,,,,,,,,,,,,,,,,,,,,,,,,,,,,,,,,,,,,,,,,,,,,,,,,,,,,A_6,001,2024-11-28_12h06.44.776,untitled,2024.1.5,None,2024-11-28 12h07.06.721246 +0530,
triangle.png,stranger,0,Z,,,,,,,,,31,0,124,3,,,,,,,,,425.77523109992035,,,,,,,,,,,,,,,,,,,,,,,,,,,,,,,,,,,,,,,,,,,,,,,,,,,,,,,,,,,,425.7594792000018,425.77523109992035,426.2589136000024,426.2589136000024,426.2589136000024,426.2589136000024,426.2755920999916,426.55891959997825,426.55891959997825,426.55891959997825,,426.87684929999523,z,426.877276299987,426.8924435999943,427.8929555999348,427.87681139993947,0.613802699954249,None,,,,,,,,,,,,,,,,,,,,,,,,,,,,,,,,,,,,,,,,,,,,,,,,,,,,,,,,,,,,,,,,,,,,,,,,,,,,,A_6,001,2024-11-28_12h06.44.776,untitled,2024.1.5,None,2024-11-28 12h07.06.721246 +0530,
square.png,you,0,Z,,,,,,,,,31,1,125,2,,,,,,,,,427.8929555999348,,,,,,,,,,,,,,,,,,,,,,,,,,,,,,,,,,,,,,,,,,,,,,,,,,,,,,,,,,,,427.877159299911,427.8929555999348,428.37699619994964,428.37699619994964,428.37699619994964,428.37699619994964,428.39331820001826,428.6767985000042,428.6767985000042,428.6767985000042,,429.2950240999926,z,429.2954775999533,429.3105054999469,430.3109036999522,430.2946529999608,0.9035058000590652,None,,,,,,,,,,,,,,,,,,,,,,,,,,,,,,,,,,,,,,,,,,,,,,,,,,,,,,,,,,,,,,,,,,,,,,,,,,,,,A_6,001,2024-11-28_12h06.44.776,untitled,2024.1.5,None,2024-11-28 12h07.06.721246 +0530,
square.png,stranger,1,M,,,,,,,,,31,2,126,0,,,,,,,,,430.3109036999522,,,,,,,,,,,,,,,,,,,,,,,,,,,,,,,,,,,,,,,,,,,,,,,,,,,,,,,,,,,,430.2949956000084,430.3109036999522,430.8112184999045,430.8112184999045,430.8112184999045,430.8112184999045,430.8112184999045,431.1113591999747,431.1113591999747,431.1113591999747,,431.4124463999178,m,431.41286989999935,431.42821549996734,432.4288719999604,432.4124515999574,0.5890874000033364,None,,,,,,,,,,,,,,,,,,,,,,,,,,,,,,,,,,,,,,,,,,,,,,,,,,,,,,,,,,,,,,,,,,,,,,,,,,,,,A_6,001,2024-11-28_12h06.44.776,untitled,2024.1.5,None,2024-11-28 12h07.06.721246 +0530,
triangle.png,you,1,M,,,,,,,,,31,3,127,1,,,,,,,,,432.4288719999604,,,,,,,,,,,,,,,,,,,,,,,,,,,,,,,,,,,,,,,,,,,,,,,,,,,,,,,,,,,,432.41279490001034,432.4288719999604,432.9126274000155,432.9126274000155,432.9126274000155,432.9126274000155,432.9290116999764,433.21245270001236,433.21245270001236,433.21245270001236,,433.3800065999385,m,433.3804246999789,433.39596939994954,434.396675499971,434.38016739999875,0.45972420007456094,None,,,,,,,,,,,,,,,,,,,,,,,,,,,,,,,,,,,,,,,,,,,,,,,,,,,,,,,,,,,,,,,,,,,,,,,,,,,,,A_6,001,2024-11-28_12h06.44.776,untitled,2024.1.5,None,2024-11-28 12h07.06.721246 +0530,
triangle.png,you,1,M,,,,,,,,,32,0,128,1,,,,,,,,,434.396675499971,,,,,,,,,,,,,,,,,,,,,,,,,,,,,,,,,,,,,,,,,,,,,,,,,,,,,,,,,,,,434.38051229994744,434.396675499971,434.8801266999217,434.8801266999217,434.8801266999217,434.8801266999217,434.89671170001384,435.18017329997383,435.18017329997383,435.18017329997383,,435.38101090001874,m,435.3814269999275,435.39703559991904,436.39741460001096,436.3812632999616,0.4923160000471398,None,,,,,,,,,,,,,,,,,,,,,,,,,,,,,,,,,,,,,,,,,,,,,,,,,,,,,,,,,,,,,,,,,,,,,,,,,,,,,A_6,001,2024-11-28_12h06.44.776,untitled,2024.1.5,None,2024-11-28 12h07.06.721246 +0530,
square.png,you,0,Z,,,,,,,,,32,1,129,2,,,,,,,,,436.39741460001096,,,,,,,,,,,,,,,,,,,,,,,,,,,,,,,,,,,,,,,,,,,,,,,,,,,,,,,,,,,,436.38161129993387,436.39741460001096,436.88110349990893,436.88110349990893,436.88110349990893,436.88110349990893,436.8980281999102,437.18114399991464,437.18114399991464,437.18114399991464,,437.81538409995846,z,437.815813299967,437.8316231999779,438.83201689994894,438.8156305999728,0.9311940000625327,None,,,,,,,,,,,,,,,,,,,,,,,,,,,,,,,,,,,,,,,,,,,,,,,,,,,,,,,,,,,,,,,,,,,,,,,,,,,,,A_6,001,2024-11-28_12h06.44.776,untitled,2024.1.5,None,2024-11-28 12h07.06.721246 +0530,
square.png,stranger,1,M,,,,,,,,,32,2,130,0,,,,,,,,,438.83201689994894,,,,,,,,,,,,,,,,,,,,,,,,,,,,,,,,,,,,,,,,,,,,,,,,,,,,,,,,,,,,438.81597429991234,438.83201689994894,439.31560169998556,439.31560169998556,439.31560169998556,439.31560169998556,439.3323499999242,439.61574379995,439.61574379995,439.61574379995,,439.98330089997035,m,439.9837232999271,439.99916699994355,440.9997169999406,440.98363079992123,0.661087799933739,None,,,,,,,,,,,,,,,,,,,,,,,,,,,,,,,,,,,,,,,,,,,,,,,,,,,,,,,,,,,,,,,,,,,,,,,,,,,,,A_6,001,2024-11-28_12h06.44.776,untitled,2024.1.5,None,2024-11-28 12h07.06.721246 +0530,
triangle.png,stranger,0,Z,,,,,,,,,32,3,131,3,,,,,,,,,440.9997169999406,,,,,,,,,,,,,,,,,,,,,,,,,,,,,,,,,,,,,,,,,,,,,,,,,,,,,,,,,,,,440.9839762999909,440.9997169999406,441.4835553999292,441.4835553999292,441.4835553999292,441.4835553999292,441.5002442999976,441.78350049990695,441.78350049990695,441.78350049990695,,442.48474919993896,z,442.48517459991854,442.50043040001765,443.50098719995003,443.48490859998856,0.9857218000106514,None,,,,,,,,,,,,,,,,,,,,,,,,,,,,,,,,,,,,,,,,,,,,,,,,,,,,,,,,,,,,,,,,,,,,,,,,,,,,,A_6,001,2024-11-28_12h06.44.776,untitled,2024.1.5,None,2024-11-28 12h07.06.721246 +0530,
triangle.png,stranger,0,Z,,,,,,,,,33,0,132,3,,,,,,,,,443.50098719995003,,,,,,,,,,,,,,,,,,,,,,,,,,,,,,,,,,,,,,,,,,,,,,,,,,,,,,,,,,,,443.4852642000187,443.50098719995003,443.9846843999112,443.9846843999112,443.9846843999112,443.9846843999112,444.0015253999736,444.2849511000095,444.2849511000095,444.2849511000095,,444.60227639996447,z,444.60270389996003,444.6184653999517,445.61874850001186,445.6027036999585,0.6157217000145465,None,,,,,,,,,,,,,,,,,,,,,,,,,,,,,,,,,,,,,,,,,,,,,,,,,,,,,,,,,,,,,,,,,,,,,,,,,,,,,A_6,001,2024-11-28_12h06.44.776,untitled,2024.1.5,None,2024-11-28 12h07.06.721246 +0530,
square.png,you,0,Z,,,,,,,,,33,1,133,2,,,,,,,,,445.61874850001186,,,,,,,,,,,,,,,,,,,,,,,,,,,,,,,,,,,,,,,,,,,,,,,,,,,,,,,,,,,,445.60320599994157,445.61874850001186,446.1027015999425,446.1027015999425,446.1027015999425,446.1027015999425,446.11910739995074,446.4025374999037,446.4025374999037,446.4025374999037,,446.8536122000078,z,446.85403029993176,446.8694104999304,447.8698487000074,447.8536479999311,0.7420240000355989,None,,,,,,,,,,,,,,,,,,,,,,,,,,,,,,,,,,,,,,,,,,,,,,,,,,,,,,,,,,,,,,,,,,,,,,,,,,,,,A_6,001,2024-11-28_12h06.44.776,untitled,2024.1.5,None,2024-11-28 12h07.06.721246 +0530,
square.png,stranger,1,M,,,,,,,,,33,2,134,0,,,,,,,,,447.8698487000074,,,,,,,,,,,,,,,,,,,,,,,,,,,,,,,,,,,,,,,,,,,,,,,,,,,,,,,,,,,,447.85399949993007,447.8698487000074,448.35359670000616,448.35359670000616,448.35359670000616,448.35359670000616,448.3701169999549,448.6536877999315,448.6536877999315,448.6536877999315,449.4540601999033,449.4379488999257,None,449.43813679995947,449.4540601999033,450.4547196999192,450.4384809999028,,,,,,,,,,,,,,,,,,,,,,,,,,,,,,,,,,,,,,,,,,,,,,,,,,,,,,,,,,,,,,,,,,,,,,,,,,,,,,,A_6,001,2024-11-28_12h06.44.776,untitled,2024.1.5,None,2024-11-28 12h07.06.721246 +0530,
triangle.png,you,1,M,,,,,,,,,33,3,135,1,,,,,,,,,450.4547196999192,,,,,,,,,,,,,,,,,,,,,,,,,,,,,,,,,,,,,,,,,,,,,,,,,,,,,,,,,,,,450.43882529996336,450.4547196999192,450.9549474999076,450.9549474999076,450.9549474999076,450.9549474999076,450.9549474999076,451.2549762999406,451.2549762999406,451.2549762999406,,451.58943819999695,z,451.5898617999628,451.6053104000166,452.6056254999712,452.58941149991006,0.625578899984248,None,,,,,,,,,,,,,,,,,,,,,,,,,,,,,,,,,,,,,,,,,,,,,,,,,,,,,,,,,,,,,,,,,,,,,,,,,,,,,A_6,001,2024-11-28_12h06.44.776,untitled,2024.1.5,None,2024-11-28 12h07.06.721246 +0530,
triangle.png,stranger,0,Z,,,,,,,,,34,0,136,3,,,,,,,,,452.6056254999712,,,,,,,,,,,,,,,,,,,,,,,,,,,,,,,,,,,,,,,,,,,,,,,,,,,,,,,,,,,,452.5897559999721,452.6056254999712,453.089369699941,453.089369699941,453.089369699941,453.089369699941,453.10624839994125,453.3892914999742,453.3892914999742,453.3892914999742,,453.75728459993843,z,453.75770600000396,453.77323759999126,454.7737351999385,454.757279500016,0.6633692999603227,None,,,,,,,,,,,,,,,,,,,,,,,,,,,,,,,,,,,,,,,,,,,,,,,,,,,,,,,,,,,,,,,,,,,,,,,,,,,,,A_6,001,2024-11-28_12h06.44.776,untitled,2024.1.5,None,2024-11-28 12h07.06.721246 +0530,
triangle.png,you,1,M,,,,,,,,,34,1,137,1,,,,,,,,,454.7737351999385,,,,,,,,,,,,,,,,,,,,,,,,,,,,,,,,,,,,,,,,,,,,,,,,,,,,,,,,,,,,454.7576227999525,454.7737351999385,455.2572019000072,455.2572019000072,455.2572019000072,455.2572019000072,455.27380189998075,455.55728959990665,455.55728959990665,455.55728959990665,,455.8248210999882,m,455.82524579996243,455.8407845000038,456.8414053999586,456.82513239991385,0.5546843999763951,None,,,,,,,,,,,,,,,,,,,,,,,,,,,,,,,,,,,,,,,,,,,,,,,,,,,,,,,,,,,,,,,,,,,,,,,,,,,,,A_6,001,2024-11-28_12h06.44.776,untitled,2024.1.5,None,2024-11-28 12h07.06.721246 +0530,
square.png,stranger,1,M,,,,,,,,,34,2,138,0,,,,,,,,,456.8414053999586,,,,,,,,,,,,,,,,,,,,,,,,,,,,,,,,,,,,,,,,,,,,,,,,,,,,,,,,,,,,456.8254737999523,456.8414053999586,457.32510079990607,457.32510079990607,457.32510079990607,457.32510079990607,457.34155919996556,457.62503220001236,457.62503220001236,457.62503220001236,458.4254058999941,458.40913569997065,None,458.4093274999177,458.4254058999941,459.42585509992205,459.40956149995327,,,,,,,,,,,,,,,,,,,,,,,,,,,,,,,,,,,,,,,,,,,,,,,,,,,,,,,,,,,,,,,,,,,,,,,,,,,,,,,A_6,001,2024-11-28_12h06.44.776,untitled,2024.1.5,None,2024-11-28 12h07.06.721246 +0530,
