stimulus,label,is_match,shouldpress,stimulus_2,label_2,is_match_2,shouldpress_2,p_trials.thisRepN,p_trials.thisTrialN,p_trials.thisN,p_trials.thisIndex,trials.thisRepN,trials.thisTrialN,trials.thisN,trials.thisIndex,p_trials_2.thisRepN,p_trials_2.thisTrialN,p_trials_2.thisN,p_trials_2.thisIndex,trials_2.thisRepN,trials_2.thisTrialN,trials_2.thisN,trials_2.thisIndex,thisRow.t,notes,Intruduction.started,text_3.started,key_resp_2.started,Intruduction.stopped,key_resp_2.keys,key_resp_2.rt,key_resp_2.duration,self_other_instructions.started,text_4.started,key_resp_3.started,self_other_instructions.stopped,key_resp_3.keys,key_resp_3.rt,key_resp_3.duration,self_other_info.started,square_image.started,triangle_image.started,self_label.started,other_label.started,key_resp_4.started,text_5.started,self_other_info.stopped,key_resp_4.keys,key_resp_4.rt,key_resp_4.duration,self_other_starting_2.started,text_6.started,key_resp_5.started,self_other_starting_2.stopped,key_resp_5.keys,key_resp_5.rt,key_resp_5.duration,practice1.started,p_fication.started,p_fixation_3.started,p_text.started,key_resp_p.started,p_image.started,p_fication.stopped,p_fixation_3.stopped,p_text.stopped,p_image.stopped,key_resp_p.stopped,practice1.stopped,key_resp_p.keys,p_feedback.started,text_15.started,p_feedback.stopped,text_15.stopped,key_resp_p.rt,key_resp_p.duration,start2.started,start_2.started,key_resp_11.started,start2.stopped,key_resp_11.keys,key_resp_11.rt,key_resp_11.duration,trial.started,fixation.started,fixation_3.started,text.started,key_resp.started,image.started,fixation.stopped,fixation_3.stopped,text.stopped,image.stopped,key_resp.stopped,trial.stopped,key_resp.keys,feedback.started,text_2.started,text_2.stopped,feedback.stopped,key_resp.rt,key_resp.duration,break_3.started,text_13.started,text_14.started,key_resp_10.started,text_13.stopped,break_3.stopped,key_resp_10.keys,key_resp_10.rt,key_resp_10.duration,self_other_instructions_2.started,text_10.started,key_resp_7.started,self_other_instructions_2.stopped,key_resp_7.keys,key_resp_7.rt,key_resp_7.duration,self_other_intro_2.started,circle_image.started,diamond_image.started,Disgusting_self_lable.started,Desirable_self_lable.started,key_resp_8.started,text_11.started,self_other_intro_2.stopped,key_resp_8.keys,key_resp_8.rt,key_resp_8.duration,self_other_starting_3.started,text_12.started,key_resp_9.started,self_other_starting_3.stopped,key_resp_9.keys,key_resp_9.rt,key_resp_9.duration,practice2.started,p_fixation_2.started,p_fixation_4.started,p_text_8.started,key_resp_6_p.started,p_image_2.started,p_fixation_2.stopped,p_fixation_4.stopped,p_text_8.stopped,p_image_2.stopped,key_resp_6_p.stopped,practice2.stopped,key_resp_6_p.keys,feedback_2_p.started,text_16.started,text_16.stopped,feedback_2_p.stopped,key_resp_6_p.rt,key_resp_6_p.duration,trial_2.started,fixation_2.started,fixation_4.started,text_8.started,key_resp_6.started,image_2.started,fixation_2.stopped,fixation_4.stopped,text_8.stopped,image_2.stopped,key_resp_6.stopped,trial_2.stopped,key_resp_6.keys,feedback_2.started,text_9.started,text_9.stopped,feedback_2.stopped,key_resp_6.rt,key_resp_6.duration,Thank_you.started,text_7.started,text_7.stopped,Thank_you.stopped,participant,session,date,expName,psychopyVersion,frameRate,expStart,
,,,,,,,,,,,,,,,,,,,,,,,,,,0.0027456999523565173,0.006509999977424741,0.006509999977424741,4.464631799957715,space,4.447910899994895,None,,,,,,,,,,,,,,,,,,,,,,,,,,,,,,,,,,,,,,,,,,,,,,,,,,,,,,,,,,,,,,,,,,,,,,,,,,,,,,,,,,,,,,,,,,,,,,,,,,,,,,,,,,,,,,,,,,,,,,,,,,,,,,,,,,,,,,,,,,,,,,,,,,,A_7,001,2024-11-28_13h32.31.371,untitled,2024.1.5,None,2024-11-28 13h32.45.696041 +0530,
,,,,,,,,,,,,,,,,,,,,,,,,,,,,,,,,,4.464656400028616,4.47861849993933,4.47861849993933,44.366753199952655,space,39.872212299960665,None,,,,,,,,,,,,,,,,,,,,,,,,,,,,,,,,,,,,,,,,,,,,,,,,,,,,,,,,,,,,,,,,,,,,,,,,,,,,,,,,,,,,,,,,,,,,,,,,,,,,,,,,,,,,,,,,,,,,,,,,,,,,,,,,,,,,,,,,,,,,A_7,001,2024-11-28_13h32.31.371,untitled,2024.1.5,None,2024-11-28 13h32.45.696041 +0530,
,,,,,,,,,,,,,,,,,,,,,,,,,,,,,,,,,,,,,,,,44.366780199925415,44.40009269991424,44.40009269991424,44.40009269991424,44.40009269991424,44.40009269991424,44.40009269991424,93.49063269991893,space,49.0810221999418,None,,,,,,,,,,,,,,,,,,,,,,,,,,,,,,,,,,,,,,,,,,,,,,,,,,,,,,,,,,,,,,,,,,,,,,,,,,,,,,,,,,,,,,,,,,,,,,,,,,,,,,,,,,,,,,,,,,,,,,,,,,,,,,,,,A_7,001,2024-11-28_13h32.31.371,untitled,2024.1.5,None,2024-11-28 13h32.45.696041 +0530,
,,,,,,,,,,,,,,,,,,,,,,,,,,,,,,,,,,,,,,,,,,,,,,,,,,,93.4906627999153,93.50702369993087,93.50702369993087,109.99945359991398,space,16.483107800013386,None,,,,,,,,,,,,,,,,,,,,,,,,,,,,,,,,,,,,,,,,,,,,,,,,,,,,,,,,,,,,,,,,,,,,,,,,,,,,,,,,,,,,,,,,,,,,,,,,,,,,,,,,,,,,,,,,,,,,,,,,,,A_7,001,2024-11-28_13h32.31.371,untitled,2024.1.5,None,2024-11-28 13h32.45.696041 +0530,
triangle.png,stranger,0,Z,,,,,0,0,0,3,,,,,,,,,,,,,110.01736489997711,,,,,,,,,,,,,,,,,,,,,,,,,,,,,,,,,,110.00556540000252,110.01736489997711,110.5156453999225,110.5156453999225,110.5156453999225,110.5156453999225,110.53194120002445,110.81532409996726,110.81532409996726,110.81532409996726,111.61561759992037,111.59948819992132,None,111.59969169995748,111.61561759992037,112.59964669996407,,,,,,,,,,,,,,,,,,,,,,,,,,,,,,,,,,,,,,,,,,,,,,,,,,,,,,,,,,,,,,,,,,,,,,,,,,,,,,,,,,,,,,,,,,,,,,,,,,,,,,,,,,A_7,001,2024-11-28_13h32.31.371,untitled,2024.1.5,None,2024-11-28 13h32.45.696041 +0530,
square.png,you,0,Z,,,,,0,1,1,2,,,,,,,,,,,,,112.61641919997055,,,,,,,,,,,,,,,,,,,,,,,,,,,,,,,,,,112.59988949995022,112.61641919997055,113.09996050002519,113.09996050002519,113.09996050002519,113.09996050002519,113.11677710001823,113.40008809999563,113.40008809999563,113.40008809999563,114.20037259999663,114.18430229998194,None,114.18443229992408,114.20037259999663,115.18467370001599,115.20089959993493,,,,,,,,,,,,,,,,,,,,,,,,,,,,,,,,,,,,,,,,,,,,,,,,,,,,,,,,,,,,,,,,,,,,,,,,,,,,,,,,,,,,,,,,,,,,,,,,,,,,,,,,,A_7,001,2024-11-28_13h32.31.371,untitled,2024.1.5,None,2024-11-28 13h32.45.696041 +0530,
square.png,stranger,1,M,,,,,0,2,2,0,,,,,,,,,,,,,115.20089959993493,,,,,,,,,,,,,,,,,,,,,,,,,,,,,,,,,,115.18490120000206,115.20089959993493,115.70157979999203,115.70157979999203,115.70157979999203,115.70157979999203,115.70157979999203,116.00131109997164,116.00131109997164,116.00131109997164,116.80189849995077,116.7855243999511,None,116.78565159998834,116.80189849995077,117.78602240001783,117.80246419995092,,,,,,,,,,,,,,,,,,,,,,,,,,,,,,,,,,,,,,,,,,,,,,,,,,,,,,,,,,,,,,,,,,,,,,,,,,,,,,,,,,,,,,,,,,,,,,,,,,,,,,,,,A_7,001,2024-11-28_13h32.31.371,untitled,2024.1.5,None,2024-11-28 13h32.45.696041 +0530,
triangle.png,you,1,M,,,,,0,3,3,1,,,,,,,,,,,,,117.80246419995092,,,,,,,,,,,,,,,,,,,,,,,,,,,,,,,,,,117.78625559993088,117.80246419995092,118.30260970001109,118.30260970001109,118.30260970001109,118.30260970001109,118.30260970001109,118.60268250002991,118.60268250002991,118.60268250002991,,119.0538297999883,z,119.05415290000383,119.06961889995728,120.05393619998358,120.07026659999974,0.7356455000117421,None,,,,,,,,,,,,,,,,,,,,,,,,,,,,,,,,,,,,,,,,,,,,,,,,,,,,,,,,,,,,,,,,,,,,,,,,,,,,,,,,,,,,,,,,,,,,,,,,,,,,,,,A_7,001,2024-11-28_13h32.31.371,untitled,2024.1.5,None,2024-11-28 13h32.45.696041 +0530,
square.png,stranger,1,M,,,,,1,0,4,0,,,,,,,,,,,,,120.07026659999974,,,,,,,,,,,,,,,,,,,,,,,,,,,,,,,,,,120.05417509994004,120.07026659999974,120.55381980002858,120.55381980002858,120.55381980002858,120.55381980002858,120.57053959998302,120.85386989999097,120.85386989999097,120.85386989999097,121.6542582999682,121.63810340000782,None,121.63823319994844,121.6542582999682,122.63856039999519,122.65489999996498,,,,,,,,,,,,,,,,,,,,,,,,,,,,,,,,,,,,,,,,,,,,,,,,,,,,,,,,,,,,,,,,,,,,,,,,,,,,,,,,,,,,,,,,,,,,,,,,,,,,,,,,,A_7,001,2024-11-28_13h32.31.371,untitled,2024.1.5,None,2024-11-28 13h32.45.696041 +0530,
triangle.png,you,1,M,,,,,1,1,5,1,,,,,,,,,,,,,122.65489999996498,,,,,,,,,,,,,,,,,,,,,,,,,,,,,,,,,,122.63879040000029,122.65489999996498,123.1551204000134,123.1551204000134,123.1551204000134,123.1551204000134,123.1551204000134,123.4553401999874,123.4553401999874,123.4553401999874,,124.12290959991515,m,124.12315599992871,124.13868309999816,125.12319209997077,125.13950509997085,0.951693799928762,None,,,,,,,,,,,,,,,,,,,,,,,,,,,,,,,,,,,,,,,,,,,,,,,,,,,,,,,,,,,,,,,,,,,,,,,,,,,,,,,,,,,,,,,,,,,,,,,,,,,,,,,A_7,001,2024-11-28_13h32.31.371,untitled,2024.1.5,None,2024-11-28 13h32.45.696041 +0530,
triangle.png,stranger,0,Z,,,,,1,2,6,3,,,,,,,,,,,,,125.13950509997085,,,,,,,,,,,,,,,,,,,,,,,,,,,,,,,,,,125.12342319998425,125.13950509997085,125.62324809993152,125.62324809993152,125.62324809993152,125.62324809993152,125.63967189996038,125.92323710001074,125.92323710001074,125.92323710001074,,126.69090940000024,z,126.69114889996126,126.7070208999794,127.69103729992639,127.7073967999313,1.0520756000187248,None,,,,,,,,,,,,,,,,,,,,,,,,,,,,,,,,,,,,,,,,,,,,,,,,,,,,,,,,,,,,,,,,,,,,,,,,,,,,,,,,,,,,,,,,,,,,,,,,,,,,,,,A_7,001,2024-11-28_13h32.31.371,untitled,2024.1.5,None,2024-11-28 13h32.45.696041 +0530,
square.png,you,0,Z,,,,,1,3,7,2,,,,,,,,,,,,,127.7073967999313,,,,,,,,,,,,,,,,,,,,,,,,,,,,,,,,,,127.69126380002126,127.7073967999313,128.19105989998206,128.19105989998206,128.19105989998206,128.19105989998206,128.2077245999826,128.4911737999646,128.4911737999646,128.4911737999646,,129.04211509996094,z,129.04236560000572,129.0579322000267,130.04245680000167,130.05868509993888,0.8429831999819726,None,,,,,,,,,,,,,,,,,,,,,,,,,,,,,,,,,,,,,,,,,,,,,,,,,,,,,,,,,,,,,,,,,,,,,,,,,,,,,,,,,,,,,,,,,,,,,,,,,,,,,,,A_7,001,2024-11-28_13h32.31.371,untitled,2024.1.5,None,2024-11-28 13h32.45.696041 +0530,
triangle.png,stranger,0,Z,,,,,2,0,8,3,,,,,,,,,,,,,130.05868509993888,,,,,,,,,,,,,,,,,,,,,,,,,,,,,,,,,,130.0426993999863,130.05868509993888,130.542173899943,130.542173899943,130.542173899943,130.542173899943,130.55899029993452,130.84230769996066,130.84230769996066,130.84230769996066,131.64276770001743,131.62656000000425,None,131.62668749992736,131.64276770001743,132.62720260000788,132.6435265999753,,,,,,,,,,,,,,,,,,,,,,,,,,,,,,,,,,,,,,,,,,,,,,,,,,,,,,,,,,,,,,,,,,,,,,,,,,,,,,,,,,,,,,,,,,,,,,,,,,,,,,,,,A_7,001,2024-11-28_13h32.31.371,untitled,2024.1.5,None,2024-11-28 13h32.45.696041 +0530,
square.png,stranger,1,M,,,,,2,1,9,0,,,,,,,,,,,,,132.6435265999753,,,,,,,,,,,,,,,,,,,,,,,,,,,,,,,,,,132.62743350001983,132.6435265999753,133.14391600003,133.14391600003,133.14391600003,133.14391600003,133.14391600003,133.44379990000743,133.44379990000743,133.44379990000743,,134.0613990999991,m,134.06164019997232,134.07753359992057,135.06176840001717,135.0779513999587,0.9059396999655291,None,,,,,,,,,,,,,,,,,,,,,,,,,,,,,,,,,,,,,,,,,,,,,,,,,,,,,,,,,,,,,,,,,,,,,,,,,,,,,,,,,,,,,,,,,,,,,,,,,,,,,,,A_7,001,2024-11-28_13h32.31.371,untitled,2024.1.5,None,2024-11-28 13h32.45.696041 +0530,
triangle.png,you,1,M,,,,,2,2,10,1,,,,,,,,,,,,,135.0779513999587,,,,,,,,,,,,,,,,,,,,,,,,,,,,,,,,,,135.06199810002,135.0779513999587,135.56171649997123,135.56171649997123,135.56171649997123,135.56171649997123,135.57806430000346,135.86157710000407,135.86157710000407,135.86157710000407,,136.22929029993247,m,136.22953409992624,136.24512320000213,137.22934319998603,137.24574969999958,0.6594838000601158,None,,,,,,,,,,,,,,,,,,,,,,,,,,,,,,,,,,,,,,,,,,,,,,,,,,,,,,,,,,,,,,,,,,,,,,,,,,,,,,,,,,,,,,,,,,,,,,,,,,,,,,,A_7,001,2024-11-28_13h32.31.371,untitled,2024.1.5,None,2024-11-28 13h32.45.696041 +0530,
square.png,you,0,Z,,,,,2,3,11,2,,,,,,,,,,,,,137.24574969999958,,,,,,,,,,,,,,,,,,,,,,,,,,,,,,,,,,137.22957159997895,137.24574969999958,137.72929679998197,137.72929679998197,137.72929679998197,137.72929679998197,137.74597980000544,138.02946909994353,138.02946909994353,138.02946909994353,,138.34711570001673,z,138.34743439999875,138.36297969997395,139.34728019998875,139.3633921999717,0.6158193000592291,None,,,,,,,,,,,,,,,,,,,,,,,,,,,,,,,,,,,,,,,,,,,,,,,,,,,,,,,,,,,,,,,,,,,,,,,,,,,,,,,,,,,,,,,,,,,,,,,,,,,,,,,A_7,001,2024-11-28_13h32.31.371,untitled,2024.1.5,None,2024-11-28 13h32.45.696041 +0530,
square.png,stranger,1,M,,,,,3,0,12,0,,,,,,,,,,,,,139.3633921999717,,,,,,,,,,,,,,,,,,,,,,,,,,,,,,,,,,139.34750829997938,139.3633921999717,139.84743289998733,139.84743289998733,139.84743289998733,139.84743289998733,139.8638088000007,140.14708179992158,140.14708179992158,140.14708179992158,,140.91485689999536,m,140.9151057000272,140.9307339999359,141.91515709995292,141.9314348999178,1.0513166999444366,None,,,,,,,,,,,,,,,,,,,,,,,,,,,,,,,,,,,,,,,,,,,,,,,,,,,,,,,,,,,,,,,,,,,,,,,,,,,,,,,,,,,,,,,,,,,,,,,,,,,,,,,A_7,001,2024-11-28_13h32.31.371,untitled,2024.1.5,None,2024-11-28 13h32.45.696041 +0530,
square.png,you,0,Z,,,,,3,1,13,2,,,,,,,,,,,,,141.9314348999178,,,,,,,,,,,,,,,,,,,,,,,,,,,,,,,,,,141.9153868999565,141.9314348999178,142.41519809991587,142.41519809991587,142.41519809991587,142.41519809991587,142.4316902999999,142.71517300000414,142.71517300000414,142.71517300000414,,143.28279530000873,z,143.2830377999926,143.29878089996055,144.2828597999178,144.2992717999732,0.8551682999823242,None,,,,,,,,,,,,,,,,,,,,,,,,,,,,,,,,,,,,,,,,,,,,,,,,,,,,,,,,,,,,,,,,,,,,,,,,,,,,,,,,,,,,,,,,,,,,,,,,,,,,,,,A_7,001,2024-11-28_13h32.31.371,untitled,2024.1.5,None,2024-11-28 13h32.45.696041 +0530,
triangle.png,stranger,0,Z,,,,,3,2,14,3,,,,,,,,,,,,,144.2992717999732,,,,,,,,,,,,,,,,,,,,,,,,,,,,,,,,,,144.28309229994193,144.2992717999732,144.78294850001112,144.78294850001112,144.78294850001112,144.78294850001112,144.79958350001834,145.08296399994288,145.08296399994288,145.08296399994288,,145.71750779997092,m,145.71774979995098,145.73330850002822,146.71759819996078,146.73400900000706,0.9229222999420017,None,,,,,,,,,,,,,,,,,,,,,,,,,,,,,,,,,,,,,,,,,,,,,,,,,,,,,,,,,,,,,,,,,,,,,,,,,,,,,,,,,,,,,,,,,,,,,,,,,,,,,,,A_7,001,2024-11-28_13h32.31.371,untitled,2024.1.5,None,2024-11-28 13h32.45.696041 +0530,
triangle.png,you,1,M,,,,,3,3,15,1,,,,,,,,,,,,,146.73400900000706,,,,,,,,,,,,,,,,,,,,,,,,,,,,,,,,,,146.71782819996588,146.73400900000706,147.21756080002524,147.21756080002524,147.21756080002524,147.21756080002524,147.2343723999802,147.51747399999294,147.51747399999294,147.51747399999294,,148.16862110001966,m,148.16886139998678,148.18470789992716,149.16879749996588,149.1852327999659,0.9372174999443814,None,,,,,,,,,,,,,,,,,,,,,,,,,,,,,,,,,,,,,,,,,,,,,,,,,,,,,,,,,,,,,,,,,,,,,,,,,,,,,,,,,,,,,,,,,,,,,,,,,,,,,,,A_7,001,2024-11-28_13h32.31.371,untitled,2024.1.5,None,2024-11-28 13h32.45.696041 +0530,
square.png,you,0,Z,,,,,4,0,16,2,,,,,,,,,,,,,149.1852327999659,,,,,,,,,,,,,,,,,,,,,,,,,,,,,,,,,,149.16902569995727,149.1852327999659,149.66889179998543,149.66889179998543,149.66889179998543,149.66889179998543,149.685406900011,149.96883569995407,149.96883569995407,149.96883569995407,,150.2699064000044,z,150.27014689997304,150.2856393000111,151.26984909991734,151.2862446999643,0.5856024000095204,None,,,,,,,,,,,,,,,,,,,,,,,,,,,,,,,,,,,,,,,,,,,,,,,,,,,,,,,,,,,,,,,,,,,,,,,,,,,,,,,,,,,,,,,,,,,,,,,,,,,,,,,A_7,001,2024-11-28_13h32.31.371,untitled,2024.1.5,None,2024-11-28 13h32.45.696041 +0530,
triangle.png,stranger,0,Z,,,,,4,1,17,3,,,,,,,,,,,,,151.2862446999643,,,,,,,,,,,,,,,,,,,,,,,,,,,,,,,,,,151.27007879992016,151.2862446999643,151.7702435000101,151.7702435000101,151.7702435000101,151.7702435000101,151.78678790002596,152.06991530000232,152.06991530000232,152.06991530000232,152.8704489999218,152.85410360002425,None,152.85423059994355,152.8704489999218,153.8548112999415,153.8709392999299,,,,,,,,,,,,,,,,,,,,,,,,,,,,,,,,,,,,,,,,,,,,,,,,,,,,,,,,,,,,,,,,,,,,,,,,,,,,,,,,,,,,,,,,,,,,,,,,,,,,,,,,,A_7,001,2024-11-28_13h32.31.371,untitled,2024.1.5,None,2024-11-28 13h32.45.696041 +0530,
triangle.png,you,1,M,,,,,4,2,18,1,,,,,,,,,,,,,153.8709392999299,,,,,,,,,,,,,,,,,,,,,,,,,,,,,,,,,,153.85504019993823,153.8709392999299,154.37154459999874,154.37154459999874,154.37154459999874,154.37154459999874,154.37154459999874,154.67121749999933,154.67121749999933,154.67121749999933,,155.2056502000196,z,155.20589009998366,155.22167210001498,156.20593359996565,156.22224609996192,0.8228907999582589,None,,,,,,,,,,,,,,,,,,,,,,,,,,,,,,,,,,,,,,,,,,,,,,,,,,,,,,,,,,,,,,,,,,,,,,,,,,,,,,,,,,,,,,,,,,,,,,,,,,,,,,,A_7,001,2024-11-28_13h32.31.371,untitled,2024.1.5,None,2024-11-28 13h32.45.696041 +0530,
square.png,stranger,1,M,,,,,4,3,19,0,,,,,,,,,,,,,156.22224609996192,,,,,,,,,,,,,,,,,,,,,,,,,,,,,,,,,,156.20616489998065,156.22224609996192,156.7057921999367,156.7057921999367,156.7057921999367,156.7057921999367,156.72241799999028,157.00569709995762,157.00569709995762,157.00569709995762,,157.62337539996952,m,157.62361999996938,157.6395240999991,158.62362009997014,158.64014859998133,0.9084027000935748,None,,,,,,,,,,,,,,,,,,,,,,,,,,,,,,,,,,,,,,,,,,,,,,,,,,,,,,,,,,,,,,,,,,,,,,,,,,,,,,,,,,,,,,,,,,,,,,,,,,,,,,,A_7,001,2024-11-28_13h32.31.371,untitled,2024.1.5,None,2024-11-28 13h32.45.696041 +0530,
,,,,,,,,,,,,,,,,,,,,,,,,,,,,,,,,,,,,,,,,,,,,,,,,,,,,,,,,,,,,,,,,,,,,,,,,,,,,,158.62366759998258,158.64014859998133,158.64014859998133,159.72454690001905,space,1.0823260999750346,None,,,,,,,,,,,,,,,,,,,,,,,,,,,,,,,,,,,,,,,,,,,,,,,,,,,,,,,,,,,,,,,,,,,,,,,,,,,,,,,,,,,,,,,,,,,,,,,,A_7,001,2024-11-28_13h32.31.371,untitled,2024.1.5,None,2024-11-28 13h32.45.696041 +0530,
square.png,stranger,1,M,,,,,,,,,0,0,0,0,,,,,,,,,159.74049140000716,,,,,,,,,,,,,,,,,,,,,,,,,,,,,,,,,,,,,,,,,,,,,,,,,,,,,,,,,,,,159.7295791999204,159.74049140000716,160.2242191999685,160.2242191999685,160.2242191999685,160.2242191999685,160.2411010999931,160.5242164999945,160.5242164999945,160.5242164999945,161.3244270000141,161.30800319998525,None,161.30832149996422,161.3244270000141,162.3252661000006,162.3089926999528,,,,,,,,,,,,,,,,,,,,,,,,,,,,,,,,,,,,,,,,,,,,,,,,,,,,,,,,,,,,,,,,,,,,,,,,,,,,,,,A_7,001,2024-11-28_13h32.31.371,untitled,2024.1.5,None,2024-11-28 13h32.45.696041 +0530,
triangle.png,stranger,0,Z,,,,,,,,,0,1,1,3,,,,,,,,,162.3252661000006,,,,,,,,,,,,,,,,,,,,,,,,,,,,,,,,,,,,,,,,,,,,,,,,,,,,,,,,,,,,162.30935649992898,162.3252661000006,162.8257790999487,162.8257790999487,162.8257790999487,162.8257790999487,162.8257790999487,163.1256727,163.1256727,163.1256727,,163.70989319996443,m,163.71046600001864,163.72585739998613,164.72655379993375,164.7101527999621,0.8689026000211015,None,,,,,,,,,,,,,,,,,,,,,,,,,,,,,,,,,,,,,,,,,,,,,,,,,,,,,,,,,,,,,,,,,,,,,,,,,,,,,A_7,001,2024-11-28_13h32.31.371,untitled,2024.1.5,None,2024-11-28 13h32.45.696041 +0530,
triangle.png,you,1,M,,,,,,,,,0,2,2,1,,,,,,,,,164.72655379993375,,,,,,,,,,,,,,,,,,,,,,,,,,,,,,,,,,,,,,,,,,,,,,,,,,,,,,,,,,,,164.71049780002795,164.72655379993375,165.21007349994034,165.21007349994034,165.21007349994034,165.21007349994034,165.22665979992598,165.5101845000172,165.5101845000172,165.5101845000172,,165.72780739993323,z,165.72823010000866,165.74381200002972,166.74402709992137,166.7278873999603,0.504382900078781,None,,,,,,,,,,,,,,,,,,,,,,,,,,,,,,,,,,,,,,,,,,,,,,,,,,,,,,,,,,,,,,,,,,,,,,,,,,,,,A_7,001,2024-11-28_13h32.31.371,untitled,2024.1.5,None,2024-11-28 13h32.45.696041 +0530,
square.png,you,0,Z,,,,,,,,,0,3,3,2,,,,,,,,,166.74402709992137,,,,,,,,,,,,,,,,,,,,,,,,,,,,,,,,,,,,,,,,,,,,,,,,,,,,,,,,,,,,166.72823639994022,166.74402709992137,167.2279634999577,167.2279634999577,167.2279634999577,167.2279634999577,167.2445990999695,167.52773859992158,167.52773859992158,167.52773859992158,,167.99558270000853,z,167.9960044999607,168.01152179995552,169.01188519992866,168.995756899938,0.7543170000426471,None,,,,,,,,,,,,,,,,,,,,,,,,,,,,,,,,,,,,,,,,,,,,,,,,,,,,,,,,,,,,,,,,,,,,,,,,,,,,,A_7,001,2024-11-28_13h32.31.371,untitled,2024.1.5,None,2024-11-28 13h32.45.696041 +0530,
triangle.png,you,1,M,,,,,,,,,1,0,4,1,,,,,,,,,169.01188519992866,,,,,,,,,,,,,,,,,,,,,,,,,,,,,,,,,,,,,,,,,,,,,,,,,,,,,,,,,,,,168.99610500002746,169.01188519992866,169.49561209999956,169.49561209999956,169.49561209999956,169.49561209999956,169.51225619995967,169.79590069991536,169.79590069991536,169.79590069991536,,169.94658280001022,m,169.94700889999513,169.96253419993445,170.96304960001726,170.9468624999281,0.4353893999941647,None,,,,,,,,,,,,,,,,,,,,,,,,,,,,,,,,,,,,,,,,,,,,,,,,,,,,,,,,,,,,,,,,,,,,,,,,,,,,,A_7,001,2024-11-28_13h32.31.371,untitled,2024.1.5,None,2024-11-28 13h32.45.696041 +0530,
square.png,you,0,Z,,,,,,,,,1,1,5,2,,,,,,,,,170.96304960001726,,,,,,,,,,,,,,,,,,,,,,,,,,,,,,,,,,,,,,,,,,,,,,,,,,,,,,,,,,,,170.94721160002518,170.96304960001726,171.44673740002327,171.44673740002327,171.44673740002327,171.44673740002327,171.46333309996407,171.7466315999627,171.7466315999627,171.7466315999627,,171.84747319994494,z,171.84789859992452,171.86360609997064,172.86402109998744,172.8475903000217,0.3959194999188185,None,,,,,,,,,,,,,,,,,,,,,,,,,,,,,,,,,,,,,,,,,,,,,,,,,,,,,,,,,,,,,,,,,,,,,,,,,,,,,A_7,001,2024-11-28_13h32.31.371,untitled,2024.1.5,None,2024-11-28 13h32.45.696041 +0530,
triangle.png,stranger,0,Z,,,,,,,,,1,2,6,3,,,,,,,,,172.86402109998744,,,,,,,,,,,,,,,,,,,,,,,,,,,,,,,,,,,,,,,,,,,,,,,,,,,,,,,,,,,,172.84793379995972,172.86402109998744,173.3477353999624,173.3477353999624,173.3477353999624,173.3477353999624,173.36431749991607,173.647762699984,173.647762699984,173.647762699984,,174.03187329997309,z,174.03229030000512,174.04794780001976,175.04868639993947,175.03222759999335,0.6740997000597417,None,,,,,,,,,,,,,,,,,,,,,,,,,,,,,,,,,,,,,,,,,,,,,,,,,,,,,,,,,,,,,,,,,,,,,,,,,,,,,A_7,001,2024-11-28_13h32.31.371,untitled,2024.1.5,None,2024-11-28 13h32.45.696041 +0530,
square.png,stranger,1,M,,,,,,,,,1,3,7,0,,,,,,,,,175.04868639993947,,,,,,,,,,,,,,,,,,,,,,,,,,,,,,,,,,,,,,,,,,,,,,,,,,,,,,,,,,,,175.03257549996488,175.04868639993947,175.5320240999572,175.5320240999572,175.5320240999572,175.5320240999572,175.54878860001918,175.8322368999943,175.8322368999943,175.8322368999943,,176.0497768999776,z,176.05019580002408,176.06566019996535,177.0661627999507,177.04992799996398,0.5131699000485241,None,,,,,,,,,,,,,,,,,,,,,,,,,,,,,,,,,,,,,,,,,,,,,,,,,,,,,,,,,,,,,,,,,,,,,,,,,,,,,A_7,001,2024-11-28_13h32.31.371,untitled,2024.1.5,None,2024-11-28 13h32.45.696041 +0530,
square.png,stranger,1,M,,,,,,,,,2,0,8,0,,,,,,,,,177.0661627999507,,,,,,,,,,,,,,,,,,,,,,,,,,,,,,,,,,,,,,,,,,,,,,,,,,,,,,,,,,,,177.05027759994846,177.0661627999507,177.55000099993777,177.55000099993777,177.55000099993777,177.55000099993777,177.56657279992942,177.8499384999741,177.8499384999741,177.8499384999741,,178.26758079999126,m,178.26799630001187,178.28314590000082,179.28384879999794,179.26764420000836,0.7070407000137493,None,,,,,,,,,,,,,,,,,,,,,,,,,,,,,,,,,,,,,,,,,,,,,,,,,,,,,,,,,,,,,,,,,,,,,,,,,,,,,A_7,001,2024-11-28_13h32.31.371,untitled,2024.1.5,None,2024-11-28 13h32.45.696041 +0530,
square.png,you,0,Z,,,,,,,,,2,1,9,2,,,,,,,,,179.28384879999794,,,,,,,,,,,,,,,,,,,,,,,,,,,,,,,,,,,,,,,,,,,,,,,,,,,,,,,,,,,,179.26799349999055,179.28384879999794,179.76754669996444,179.76754669996444,179.76754669996444,179.76754669996444,179.78413019992877,180.0675475000171,180.0675475000171,180.0675475000171,,180.35185159998946,z,180.35228679992724,180.3678130999906,181.36824029998388,181.35201409994625,0.5749860000796616,None,,,,,,,,,,,,,,,,,,,,,,,,,,,,,,,,,,,,,,,,,,,,,,,,,,,,,,,,,,,,,,,,,,,,,,,,,,,,,A_7,001,2024-11-28_13h32.31.371,untitled,2024.1.5,None,2024-11-28 13h32.45.696041 +0530,
triangle.png,stranger,0,Z,,,,,,,,,2,2,10,3,,,,,,,,,181.36824029998388,,,,,,,,,,,,,,,,,,,,,,,,,,,,,,,,,,,,,,,,,,,,,,,,,,,,,,,,,,,,181.35236359992996,181.36824029998388,181.85222619993147,181.85222619993147,181.85222619993147,181.85222619993147,181.8685537999263,182.1521091000177,182.1521091000177,182.1521091000177,,182.46948490000796,m,182.46990149992052,182.48570989992004,183.48616929992568,183.4700272999471,0.6095945000415668,None,,,,,,,,,,,,,,,,,,,,,,,,,,,,,,,,,,,,,,,,,,,,,,,,,,,,,,,,,,,,,,,,,,,,,,,,,,,,,A_7,001,2024-11-28_13h32.31.371,untitled,2024.1.5,None,2024-11-28 13h32.45.696041 +0530,
triangle.png,you,1,M,,,,,,,,,2,3,11,1,,,,,,,,,183.48616929992568,,,,,,,,,,,,,,,,,,,,,,,,,,,,,,,,,,,,,,,,,,,,,,,,,,,,,,,,,,,,183.47037639992777,183.48616929992568,183.96986740001012,183.96986740001012,183.96986740001012,183.96986740001012,183.9864473999478,184.26981470000464,184.26981470000464,184.26981470000464,,184.4539845000254,m,184.454403599957,184.46996869996656,185.4705399000086,185.45410339999944,0.47260039998218417,None,,,,,,,,,,,,,,,,,,,,,,,,,,,,,,,,,,,,,,,,,,,,,,,,,,,,,,,,,,,,,,,,,,,,,,,,,,,,,A_7,001,2024-11-28_13h32.31.371,untitled,2024.1.5,None,2024-11-28 13h32.45.696041 +0530,
triangle.png,you,1,M,,,,,,,,,3,0,12,1,,,,,,,,,185.4705399000086,,,,,,,,,,,,,,,,,,,,,,,,,,,,,,,,,,,,,,,,,,,,,,,,,,,,,,,,,,,,185.45444799994584,185.4705399000086,185.9542690999806,185.9542690999806,185.9542690999806,185.9542690999806,185.97081460000481,186.25425160001032,186.25425160001032,186.25425160001032,,186.5049294999335,m,186.50535190000664,186.52103229996283,187.52159759995993,187.50518699991517,0.5358480999711901,None,,,,,,,,,,,,,,,,,,,,,,,,,,,,,,,,,,,,,,,,,,,,,,,,,,,,,,,,,,,,,,,,,,,,,,,,,,,,,A_7,001,2024-11-28_13h32.31.371,untitled,2024.1.5,None,2024-11-28 13h32.45.696041 +0530,
triangle.png,stranger,0,Z,,,,,,,,,3,1,13,3,,,,,,,,,187.52159759995993,,,,,,,,,,,,,,,,,,,,,,,,,,,,,,,,,,,,,,,,,,,,,,,,,,,,,,,,,,,,187.50553159997799,187.52159759995993,188.00518889992964,188.00518889992964,188.00518889992964,188.00518889992964,188.02173809998203,188.30535749997944,188.30535749997944,188.30535749997944,,188.6394699999364,z,188.63989659992512,188.655231099925,189.65598949999548,189.63971060002223,0.6296177000040188,None,,,,,,,,,,,,,,,,,,,,,,,,,,,,,,,,,,,,,,,,,,,,,,,,,,,,,,,,,,,,,,,,,,,,,,,,,,,,,A_7,001,2024-11-28_13h32.31.371,untitled,2024.1.5,None,2024-11-28 13h32.45.696041 +0530,
square.png,stranger,1,M,,,,,,,,,3,2,14,0,,,,,,,,,189.65598949999548,,,,,,,,,,,,,,,,,,,,,,,,,,,,,,,,,,,,,,,,,,,,,,,,,,,,,,,,,,,,189.64005639997777,189.65598949999548,190.13952079997398,190.13952079997398,190.13952079997398,190.13952079997398,190.1563976999605,190.43954309995752,190.43954309995752,190.43954309995752,,190.7574199999217,z,190.757841499988,190.77305760001764,191.77366890001576,191.75739139993675,0.6135295999702066,None,,,,,,,,,,,,,,,,,,,,,,,,,,,,,,,,,,,,,,,,,,,,,,,,,,,,,,,,,,,,,,,,,,,,,,,,,,,,,A_7,001,2024-11-28_13h32.31.371,untitled,2024.1.5,None,2024-11-28 13h32.45.696041 +0530,
square.png,you,0,Z,,,,,,,,,3,3,15,2,,,,,,,,,191.77366890001576,,,,,,,,,,,,,,,,,,,,,,,,,,,,,,,,,,,,,,,,,,,,,,,,,,,,,,,,,,,,191.75773860001937,191.77366890001576,192.25741029996425,192.25741029996425,192.25741029996425,192.25741029996425,192.27413489995524,192.557440900011,192.557440900011,192.557440900011,,193.1251950999722,z,193.12561390001792,193.1411606000038,194.14169860002585,194.1255639999872,0.8611696000443771,None,,,,,,,,,,,,,,,,,,,,,,,,,,,,,,,,,,,,,,,,,,,,,,,,,,,,,,,,,,,,,,,,,,,,,,,,,,,,,A_7,001,2024-11-28_13h32.31.371,untitled,2024.1.5,None,2024-11-28 13h32.45.696041 +0530,
triangle.png,you,1,M,,,,,,,,,4,0,16,1,,,,,,,,,194.14169860002585,,,,,,,,,,,,,,,,,,,,,,,,,,,,,,,,,,,,,,,,,,,,,,,,,,,,,,,,,,,,194.1259129999671,194.14169860002585,194.6254327999195,194.6254327999195,194.6254327999195,194.6254327999195,194.64228619995993,194.9251431999728,194.9251431999728,194.9251431999728,,195.45945149997715,m,195.4598906999454,195.47557050001342,196.47615379991475,196.4597801999189,0.8318428999045864,None,,,,,,,,,,,,,,,,,,,,,,,,,,,,,,,,,,,,,,,,,,,,,,,,,,,,,,,,,,,,,,,,,,,,,,,,,,,,,A_7,001,2024-11-28_13h32.31.371,untitled,2024.1.5,None,2024-11-28 13h32.45.696041 +0530,
square.png,you,0,Z,,,,,,,,,4,1,17,2,,,,,,,,,196.47615379991475,,,,,,,,,,,,,,,,,,,,,,,,,,,,,,,,,,,,,,,,,,,,,,,,,,,,,,,,,,,,196.46013119991403,196.47615379991475,196.9596743999282,196.9596743999282,196.9596743999282,196.9596743999282,196.97636550001334,197.2599363999907,197.2599363999907,197.2599363999907,,197.79422339994926,z,197.79464520001784,197.81018949998543,198.8105614000233,198.7946092999773,0.8189312000758946,None,,,,,,,,,,,,,,,,,,,,,,,,,,,,,,,,,,,,,,,,,,,,,,,,,,,,,,,,,,,,,,,,,,,,,,,,,,,,,A_7,001,2024-11-28_13h32.31.371,untitled,2024.1.5,None,2024-11-28 13h32.45.696041 +0530,
triangle.png,stranger,0,Z,,,,,,,,,4,2,18,3,,,,,,,,,198.8105614000233,,,,,,,,,,,,,,,,,,,,,,,,,,,,,,,,,,,,,,,,,,,,,,,,,,,,,,,,,,,,198.79495699994732,198.8105614000233,199.29417899996042,199.29417899996042,199.29417899996042,199.29417899996042,199.3110493000131,199.59423209994566,199.59423209994566,199.59423209994566,,199.97865669999737,m,199.97908079996705,199.99464990000706,200.9950493000215,200.9789645000128,0.676169199985452,None,,,,,,,,,,,,,,,,,,,,,,,,,,,,,,,,,,,,,,,,,,,,,,,,,,,,,,,,,,,,,,,,,,,,,,,,,,,,,A_7,001,2024-11-28_13h32.31.371,untitled,2024.1.5,None,2024-11-28 13h32.45.696041 +0530,
square.png,stranger,1,M,,,,,,,,,4,3,19,0,,,,,,,,,200.9950493000215,,,,,,,,,,,,,,,,,,,,,,,,,,,,,,,,,,,,,,,,,,,,,,,,,,,,,,,,,,,,200.9793627000181,200.9950493000215,201.4788164999336,201.4788164999336,201.4788164999336,201.4788164999336,201.49547009996604,201.7787132000085,201.7787132000085,201.7787132000085,,202.49652369995601,m,202.49695749999955,202.51263679994736,203.5130997999804,203.49686740001198,1.0071976000908762,None,,,,,,,,,,,,,,,,,,,,,,,,,,,,,,,,,,,,,,,,,,,,,,,,,,,,,,,,,,,,,,,,,,,,,,,,,,,,,A_7,001,2024-11-28_13h32.31.371,untitled,2024.1.5,None,2024-11-28 13h32.45.696041 +0530,
triangle.png,you,1,M,,,,,,,,,5,0,20,1,,,,,,,,,203.5130997999804,,,,,,,,,,,,,,,,,,,,,,,,,,,,,,,,,,,,,,,,,,,,,,,,,,,,,,,,,,,,203.49721289996523,203.5130997999804,203.99710339994635,203.99710339994635,203.99710339994635,203.99710339994635,204.01330969994888,204.296680899919,204.296680899919,204.296680899919,,204.59749339998234,m,204.5979180999566,204.61364029999822,205.6138542999979,205.59778439998627,0.5850468000862747,None,,,,,,,,,,,,,,,,,,,,,,,,,,,,,,,,,,,,,,,,,,,,,,,,,,,,,,,,,,,,,,,,,,,,,,,,,,,,,A_7,001,2024-11-28_13h32.31.371,untitled,2024.1.5,None,2024-11-28 13h32.45.696041 +0530,
triangle.png,stranger,0,Z,,,,,,,,,5,1,21,3,,,,,,,,,205.6138542999979,,,,,,,,,,,,,,,,,,,,,,,,,,,,,,,,,,,,,,,,,,,,,,,,,,,,,,,,,,,,205.5981304999441,205.6138542999979,206.097700699931,206.097700699931,206.097700699931,206.097700699931,206.11455970001407,206.39773680001963,206.39773680001963,206.39773680001963,,206.66527519992087,z,206.6656926999567,206.6814029000234,207.68186469993088,207.66541289992165,0.560982400085777,None,,,,,,,,,,,,,,,,,,,,,,,,,,,,,,,,,,,,,,,,,,,,,,,,,,,,,,,,,,,,,,,,,,,,,,,,,,,,,A_7,001,2024-11-28_13h32.31.371,untitled,2024.1.5,None,2024-11-28 13h32.45.696041 +0530,
square.png,stranger,1,M,,,,,,,,,5,2,22,0,,,,,,,,,207.68186469993088,,,,,,,,,,,,,,,,,,,,,,,,,,,,,,,,,,,,,,,,,,,,,,,,,,,,,,,,,,,,207.6657618000172,207.68186469993088,208.1657089999644,208.1657089999644,208.1657089999644,208.1657089999644,208.18202790000942,208.46571629995015,208.46571629995015,208.46571629995015,,209.00011339993216,m,209.00053439999465,209.01588520000223,210.01631520001683,210.00011729996186,0.8282191000180319,None,,,,,,,,,,,,,,,,,,,,,,,,,,,,,,,,,,,,,,,,,,,,,,,,,,,,,,,,,,,,,,,,,,,,,,,,,,,,,A_7,001,2024-11-28_13h32.31.371,untitled,2024.1.5,None,2024-11-28 13h32.45.696041 +0530,
square.png,you,0,Z,,,,,,,,,5,3,23,2,,,,,,,,,210.01631520001683,,,,,,,,,,,,,,,,,,,,,,,,,,,,,,,,,,,,,,,,,,,,,,,,,,,,,,,,,,,,210.0004643999273,210.01631520001683,210.50018590001855,210.50018590001855,210.50018590001855,210.50018590001855,210.51657640002668,210.80014369997662,210.80014369997662,210.80014369997662,,211.13445939996745,z,211.1348782000132,211.150430199923,212.15077860001475,212.13450939999893,0.6178082999540493,None,,,,,,,,,,,,,,,,,,,,,,,,,,,,,,,,,,,,,,,,,,,,,,,,,,,,,,,,,,,,,,,,,,,,,,,,,,,,,A_7,001,2024-11-28_13h32.31.371,untitled,2024.1.5,None,2024-11-28 13h32.45.696041 +0530,
triangle.png,you,1,M,,,,,,,,,6,0,24,1,,,,,,,,,212.15077860001475,,,,,,,,,,,,,,,,,,,,,,,,,,,,,,,,,,,,,,,,,,,,,,,,,,,,,,,,,,,,212.13484890002292,212.15077860001475,212.63444059994072,212.63444059994072,212.63444059994072,212.63444059994072,212.65102410002146,212.93441400001757,212.93441400001757,212.93441400001757,,213.20198299991898,m,213.20240349997766,213.21813489997294,214.2187452999642,214.20243439998012,0.5604070000117645,None,,,,,,,,,,,,,,,,,,,,,,,,,,,,,,,,,,,,,,,,,,,,,,,,,,,,,,,,,,,,,,,,,,,,,,,,,,,,,A_7,001,2024-11-28_13h32.31.371,untitled,2024.1.5,None,2024-11-28 13h32.45.696041 +0530,
triangle.png,stranger,0,Z,,,,,,,,,6,1,25,3,,,,,,,,,214.2187452999642,,,,,,,,,,,,,,,,,,,,,,,,,,,,,,,,,,,,,,,,,,,,,,,,,,,,,,,,,,,,214.202778799925,214.2187452999642,214.7021513999207,214.7021513999207,214.7021513999207,214.7021513999207,214.71902979991864,215.00225929997396,215.00225929997396,215.00225929997396,,215.21999449993018,z,215.2204125999706,215.2357249999186,216.23640059994068,216.22006570000667,0.5154955999460071,None,,,,,,,,,,,,,,,,,,,,,,,,,,,,,,,,,,,,,,,,,,,,,,,,,,,,,,,,,,,,,,,,,,,,,,,,,,,,,A_7,001,2024-11-28_13h32.31.371,untitled,2024.1.5,None,2024-11-28 13h32.45.696041 +0530,
square.png,you,0,Z,,,,,,,,,6,2,26,2,,,,,,,,,216.23640059994068,,,,,,,,,,,,,,,,,,,,,,,,,,,,,,,,,,,,,,,,,,,,,,,,,,,,,,,,,,,,216.22040799993556,216.23640059994068,216.720161599922,216.720161599922,216.720161599922,216.720161599922,216.73680590000004,217.02003799995873,217.02003799995873,217.02003799995873,,217.5878540999256,m,217.58827990002465,217.60364969994407,218.6039913999848,218.58791330002714,0.8623484999407083,None,,,,,,,,,,,,,,,,,,,,,,,,,,,,,,,,,,,,,,,,,,,,,,,,,,,,,,,,,,,,,,,,,,,,,,,,,,,,,A_7,001,2024-11-28_13h32.31.371,untitled,2024.1.5,None,2024-11-28 13h32.45.696041 +0530,
square.png,stranger,1,M,,,,,,,,,6,3,27,0,,,,,,,,,218.6039913999848,,,,,,,,,,,,,,,,,,,,,,,,,,,,,,,,,,,,,,,,,,,,,,,,,,,,,,,,,,,,218.58826699992642,218.6039913999848,219.08773789997213,219.08773789997213,219.08773789997213,219.08773789997213,219.10448420001194,219.3878174999263,219.3878174999263,219.3878174999263,,219.70538429997396,m,219.70581379998475,219.72119690000545,220.72190529992804,220.7058949000202,0.614629999967292,None,,,,,,,,,,,,,,,,,,,,,,,,,,,,,,,,,,,,,,,,,,,,,,,,,,,,,,,,,,,,,,,,,,,,,,,,,,,,,A_7,001,2024-11-28_13h32.31.371,untitled,2024.1.5,None,2024-11-28 13h32.45.696041 +0530,
square.png,you,0,Z,,,,,,,,,7,0,28,2,,,,,,,,,220.72190529992804,,,,,,,,,,,,,,,,,,,,,,,,,,,,,,,,,,,,,,,,,,,,,,,,,,,,,,,,,,,,220.7062428999925,220.72190529992804,221.20566610002425,221.20566610002425,221.20566610002425,221.20566610002425,221.22207819996402,221.50563369994052,221.50563369994052,221.50563369994052,,221.87307819991838,z,221.87351079995278,221.88930659997277,222.88977160002105,222.8735501000192,0.6607337999157608,None,,,,,,,,,,,,,,,,,,,,,,,,,,,,,,,,,,,,,,,,,,,,,,,,,,,,,,,,,,,,,,,,,,,,,,,,,,,,,A_7,001,2024-11-28_13h32.31.371,untitled,2024.1.5,None,2024-11-28 13h32.45.696041 +0530,
triangle.png,you,1,M,,,,,,,,,7,1,29,1,,,,,,,,,222.88977160002105,,,,,,,,,,,,,,,,,,,,,,,,,,,,,,,,,,,,,,,,,,,,,,,,,,,,,,,,,,,,222.87389709998388,222.88977160002105,223.37338899995666,223.37338899995666,223.37338899995666,223.37338899995666,223.390054199961,223.67318199994043,223.67318199994043,223.67318199994043,,224.32412719994318,m,224.32455629995093,224.34034469991457,225.34102829999756,225.3249723999761,0.9371760999783874,None,,,,,,,,,,,,,,,,,,,,,,,,,,,,,,,,,,,,,,,,,,,,,,,,,,,,,,,,,,,,,,,,,,,,,,,,,,,,,A_7,001,2024-11-28_13h32.31.371,untitled,2024.1.5,None,2024-11-28 13h32.45.696041 +0530,
square.png,stranger,1,M,,,,,,,,,7,2,30,0,,,,,,,,,225.34102829999756,,,,,,,,,,,,,,,,,,,,,,,,,,,,,,,,,,,,,,,,,,,,,,,,,,,,,,,,,,,,225.32535209995694,225.34102829999756,225.82472779997624,225.82472779997624,225.82472779997624,225.82472779997624,225.84135869995225,226.12456439994276,226.12456439994276,226.12456439994276,,226.3756613000296,m,226.37608159997035,226.3914461999666,227.39198830001988,227.37594890000764,0.5455379000632092,None,,,,,,,,,,,,,,,,,,,,,,,,,,,,,,,,,,,,,,,,,,,,,,,,,,,,,,,,,,,,,,,,,,,,,,,,,,,,,A_7,001,2024-11-28_13h32.31.371,untitled,2024.1.5,None,2024-11-28 13h32.45.696041 +0530,
triangle.png,stranger,0,Z,,,,,,,,,7,3,31,3,,,,,,,,,227.39198830001988,,,,,,,,,,,,,,,,,,,,,,,,,,,,,,,,,,,,,,,,,,,,,,,,,,,,,,,,,,,,227.3762899999274,227.39198830001988,227.87579029996414,227.87579029996414,227.87579029996414,227.87579029996414,227.89241799991578,228.1757811999414,228.1757811999414,228.1757811999414,,228.44315960002132,z,228.44359239994083,228.45930579991546,229.45973250002135,229.4436053999234,0.5621564000612125,None,,,,,,,,,,,,,,,,,,,,,,,,,,,,,,,,,,,,,,,,,,,,,,,,,,,,,,,,,,,,,,,,,,,,,,,,,,,,,A_7,001,2024-11-28_13h32.31.371,untitled,2024.1.5,None,2024-11-28 13h32.45.696041 +0530,
triangle.png,you,1,M,,,,,,,,,8,0,32,1,,,,,,,,,229.45973250002135,,,,,,,,,,,,,,,,,,,,,,,,,,,,,,,,,,,,,,,,,,,,,,,,,,,,,,,,,,,,229.44395979994442,229.45973250002135,229.9435062999837,229.9435062999837,229.9435062999837,229.9435062999837,229.9598542000167,230.24350270000286,230.24350270000286,230.24350270000286,,230.64425509993453,m,230.6446729999734,230.6604278999148,231.66100560000632,231.64459529996384,0.6992546999827027,None,,,,,,,,,,,,,,,,,,,,,,,,,,,,,,,,,,,,,,,,,,,,,,,,,,,,,,,,,,,,,,,,,,,,,,,,,,,,,A_7,001,2024-11-28_13h32.31.371,untitled,2024.1.5,None,2024-11-28 13h32.45.696041 +0530,
square.png,stranger,1,M,,,,,,,,,8,1,33,0,,,,,,,,,231.66100560000632,,,,,,,,,,,,,,,,,,,,,,,,,,,,,,,,,,,,,,,,,,,,,,,,,,,,,,,,,,,,231.64494269993156,231.66100560000632,232.14448659995105,232.14448659995105,232.14448659995105,232.14448659995105,232.16121809999458,232.44454709999263,232.44454709999263,232.44454709999263,,232.92895919992588,m,232.92938200000208,232.94494549999945,233.94521189993247,233.92919239995535,0.7780613000504673,None,,,,,,,,,,,,,,,,,,,,,,,,,,,,,,,,,,,,,,,,,,,,,,,,,,,,,,,,,,,,,,,,,,,,,,,,,,,,,A_7,001,2024-11-28_13h32.31.371,untitled,2024.1.5,None,2024-11-28 13h32.45.696041 +0530,
triangle.png,stranger,0,Z,,,,,,,,,8,2,34,3,,,,,,,,,233.94521189993247,,,,,,,,,,,,,,,,,,,,,,,,,,,,,,,,,,,,,,,,,,,,,,,,,,,,,,,,,,,,233.9295443999581,233.94521189993247,234.42916419997346,234.42916419997346,234.42916419997346,234.42916419997346,234.44561139994767,234.72907569992822,234.72907569992822,234.72907569992822,,235.09655110002495,z,235.09696919994894,235.11264649999794,236.11323809996247,236.09690819995012,0.6639157000463456,None,,,,,,,,,,,,,,,,,,,,,,,,,,,,,,,,,,,,,,,,,,,,,,,,,,,,,,,,,,,,,,,,,,,,,,,,,,,,,A_7,001,2024-11-28_13h32.31.371,untitled,2024.1.5,None,2024-11-28 13h32.45.696041 +0530,
square.png,you,0,Z,,,,,,,,,8,3,35,2,,,,,,,,,236.11323809996247,,,,,,,,,,,,,,,,,,,,,,,,,,,,,,,,,,,,,,,,,,,,,,,,,,,,,,,,,,,,236.09725669992622,236.11323809996247,236.59670290001668,236.59670290001668,236.59670290001668,236.59670290001668,236.61367779993452,236.89685859996825,236.89685859996825,236.89685859996825,,237.28112469997723,m,237.28154579992406,237.29697229992598,238.29756650002673,238.2813534999732,0.6764793000184,None,,,,,,,,,,,,,,,,,,,,,,,,,,,,,,,,,,,,,,,,,,,,,,,,,,,,,,,,,,,,,,,,,,,,,,,,,,,,,A_7,001,2024-11-28_13h32.31.371,untitled,2024.1.5,None,2024-11-28 13h32.45.696041 +0530,
square.png,you,0,Z,,,,,,,,,9,0,36,2,,,,,,,,,238.29756650002673,,,,,,,,,,,,,,,,,,,,,,,,,,,,,,,,,,,,,,,,,,,,,,,,,,,,,,,,,,,,238.28169849992264,238.29756650002673,238.78154060000088,238.78154060000088,238.78154060000088,238.78154060000088,238.79778639995493,239.08121049997862,239.08121049997862,239.08121049997862,,239.48239769996144,m,239.4828162000049,239.4981880999403,240.49868469999637,240.48234899993986,0.689263500040397,None,,,,,,,,,,,,,,,,,,,,,,,,,,,,,,,,,,,,,,,,,,,,,,,,,,,,,,,,,,,,,,,,,,,,,,,,,,,,,A_7,001,2024-11-28_13h32.31.371,untitled,2024.1.5,None,2024-11-28 13h32.45.696041 +0530,
triangle.png,stranger,0,Z,,,,,,,,,9,1,37,3,,,,,,,,,240.49868469999637,,,,,,,,,,,,,,,,,,,,,,,,,,,,,,,,,,,,,,,,,,,,,,,,,,,,,,,,,,,,240.48270579997916,240.49868469999637,240.98239979997743,240.98239979997743,240.98239979997743,240.98239979997743,240.9992518000072,241.28241989994422,241.28241989994422,241.28241989994422,242.08296659996267,242.06649889994878,None,242.0666884999955,242.08296659996267,243.083392099943,243.0672912999289,,,,,,,,,,,,,,,,,,,,,,,,,,,,,,,,,,,,,,,,,,,,,,,,,,,,,,,,,,,,,,,,,,,,,,,,,,,,,,,A_7,001,2024-11-28_13h32.31.371,untitled,2024.1.5,None,2024-11-28 13h32.45.696041 +0530,
square.png,stranger,1,M,,,,,,,,,9,2,38,0,,,,,,,,,243.083392099943,,,,,,,,,,,,,,,,,,,,,,,,,,,,,,,,,,,,,,,,,,,,,,,,,,,,,,,,,,,,243.06764879997354,243.083392099943,243.58385149994865,243.58385149994865,243.58385149994865,243.58385149994865,243.58385149994865,243.88363980001304,243.88363980001304,243.88363980001304,,244.418017399963,m,244.41844289994333,244.43397289991844,245.43454629997723,245.41826830001082,0.8186636000173166,None,,,,,,,,,,,,,,,,,,,,,,,,,,,,,,,,,,,,,,,,,,,,,,,,,,,,,,,,,,,,,,,,,,,,,,,,,,,,,A_7,001,2024-11-28_13h32.31.371,untitled,2024.1.5,None,2024-11-28 13h32.45.696041 +0530,
triangle.png,you,1,M,,,,,,,,,9,3,39,1,,,,,,,,,245.43454629997723,,,,,,,,,,,,,,,,,,,,,,,,,,,,,,,,,,,,,,,,,,,,,,,,,,,,,,,,,,,,245.41862599994056,245.43454629997723,245.91853040002752,245.91853040002752,245.91853040002752,245.91853040002752,245.93493380001746,246.21836619998794,246.21836619998794,246.21836619998794,,246.73610859992914,m,246.73653499991633,246.75200139998924,247.752230699989,247.73601330001839,0.8026861000107601,None,,,,,,,,,,,,,,,,,,,,,,,,,,,,,,,,,,,,,,,,,,,,,,,,,,,,,,,,,,,,,,,,,,,,,,,,,,,,,A_7,001,2024-11-28_13h32.31.371,untitled,2024.1.5,None,2024-11-28 13h32.45.696041 +0530,
square.png,stranger,1,M,,,,,,,,,10,0,40,0,,,,,,,,,247.752230699989,,,,,,,,,,,,,,,,,,,,,,,,,,,,,,,,,,,,,,,,,,,,,,,,,,,,,,,,,,,,247.73636799992528,247.752230699989,248.23598639992997,248.23598639992997,248.23598639992997,248.23598639992997,248.25284660002217,248.53602260001935,248.53602260001935,248.53602260001935,,248.8869349999586,m,248.88735700002871,248.90306859998964,249.90359729994088,249.88726949994452,0.6412960999878123,None,,,,,,,,,,,,,,,,,,,,,,,,,,,,,,,,,,,,,,,,,,,,,,,,,,,,,,,,,,,,,,,,,,,,,,,,,,,,,A_7,001,2024-11-28_13h32.31.371,untitled,2024.1.5,None,2024-11-28 13h32.45.696041 +0530,
triangle.png,stranger,0,Z,,,,,,,,,10,1,41,3,,,,,,,,,249.90359729994088,,,,,,,,,,,,,,,,,,,,,,,,,,,,,,,,,,,,,,,,,,,,,,,,,,,,,,,,,,,,249.88761660002638,249.90359729994088,250.38717220001854,250.38717220001854,250.38717220001854,250.38717220001854,250.40373869996984,250.68741220002994,250.68741220002994,250.68741220002994,,251.02155179996043,z,251.02197020000312,251.03753650002182,252.0379672999261,252.02184159995522,0.6313839999493212,None,,,,,,,,,,,,,,,,,,,,,,,,,,,,,,,,,,,,,,,,,,,,,,,,,,,,,,,,,,,,,,,,,,,,,,,,,,,,,A_7,001,2024-11-28_13h32.31.371,untitled,2024.1.5,None,2024-11-28 13h32.45.696041 +0530,
triangle.png,you,1,M,,,,,,,,,10,2,42,1,,,,,,,,,252.0379672999261,,,,,,,,,,,,,,,,,,,,,,,,,,,,,,,,,,,,,,,,,,,,,,,,,,,,,,,,,,,,252.02218959992751,252.0379672999261,252.52185309992637,252.52185309992637,252.52185309992637,252.52185309992637,252.53818369994406,252.82158839993645,252.82158839993645,252.82158839993645,,253.08933989994694,z,253.08976190001704,253.10508989996742,254.10560040001292,254.0895593999885,0.5591924999607727,None,,,,,,,,,,,,,,,,,,,,,,,,,,,,,,,,,,,,,,,,,,,,,,,,,,,,,,,,,,,,,,,,,,,,,,,,,,,,,A_7,001,2024-11-28_13h32.31.371,untitled,2024.1.5,None,2024-11-28 13h32.45.696041 +0530,
square.png,you,0,Z,,,,,,,,,10,3,43,2,,,,,,,,,254.10560040001292,,,,,,,,,,,,,,,,,,,,,,,,,,,,,,,,,,,,,,,,,,,,,,,,,,,,,,,,,,,,254.08990549994633,254.10560040001292,254.58950220001861,254.58950220001861,254.58950220001861,254.58950220001861,254.60612879996188,254.8894681999227,254.8894681999227,254.8894681999227,,255.3736082999967,z,255.37402729992755,255.3899105999153,256.39011079992633,256.37412870000117,0.7808515999931842,None,,,,,,,,,,,,,,,,,,,,,,,,,,,,,,,,,,,,,,,,,,,,,,,,,,,,,,,,,,,,,,,,,,,,,,,,,,,,,A_7,001,2024-11-28_13h32.31.371,untitled,2024.1.5,None,2024-11-28 13h32.45.696041 +0530,
square.png,you,0,Z,,,,,,,,,11,0,44,2,,,,,,,,,256.39011079992633,,,,,,,,,,,,,,,,,,,,,,,,,,,,,,,,,,,,,,,,,,,,,,,,,,,,,,,,,,,,256.3745002999203,256.39011079992633,256.87385889992584,256.87385889992584,256.87385889992584,256.87385889992584,256.89038859994616,257.17382749996614,257.17382749996614,257.17382749996614,257.97444549994543,257.95794260001276,None,257.95812839991413,257.97444549994543,258.97502709995024,258.95871019992046,,,,,,,,,,,,,,,,,,,,,,,,,,,,,,,,,,,,,,,,,,,,,,,,,,,,,,,,,,,,,,,,,,,,,,,,,,,,,,,A_7,001,2024-11-28_13h32.31.371,untitled,2024.1.5,None,2024-11-28 13h32.45.696041 +0530,
square.png,stranger,1,M,,,,,,,,,11,1,45,0,,,,,,,,,258.97502709995024,,,,,,,,,,,,,,,,,,,,,,,,,,,,,,,,,,,,,,,,,,,,,,,,,,,,,,,,,,,,258.95905569999013,258.97502709995024,259.47502779995557,259.47502779995557,259.47502779995557,259.47502779995557,259.47502779995557,259.7752442000201,259.7752442000201,259.7752442000201,,260.15963859995827,z,260.16005960002076,260.1758253999287,261.1759672999615,261.1598356999457,0.6781891999999061,None,,,,,,,,,,,,,,,,,,,,,,,,,,,,,,,,,,,,,,,,,,,,,,,,,,,,,,,,,,,,,,,,,,,,,,,,,,,,,A_7,001,2024-11-28_13h32.31.371,untitled,2024.1.5,None,2024-11-28 13h32.45.696041 +0530,
triangle.png,you,1,M,,,,,,,,,11,2,46,1,,,,,,,,,261.1759672999615,,,,,,,,,,,,,,,,,,,,,,,,,,,,,,,,,,,,,,,,,,,,,,,,,,,,,,,,,,,,261.16018329991493,261.1759672999615,261.659474199987,261.659474199987,261.659474199987,261.659474199987,261.67610559996683,261.95980599999893,261.95980599999893,261.95980599999893,,262.26069789996836,z,262.26111610000953,262.2765130000189,263.2769478999544,263.26080379995983,0.5896431000437587,None,,,,,,,,,,,,,,,,,,,,,,,,,,,,,,,,,,,,,,,,,,,,,,,,,,,,,,,,,,,,,,,,,,,,,,,,,,,,,A_7,001,2024-11-28_13h32.31.371,untitled,2024.1.5,None,2024-11-28 13h32.45.696041 +0530,
triangle.png,stranger,0,Z,,,,,,,,,11,3,47,3,,,,,,,,,263.2769478999544,,,,,,,,,,,,,,,,,,,,,,,,,,,,,,,,,,,,,,,,,,,,,,,,,,,,,,,,,,,,263.2611451999983,263.2769478999544,263.7607327000005,263.7607327000005,263.7607327000005,263.7607327000005,263.77730560000055,264.060914499918,264.060914499918,264.060914499918,,264.4615772999823,z,264.46200689999387,264.4776721999515,265.47831189993303,265.46206489996985,0.6933540999889374,None,,,,,,,,,,,,,,,,,,,,,,,,,,,,,,,,,,,,,,,,,,,,,,,,,,,,,,,,,,,,,,,,,,,,,,,,,,,,,A_7,001,2024-11-28_13h32.31.371,untitled,2024.1.5,None,2024-11-28 13h32.45.696041 +0530,
square.png,stranger,1,M,,,,,,,,,12,0,48,0,,,,,,,,,265.47831189993303,,,,,,,,,,,,,,,,,,,,,,,,,,,,,,,,,,,,,,,,,,,,,,,,,,,,,,,,,,,,265.46241159993224,265.47831189993303,265.96207939996384,265.96207939996384,265.96207939996384,265.96207939996384,265.9786234999774,266.2620399999432,266.2620399999432,266.2620399999432,,266.61290960002225,m,266.6133326999843,266.6287139999913,267.6294054000173,267.6130761000095,0.6402208000654355,None,,,,,,,,,,,,,,,,,,,,,,,,,,,,,,,,,,,,,,,,,,,,,,,,,,,,,,,,,,,,,,,,,,,,,,,,,,,,,A_7,001,2024-11-28_13h32.31.371,untitled,2024.1.5,None,2024-11-28 13h32.45.696041 +0530,
square.png,you,0,Z,,,,,,,,,12,1,49,2,,,,,,,,,267.6294054000173,,,,,,,,,,,,,,,,,,,,,,,,,,,,,,,,,,,,,,,,,,,,,,,,,,,,,,,,,,,,267.61342860001605,267.6294054000173,268.1131376000121,268.1131376000121,268.1131376000121,268.1131376000121,268.129557200009,268.4129054999212,268.4129054999212,268.4129054999212,,269.0806800000137,z,269.0810969999293,269.0967876999639,270.0971811999334,270.0812482999172,0.9521599999861792,None,,,,,,,,,,,,,,,,,,,,,,,,,,,,,,,,,,,,,,,,,,,,,,,,,,,,,,,,,,,,,,,,,,,,,,,,,,,,,A_7,001,2024-11-28_13h32.31.371,untitled,2024.1.5,None,2024-11-28 13h32.45.696041 +0530,
triangle.png,you,1,M,,,,,,,,,12,2,50,1,,,,,,,,,270.0971811999334,,,,,,,,,,,,,,,,,,,,,,,,,,,,,,,,,,,,,,,,,,,,,,,,,,,,,,,,,,,,270.0815961000044,270.0971811999334,270.58085010002833,270.58085010002833,270.58085010002833,270.58085010002833,270.59748019999824,270.88105919992086,270.88105919992086,270.88105919992086,,270.99831759999506,m,270.9987409999594,271.0144624999957,272.01483080000617,271.9988630999578,0.40169819991569966,None,,,,,,,,,,,,,,,,,,,,,,,,,,,,,,,,,,,,,,,,,,,,,,,,,,,,,,,,,,,,,,,,,,,,,,,,,,,,,A_7,001,2024-11-28_13h32.31.371,untitled,2024.1.5,None,2024-11-28 13h32.45.696041 +0530,
triangle.png,stranger,0,Z,,,,,,,,,12,3,51,3,,,,,,,,,272.01483080000617,,,,,,,,,,,,,,,,,,,,,,,,,,,,,,,,,,,,,,,,,,,,,,,,,,,,,,,,,,,,271.9992152999621,272.01483080000617,272.49875000002794,272.49875000002794,272.49875000002794,272.49875000002794,272.51515009999275,272.79872680001426,272.79872680001426,272.79872680001426,,273.1494425999699,z,273.1498651999282,273.16551949991845,274.1659390999703,274.1498730999883,0.6439805999398232,None,,,,,,,,,,,,,,,,,,,,,,,,,,,,,,,,,,,,,,,,,,,,,,,,,,,,,,,,,,,,,,,,,,,,,,,,,,,,,A_7,001,2024-11-28_13h32.31.371,untitled,2024.1.5,None,2024-11-28 13h32.45.696041 +0530,
square.png,stranger,1,M,,,,,,,,,13,0,52,0,,,,,,,,,274.1659390999703,,,,,,,,,,,,,,,,,,,,,,,,,,,,,,,,,,,,,,,,,,,,,,,,,,,,,,,,,,,,274.1502218999667,274.1659390999703,274.6496939000208,274.6496939000208,274.6496939000208,274.6496939000208,274.66623869992327,274.9499532999471,274.9499532999471,274.9499532999471,,275.2007174999453,m,275.201133799972,275.2165761999786,276.2172082000179,276.200885899947,0.5354137999238446,None,,,,,,,,,,,,,,,,,,,,,,,,,,,,,,,,,,,,,,,,,,,,,,,,,,,,,,,,,,,,,,,,,,,,,,,,,,,,,A_7,001,2024-11-28_13h32.31.371,untitled,2024.1.5,None,2024-11-28 13h32.45.696041 +0530,
triangle.png,you,1,M,,,,,,,,,13,1,53,1,,,,,,,,,276.2172082000179,,,,,,,,,,,,,,,,,,,,,,,,,,,,,,,,,,,,,,,,,,,,,,,,,,,,,,,,,,,,276.2012343999231,276.2172082000179,276.70090389996767,276.70090389996767,276.70090389996767,276.70090389996767,276.7172672000015,277.0006633999292,277.0006633999292,277.0006633999292,,277.3518369999947,m,277.35225779993925,277.367730799946,278.368380800006,278.35182520002127,0.6364160000812262,None,,,,,,,,,,,,,,,,,,,,,,,,,,,,,,,,,,,,,,,,,,,,,,,,,,,,,,,,,,,,,,,,,,,,,,,,,,,,,A_7,001,2024-11-28_13h32.31.371,untitled,2024.1.5,None,2024-11-28 13h32.45.696041 +0530,
square.png,you,0,Z,,,,,,,,,13,2,54,2,,,,,,,,,278.368380800006,,,,,,,,,,,,,,,,,,,,,,,,,,,,,,,,,,,,,,,,,,,,,,,,,,,,,,,,,,,,278.3521715999814,278.368380800006,278.8517156000016,278.8517156000016,278.8517156000016,278.8517156000016,278.8684683999745,279.15208379994147,279.15208379994147,279.15208379994147,,279.75288019992877,z,279.75330590002704,279.7689895000076,280.7694579999661,280.7533063000301,0.889487799955532,None,,,,,,,,,,,,,,,,,,,,,,,,,,,,,,,,,,,,,,,,,,,,,,,,,,,,,,,,,,,,,,,,,,,,,,,,,,,,,A_7,001,2024-11-28_13h32.31.371,untitled,2024.1.5,None,2024-11-28 13h32.45.696041 +0530,
triangle.png,stranger,0,Z,,,,,,,,,13,3,55,3,,,,,,,,,280.7694579999661,,,,,,,,,,,,,,,,,,,,,,,,,,,,,,,,,,,,,,,,,,,,,,,,,,,,,,,,,,,,280.7536556000123,280.7694579999661,281.25334569998085,281.25334569998085,281.25334569998085,281.25334569998085,281.2696346999146,281.55302999995183,281.55302999995183,281.55302999995183,,281.7705280999653,m,281.7709449999966,281.78673299995717,282.78721400001086,282.7708377999952,0.5014277000445873,None,,,,,,,,,,,,,,,,,,,,,,,,,,,,,,,,,,,,,,,,,,,,,,,,,,,,,,,,,,,,,,,,,,,,,,,,,,,,,A_7,001,2024-11-28_13h32.31.371,untitled,2024.1.5,None,2024-11-28 13h32.45.696041 +0530,
square.png,you,0,Z,,,,,,,,,14,0,56,2,,,,,,,,,282.78721400001086,,,,,,,,,,,,,,,,,,,,,,,,,,,,,,,,,,,,,,,,,,,,,,,,,,,,,,,,,,,,282.7711893999949,282.78721400001086,283.2710333999712,283.2710333999712,283.2710333999712,283.2710333999712,283.28735380002763,283.57084739999846,283.57084739999846,283.57084739999846,,283.73854419996496,m,283.7389632000122,283.7542298999615,284.7547496999614,284.738602599944,0.462307000067085,None,,,,,,,,,,,,,,,,,,,,,,,,,,,,,,,,,,,,,,,,,,,,,,,,,,,,,,,,,,,,,,,,,,,,,,,,,,,,,A_7,001,2024-11-28_13h32.31.371,untitled,2024.1.5,None,2024-11-28 13h32.45.696041 +0530,
triangle.png,stranger,0,Z,,,,,,,,,14,1,57,3,,,,,,,,,284.7547496999614,,,,,,,,,,,,,,,,,,,,,,,,,,,,,,,,,,,,,,,,,,,,,,,,,,,,,,,,,,,,284.7389579999726,284.7547496999614,285.238634099951,285.238634099951,285.238634099951,285.238634099951,285.25498660001904,285.5384906999534,285.5384906999534,285.5384906999534,,285.8729843000183,m,285.8735349000199,285.88899899995886,286.8891400999855,286.87292390002403,0.6237615999998525,None,,,,,,,,,,,,,,,,,,,,,,,,,,,,,,,,,,,,,,,,,,,,,,,,,,,,,,,,,,,,,,,,,,,,,,,,,,,,,A_7,001,2024-11-28_13h32.31.371,untitled,2024.1.5,None,2024-11-28 13h32.45.696041 +0530,
triangle.png,you,1,M,,,,,,,,,14,2,58,1,,,,,,,,,286.8891400999855,,,,,,,,,,,,,,,,,,,,,,,,,,,,,,,,,,,,,,,,,,,,,,,,,,,,,,,,,,,,286.87327310000546,286.8891400999855,287.3731730999425,287.3731730999425,287.3731730999425,287.3731730999425,287.3894286999712,287.6727574999677,287.6727574999677,287.6727574999677,,287.90696469997056,z,287.9073961999966,287.9230854000198,288.9236443999689,288.9074293000158,0.5247663999907672,None,,,,,,,,,,,,,,,,,,,,,,,,,,,,,,,,,,,,,,,,,,,,,,,,,,,,,,,,,,,,,,,,,,,,,,,,,,,,,A_7,001,2024-11-28_13h32.31.371,untitled,2024.1.5,None,2024-11-28 13h32.45.696041 +0530,
square.png,stranger,1,M,,,,,,,,,14,3,59,0,,,,,,,,,288.9236443999689,,,,,,,,,,,,,,,,,,,,,,,,,,,,,,,,,,,,,,,,,,,,,,,,,,,,,,,,,,,,288.907784699928,288.9236443999689,289.40739730000496,289.40739730000496,289.40739730000496,289.40739730000496,289.4240810999181,289.70739260001574,289.70739260001574,289.70739260001574,,290.2252142999787,m,290.22563399991486,290.24120569997467,291.24137549998704,291.2252740999684,0.8105894000036642,None,,,,,,,,,,,,,,,,,,,,,,,,,,,,,,,,,,,,,,,,,,,,,,,,,,,,,,,,,,,,,,,,,,,,,,,,,,,,,A_7,001,2024-11-28_13h32.31.371,untitled,2024.1.5,None,2024-11-28 13h32.45.696041 +0530,
square.png,stranger,1,M,,,,,,,,,15,0,60,0,,,,,,,,,291.24137549998704,,,,,,,,,,,,,,,,,,,,,,,,,,,,,,,,,,,,,,,,,,,,,,,,,,,,,,,,,,,,291.22562579996884,291.24137549998704,291.7252224999247,291.7252224999247,291.7252224999247,291.7252224999247,291.7417621000204,292.025280599948,292.025280599948,292.025280599948,,292.3761843999382,z,292.376630499959,292.39225849998184,293.39259009994566,293.3764704000205,0.6415741998935118,None,,,,,,,,,,,,,,,,,,,,,,,,,,,,,,,,,,,,,,,,,,,,,,,,,,,,,,,,,,,,,,,,,,,,,,,,,,,,,A_7,001,2024-11-28_13h32.31.371,untitled,2024.1.5,None,2024-11-28 13h32.45.696041 +0530,
triangle.png,stranger,0,Z,,,,,,,,,15,1,61,3,,,,,,,,,293.39259009994566,,,,,,,,,,,,,,,,,,,,,,,,,,,,,,,,,,,,,,,,,,,,,,,,,,,,,,,,,,,,293.37682539992966,293.39259009994566,293.8764422999229,293.8764422999229,293.8764422999229,293.8764422999229,293.8930683999788,294.1762365999166,294.1762365999166,294.1762365999166,294.9767763999989,294.9603193999501,None,294.96051509992685,294.9767763999989,295.97731470002327,295.9608999999473,,,,,,,,,,,,,,,,,,,,,,,,,,,,,,,,,,,,,,,,,,,,,,,,,,,,,,,,,,,,,,,,,,,,,,,,,,,,,,,A_7,001,2024-11-28_13h32.31.371,untitled,2024.1.5,None,2024-11-28 13h32.45.696041 +0530,
square.png,you,0,Z,,,,,,,,,15,2,62,2,,,,,,,,,295.97731470002327,,,,,,,,,,,,,,,,,,,,,,,,,,,,,,,,,,,,,,,,,,,,,,,,,,,,,,,,,,,,295.96125169994775,295.97731470002327,296.4776472999947,296.4776472999947,296.4776472999947,296.4776472999947,296.4776472999947,296.7774926000275,296.7774926000275,296.7774926000275,,297.1451714999275,z,297.14559989992995,297.1613488999428,298.16163889993913,298.1455436999677,0.6606552000157535,None,,,,,,,,,,,,,,,,,,,,,,,,,,,,,,,,,,,,,,,,,,,,,,,,,,,,,,,,,,,,,,,,,,,,,,,,,,,,,A_7,001,2024-11-28_13h32.31.371,untitled,2024.1.5,None,2024-11-28 13h32.45.696041 +0530,
triangle.png,you,1,M,,,,,,,,,15,3,63,1,,,,,,,,,298.16163889993913,,,,,,,,,,,,,,,,,,,,,,,,,,,,,,,,,,,,,,,,,,,,,,,,,,,,,,,,,,,,298.1459018000169,298.16163889993913,298.6451540000271,298.6451540000271,298.6451540000271,298.6451540000271,298.66188959998544,298.94518579996657,298.94518579996657,298.94518579996657,,299.2296863999218,m,299.230109600001,299.24555849994067,300.2460955999559,300.22991779993754,0.5799465000163764,None,,,,,,,,,,,,,,,,,,,,,,,,,,,,,,,,,,,,,,,,,,,,,,,,,,,,,,,,,,,,,,,,,,,,,,,,,,,,,A_7,001,2024-11-28_13h32.31.371,untitled,2024.1.5,None,2024-11-28 13h32.45.696041 +0530,
triangle.png,you,1,M,,,,,,,,,16,0,64,1,,,,,,,,,300.2460955999559,,,,,,,,,,,,,,,,,,,,,,,,,,,,,,,,,,,,,,,,,,,,,,,,,,,,,,,,,,,,300.2302702999441,300.2460955999559,300.72969369997736,300.72969369997736,300.72969369997736,300.72969369997736,300.74648640002124,301.02967790002003,301.02967790002003,301.02967790002003,,301.34740570001304,m,301.34782819997054,301.36341260001063,302.36399209999945,302.3476456999779,0.6154701999621466,None,,,,,,,,,,,,,,,,,,,,,,,,,,,,,,,,,,,,,,,,,,,,,,,,,,,,,,,,,,,,,,,,,,,,,,,,,,,,,A_7,001,2024-11-28_13h32.31.371,untitled,2024.1.5,None,2024-11-28 13h32.45.696041 +0530,
triangle.png,stranger,0,Z,,,,,,,,,16,1,65,3,,,,,,,,,302.36399209999945,,,,,,,,,,,,,,,,,,,,,,,,,,,,,,,,,,,,,,,,,,,,,,,,,,,,,,,,,,,,302.34799759997986,302.36399209999945,302.84765769995283,302.84765769995283,302.84765769995283,302.84765769995283,302.8640061999904,303.1477046000073,303.1477046000073,303.1477046000073,,303.5819788000081,z,303.5824330999749,303.59777799993753,304.598264799919,304.581853199983,0.7262041000649333,None,,,,,,,,,,,,,,,,,,,,,,,,,,,,,,,,,,,,,,,,,,,,,,,,,,,,,,,,,,,,,,,,,,,,,,,,,,,,,A_7,001,2024-11-28_13h32.31.371,untitled,2024.1.5,None,2024-11-28 13h32.45.696041 +0530,
square.png,stranger,1,M,,,,,,,,,16,2,66,0,,,,,,,,,304.598264799919,,,,,,,,,,,,,,,,,,,,,,,,,,,,,,,,,,,,,,,,,,,,,,,,,,,,,,,,,,,,304.5822117999196,304.598264799919,305.082280099974,305.082280099974,305.082280099974,305.082280099974,305.098513099947,305.38222379994113,305.38222379994113,305.38222379994113,,305.56623380002566,m,305.566661400022,305.5821724999696,306.5826891999459,306.56630159995984,0.4680623000022024,None,,,,,,,,,,,,,,,,,,,,,,,,,,,,,,,,,,,,,,,,,,,,,,,,,,,,,,,,,,,,,,,,,,,,,,,,,,,,,A_7,001,2024-11-28_13h32.31.371,untitled,2024.1.5,None,2024-11-28 13h32.45.696041 +0530,
square.png,you,0,Z,,,,,,,,,16,3,67,2,,,,,,,,,306.5826891999459,,,,,,,,,,,,,,,,,,,,,,,,,,,,,,,,,,,,,,,,,,,,,,,,,,,,,,,,,,,,306.566707400023,306.5826891999459,307.0663039999781,307.0663039999781,307.0663039999781,307.0663039999781,307.0830257999478,307.3663190000225,307.3663190000225,307.3663190000225,,307.6672980999574,z,307.66775489994325,307.68280860001687,308.68392089998815,308.66745579999406,0.5989928999915719,None,,,,,,,,,,,,,,,,,,,,,,,,,,,,,,,,,,,,,,,,,,,,,,,,,,,,,,,,,,,,,,,,,,,,,,,,,,,,,A_7,001,2024-11-28_13h32.31.371,untitled,2024.1.5,None,2024-11-28 13h32.45.696041 +0530,
triangle.png,stranger,0,Z,,,,,,,,,17,0,68,3,,,,,,,,,308.68392089998815,,,,,,,,,,,,,,,,,,,,,,,,,,,,,,,,,,,,,,,,,,,,,,,,,,,,,,,,,,,,308.6678000999382,308.68392089998815,309.1674396999879,309.1674396999879,309.1674396999879,309.1674396999879,309.18410379998386,309.4675822999561,309.4675822999561,309.4675822999561,,310.06856599997263,m,310.0689867999172,310.08449619996827,311.0849058999447,311.0687076000031,0.8936705000232905,None,,,,,,,,,,,,,,,,,,,,,,,,,,,,,,,,,,,,,,,,,,,,,,,,,,,,,,,,,,,,,,,,,,,,,,,,,,,,,A_7,001,2024-11-28_13h32.31.371,untitled,2024.1.5,None,2024-11-28 13h32.45.696041 +0530,
square.png,stranger,1,M,,,,,,,,,17,1,69,0,,,,,,,,,311.0849058999447,,,,,,,,,,,,,,,,,,,,,,,,,,,,,,,,,,,,,,,,,,,,,,,,,,,,,,,,,,,,311.0690653999336,311.0849058999447,311.5686146999942,311.5686146999942,311.5686146999942,311.5686146999942,311.5854535999242,311.868716099998,311.868716099998,311.868716099998,,312.40316200000234,m,312.4035845999606,312.4190970999189,313.4195239000255,313.40322460001335,0.8259011999471113,None,,,,,,,,,,,,,,,,,,,,,,,,,,,,,,,,,,,,,,,,,,,,,,,,,,,,,,,,,,,,,,,,,,,,,,,,,,,,,A_7,001,2024-11-28_13h32.31.371,untitled,2024.1.5,None,2024-11-28 13h32.45.696041 +0530,
square.png,you,0,Z,,,,,,,,,17,2,70,2,,,,,,,,,313.4195239000255,,,,,,,,,,,,,,,,,,,,,,,,,,,,,,,,,,,,,,,,,,,,,,,,,,,,,,,,,,,,313.40357979992405,313.4195239000255,313.90334309998434,313.90334309998434,313.90334309998434,313.90334309998434,313.9197393999202,314.2031353999628,314.2031353999628,314.2031353999628,,314.5711212999886,z,314.5715467999689,314.58685249998234,315.5871723999735,315.5711830999935,0.6657965000486001,None,,,,,,,,,,,,,,,,,,,,,,,,,,,,,,,,,,,,,,,,,,,,,,,,,,,,,,,,,,,,,,,,,,,,,,,,,,,,,A_7,001,2024-11-28_13h32.31.371,untitled,2024.1.5,None,2024-11-28 13h32.45.696041 +0530,
triangle.png,you,1,M,,,,,,,,,17,3,71,1,,,,,,,,,315.5871723999735,,,,,,,,,,,,,,,,,,,,,,,,,,,,,,,,,,,,,,,,,,,,,,,,,,,,,,,,,,,,315.5715325999772,315.5871723999735,316.07088669994846,316.07088669994846,316.07088669994846,316.07088669994846,316.08754249999765,316.3711516999174,316.3711516999174,316.3711516999174,,316.82178479991853,m,316.82221170002595,316.83804469997995,317.83838730002753,317.82233889994677,0.7474481000099331,None,,,,,,,,,,,,,,,,,,,,,,,,,,,,,,,,,,,,,,,,,,,,,,,,,,,,,,,,,,,,,,,,,,,,,,,,,,,,,A_7,001,2024-11-28_13h32.31.371,untitled,2024.1.5,None,2024-11-28 13h32.45.696041 +0530,
triangle.png,stranger,0,Z,,,,,,,,,18,0,72,3,,,,,,,,,317.83838730002753,,,,,,,,,,,,,,,,,,,,,,,,,,,,,,,,,,,,,,,,,,,,,,,,,,,,,,,,,,,,317.82271460001357,317.83838730002753,318.32209859997965,318.32209859997965,318.32209859997965,318.32209859997965,318.3386646999279,318.6221073999768,318.6221073999768,318.6221073999768,,318.87314839998726,z,318.8735683999257,318.8890860999236,319.8895832999842,319.87319209997077,0.548408200033009,None,,,,,,,,,,,,,,,,,,,,,,,,,,,,,,,,,,,,,,,,,,,,,,,,,,,,,,,,,,,,,,,,,,,,,,,,,,,,,A_7,001,2024-11-28_13h32.31.371,untitled,2024.1.5,None,2024-11-28 13h32.45.696041 +0530,
square.png,stranger,1,M,,,,,,,,,18,1,73,0,,,,,,,,,319.8895832999842,,,,,,,,,,,,,,,,,,,,,,,,,,,,,,,,,,,,,,,,,,,,,,,,,,,,,,,,,,,,319.87353989994153,319.8895832999842,320.3730840999633,320.3730840999633,320.3730840999633,320.3730840999633,320.39000469993334,320.6732873999281,320.6732873999281,320.6732873999281,,321.1740791000193,m,321.174503599992,321.190323799965,322.19066979992203,322.1745920999674,0.7858481999719515,None,,,,,,,,,,,,,,,,,,,,,,,,,,,,,,,,,,,,,,,,,,,,,,,,,,,,,,,,,,,,,,,,,,,,,,,,,,,,,A_7,001,2024-11-28_13h32.31.371,untitled,2024.1.5,None,2024-11-28 13h32.45.696041 +0530,
triangle.png,you,1,M,,,,,,,,,18,2,74,1,,,,,,,,,322.19066979992203,,,,,,,,,,,,,,,,,,,,,,,,,,,,,,,,,,,,,,,,,,,,,,,,,,,,,,,,,,,,322.17493919993285,322.19066979992203,322.67430219997186,322.67430219997186,322.67430219997186,322.67430219997186,322.6909057999728,322.9743239999516,322.9743239999516,322.9743239999516,,323.1250874999678,m,323.12550800002646,323.1412515999982,324.1414784999797,324.1253382000141,0.44404680002480745,None,,,,,,,,,,,,,,,,,,,,,,,,,,,,,,,,,,,,,,,,,,,,,,,,,,,,,,,,,,,,,,,,,,,,,,,,,,,,,A_7,001,2024-11-28_13h32.31.371,untitled,2024.1.5,None,2024-11-28 13h32.45.696041 +0530,
square.png,you,0,Z,,,,,,,,,18,3,75,2,,,,,,,,,324.1414784999797,,,,,,,,,,,,,,,,,,,,,,,,,,,,,,,,,,,,,,,,,,,,,,,,,,,,,,,,,,,,324.12569689995144,324.1414784999797,324.62528829998337,324.62528829998337,324.62528829998337,324.62528829998337,324.6421050999779,324.9255613000132,324.9255613000132,324.9255613000132,,325.29310909996275,z,325.2935357999522,325.30896129994653,326.30957679997664,326.2933868999826,0.6612750999629498,None,,,,,,,,,,,,,,,,,,,,,,,,,,,,,,,,,,,,,,,,,,,,,,,,,,,,,,,,,,,,,,,,,,,,,,,,,,,,,A_7,001,2024-11-28_13h32.31.371,untitled,2024.1.5,None,2024-11-28 13h32.45.696041 +0530,
triangle.png,stranger,0,Z,,,,,,,,,19,0,76,3,,,,,,,,,326.30957679997664,,,,,,,,,,,,,,,,,,,,,,,,,,,,,,,,,,,,,,,,,,,,,,,,,,,,,,,,,,,,326.2937295999145,326.30957679997664,326.79328759992495,326.79328759992495,326.79328759992495,326.79328759992495,326.8096666999627,327.09313819999807,327.09313819999807,327.09313819999807,,327.411227399949,z,327.41164970002137,327.4268947999226,328.4270719999913,328.41109189996496,0.6167565999785438,None,,,,,,,,,,,,,,,,,,,,,,,,,,,,,,,,,,,,,,,,,,,,,,,,,,,,,,,,,,,,,,,,,,,,,,,,,,,,,A_7,001,2024-11-28_13h32.31.371,untitled,2024.1.5,None,2024-11-28 13h32.45.696041 +0530,
triangle.png,you,1,M,,,,,,,,,19,1,77,1,,,,,,,,,328.4270719999913,,,,,,,,,,,,,,,,,,,,,,,,,,,,,,,,,,,,,,,,,,,,,,,,,,,,,,,,,,,,328.41144149994943,328.4270719999913,328.9111835999647,328.9111835999647,328.9111835999647,328.9111835999647,328.92743569996674,329.2108419999713,329.2108419999713,329.2108419999713,,329.49506490002386,m,329.49548399995547,329.51119669992477,330.5119105000049,330.49536059994716,0.5824602000648156,None,,,,,,,,,,,,,,,,,,,,,,,,,,,,,,,,,,,,,,,,,,,,,,,,,,,,,,,,,,,,,,,,,,,,,,,,,,,,,A_7,001,2024-11-28_13h32.31.371,untitled,2024.1.5,None,2024-11-28 13h32.45.696041 +0530,
square.png,stranger,1,M,,,,,,,,,19,2,78,0,,,,,,,,,330.5119105000049,,,,,,,,,,,,,,,,,,,,,,,,,,,,,,,,,,,,,,,,,,,,,,,,,,,,,,,,,,,,330.49570760002825,330.5119105000049,330.9953373000026,330.9953373000026,330.9953373000026,330.9953373000026,331.01184099994134,331.2951404999476,331.2951404999476,331.2951404999476,,331.59604839992244,m,331.59646519995295,331.6123024999397,332.61287409998477,332.59663929999806,0.5994676999980584,None,,,,,,,,,,,,,,,,,,,,,,,,,,,,,,,,,,,,,,,,,,,,,,,,,,,,,,,,,,,,,,,,,,,,,,,,,,,,,A_7,001,2024-11-28_13h32.31.371,untitled,2024.1.5,None,2024-11-28 13h32.45.696041 +0530,
square.png,you,0,Z,,,,,,,,,19,3,79,2,,,,,,,,,332.61287409998477,,,,,,,,,,,,,,,,,,,,,,,,,,,,,,,,,,,,,,,,,,,,,,,,,,,,,,,,,,,,332.5969853999559,332.61287409998477,333.09660719998647,333.09660719998647,333.09660719998647,333.09660719998647,333.1128054999281,333.3964994000271,333.3964994000271,333.3964994000271,,333.61384979996365,z,333.61427309992723,333.62996839999687,334.63040779996663,334.61413050000556,0.5139815000584349,None,,,,,,,,,,,,,,,,,,,,,,,,,,,,,,,,,,,,,,,,,,,,,,,,,,,,,,,,,,,,,,,,,,,,,,,,,,,,,A_7,001,2024-11-28_13h32.31.371,untitled,2024.1.5,None,2024-11-28 13h32.45.696041 +0530,
square.png,you,0,Z,,,,,,,,,20,0,80,2,,,,,,,,,334.63040779996663,,,,,,,,,,,,,,,,,,,,,,,,,,,,,,,,,,,,,,,,,,,,,,,,,,,,,,,,,,,,334.61448829993606,334.63040779996663,335.1137466999935,335.1137466999935,335.1137466999935,335.1137466999935,335.13038029999007,335.4137290000217,335.4137290000217,335.4137290000217,,335.8146905999165,z,335.81512389995623,335.8306699999375,336.83153800002765,336.81529249995947,0.699657000019215,None,,,,,,,,,,,,,,,,,,,,,,,,,,,,,,,,,,,,,,,,,,,,,,,,,,,,,,,,,,,,,,,,,,,,,,,,,,,,,A_7,001,2024-11-28_13h32.31.371,untitled,2024.1.5,None,2024-11-28 13h32.45.696041 +0530,
square.png,stranger,1,M,,,,,,,,,20,1,81,0,,,,,,,,,336.83153800002765,,,,,,,,,,,,,,,,,,,,,,,,,,,,,,,,,,,,,,,,,,,,,,,,,,,,,,,,,,,,336.8156460999744,336.83153800002765,337.31492569996044,337.31492569996044,337.31492569996044,337.31492569996044,337.33171259996016,337.61506839992944,337.61506839992944,337.61506839992944,,338.0326459999196,z,338.03307539992966,338.04852870001923,339.04917619994376,339.03286349994596,0.7061875000363216,None,,,,,,,,,,,,,,,,,,,,,,,,,,,,,,,,,,,,,,,,,,,,,,,,,,,,,,,,,,,,,,,,,,,,,,,,,,,,,A_7,001,2024-11-28_13h32.31.371,untitled,2024.1.5,None,2024-11-28 13h32.45.696041 +0530,
triangle.png,you,1,M,,,,,,,,,20,2,82,1,,,,,,,,,339.04917619994376,,,,,,,,,,,,,,,,,,,,,,,,,,,,,,,,,,,,,,,,,,,,,,,,,,,,,,,,,,,,339.03321699996013,339.04917619994376,339.5326928999275,339.5326928999275,339.5326928999275,339.5326928999275,339.54927740001585,339.8329682999756,339.8329682999756,339.8329682999756,,340.31736500002444,m,340.31780610000715,340.33315399999265,341.33367249998264,341.3177296000067,0.781822899938561,None,,,,,,,,,,,,,,,,,,,,,,,,,,,,,,,,,,,,,,,,,,,,,,,,,,,,,,,,,,,,,,,,,,,,,,,,,,,,,A_7,001,2024-11-28_13h32.31.371,untitled,2024.1.5,None,2024-11-28 13h32.45.696041 +0530,
triangle.png,stranger,0,Z,,,,,,,,,20,3,83,3,,,,,,,,,341.33367249998264,,,,,,,,,,,,,,,,,,,,,,,,,,,,,,,,,,,,,,,,,,,,,,,,,,,,,,,,,,,,341.3180799999973,341.33367249998264,341.8173389999429,341.8173389999429,341.8173389999429,341.8173389999429,341.8341543999268,342.11741559999064,342.11741559999064,342.11741559999064,,342.50169319997076,z,342.5021377999801,342.5176831999561,343.51838619995397,343.50196819996927,0.6809089999878779,None,,,,,,,,,,,,,,,,,,,,,,,,,,,,,,,,,,,,,,,,,,,,,,,,,,,,,,,,,,,,,,,,,,,,,,,,,,,,,A_7,001,2024-11-28_13h32.31.371,untitled,2024.1.5,None,2024-11-28 13h32.45.696041 +0530,
square.png,you,0,Z,,,,,,,,,21,0,84,2,,,,,,,,,343.51838619995397,,,,,,,,,,,,,,,,,,,,,,,,,,,,,,,,,,,,,,,,,,,,,,,,,,,,,,,,,,,,343.50232169998344,343.51838619995397,344.0020994999213,344.0020994999213,344.0020994999213,344.0020994999213,344.0187165000243,344.30206779995933,344.30206779995933,344.30206779995933,,344.60273049992975,z,344.6031713000266,344.6187674999237,345.61949990002904,345.6032455000095,0.5839326999848709,None,,,,,,,,,,,,,,,,,,,,,,,,,,,,,,,,,,,,,,,,,,,,,,,,,,,,,,,,,,,,,,,,,,,,,,,,,,,,,A_7,001,2024-11-28_13h32.31.371,untitled,2024.1.5,None,2024-11-28 13h32.45.696041 +0530,
triangle.png,stranger,0,Z,,,,,,,,,21,1,85,3,,,,,,,,,345.61949990002904,,,,,,,,,,,,,,,,,,,,,,,,,,,,,,,,,,,,,,,,,,,,,,,,,,,,,,,,,,,,345.60360659996513,345.61949990002904,346.10326919995714,346.10326919995714,346.10326919995714,346.10326919995714,346.11994849995244,346.4029607999837,346.4029607999837,346.4029607999837,,346.95395070000086,z,346.95438230002765,346.9700701999245,347.9706957999151,347.95430079998914,0.8381843999959528,None,,,,,,,,,,,,,,,,,,,,,,,,,,,,,,,,,,,,,,,,,,,,,,,,,,,,,,,,,,,,,,,,,,,,,,,,,,,,,A_7,001,2024-11-28_13h32.31.371,untitled,2024.1.5,None,2024-11-28 13h32.45.696041 +0530,
triangle.png,you,1,M,,,,,,,,,21,2,86,1,,,,,,,,,347.9706957999151,,,,,,,,,,,,,,,,,,,,,,,,,,,,,,,,,,,,,,,,,,,,,,,,,,,,,,,,,,,,347.9546446999302,347.9706957999151,348.454256099998,348.454256099998,348.454256099998,348.454256099998,348.4708177000284,348.75422639993485,348.75422639993485,348.75422639993485,,348.9885063000256,m,348.98893180000596,349.0045982999727,350.0049310999457,349.98892819997855,0.5196458999998868,None,,,,,,,,,,,,,,,,,,,,,,,,,,,,,,,,,,,,,,,,,,,,,,,,,,,,,,,,,,,,,,,,,,,,,,,,,,,,,A_7,001,2024-11-28_13h32.31.371,untitled,2024.1.5,None,2024-11-28 13h32.45.696041 +0530,
square.png,stranger,1,M,,,,,,,,,21,3,87,0,,,,,,,,,350.0049310999457,,,,,,,,,,,,,,,,,,,,,,,,,,,,,,,,,,,,,,,,,,,,,,,,,,,,,,,,,,,,349.9892734999303,350.0049310999457,350.4885888999561,350.4885888999561,350.4885888999561,350.4885888999561,350.5052909000078,350.788703899947,350.788703899947,350.788703899947,,351.00622199999634,m,351.0066542000277,351.0221082000062,352.02262860001065,352.0065002000192,0.5020841000368819,None,,,,,,,,,,,,,,,,,,,,,,,,,,,,,,,,,,,,,,,,,,,,,,,,,,,,,,,,,,,,,,,,,,,,,,,,,,,,,A_7,001,2024-11-28_13h32.31.371,untitled,2024.1.5,None,2024-11-28 13h32.45.696041 +0530,
square.png,you,0,Z,,,,,,,,,22,0,88,2,,,,,,,,,352.02262860001065,,,,,,,,,,,,,,,,,,,,,,,,,,,,,,,,,,,,,,,,,,,,,,,,,,,,,,,,,,,,352.0068486999953,352.02262860001065,352.50625069998205,352.50625069998205,352.50625069998205,352.50625069998205,352.52315399993677,352.8064003000036,352.8064003000036,352.8064003000036,,353.0573473999975,z,353.05779569991864,353.07311310002115,354.0738156000152,354.0577867999673,0.5429772000061348,None,,,,,,,,,,,,,,,,,,,,,,,,,,,,,,,,,,,,,,,,,,,,,,,,,,,,,,,,,,,,,,,,,,,,,,,,,,,,,A_7,001,2024-11-28_13h32.31.371,untitled,2024.1.5,None,2024-11-28 13h32.45.696041 +0530,
square.png,stranger,1,M,,,,,,,,,22,1,89,0,,,,,,,,,354.0738156000152,,,,,,,,,,,,,,,,,,,,,,,,,,,,,,,,,,,,,,,,,,,,,,,,,,,,,,,,,,,,354.0583034999436,354.0738156000152,354.5574148999294,354.5574148999294,354.5574148999294,354.5574148999294,354.57408739998937,354.85727349994704,354.85727349994704,354.85727349994704,,355.32501599995885,m,355.32544439996127,355.34117010002956,356.3414697999833,356.325654199929,0.7645306999329478,None,,,,,,,,,,,,,,,,,,,,,,,,,,,,,,,,,,,,,,,,,,,,,,,,,,,,,,,,,,,,,,,,,,,,,,,,,,,,,A_7,001,2024-11-28_13h32.31.371,untitled,2024.1.5,None,2024-11-28 13h32.45.696041 +0530,
triangle.png,you,1,M,,,,,,,,,22,2,90,1,,,,,,,,,356.3414697999833,,,,,,,,,,,,,,,,,,,,,,,,,,,,,,,,,,,,,,,,,,,,,,,,,,,,,,,,,,,,356.3260003000032,356.3414697999833,356.82536219991744,356.82536219991744,356.82536219991744,356.82536219991744,356.8418889999157,357.125395399984,357.125395399984,357.125395399984,,357.50931210001,m,357.5097376999911,357.5254356999649,358.5260352999903,358.5096608999884,0.6733746000099927,None,,,,,,,,,,,,,,,,,,,,,,,,,,,,,,,,,,,,,,,,,,,,,,,,,,,,,,,,,,,,,,,,,,,,,,,,,,,,,A_7,001,2024-11-28_13h32.31.371,untitled,2024.1.5,None,2024-11-28 13h32.45.696041 +0530,
triangle.png,stranger,0,Z,,,,,,,,,22,3,91,3,,,,,,,,,358.5260352999903,,,,,,,,,,,,,,,,,,,,,,,,,,,,,,,,,,,,,,,,,,,,,,,,,,,,,,,,,,,,358.5100105999736,358.5260352999903,359.0098861999577,359.0098861999577,359.0098861999577,359.0098861999577,359.026519899955,359.30982209998183,359.30982209998183,359.30982209998183,,359.76081130001694,z,359.7612332999706,359.7766353000188,360.7771814999869,360.76080369995907,0.7354703000746667,None,,,,,,,,,,,,,,,,,,,,,,,,,,,,,,,,,,,,,,,,,,,,,,,,,,,,,,,,,,,,,,,,,,,,,,,,,,,,,A_7,001,2024-11-28_13h32.31.371,untitled,2024.1.5,None,2024-11-28 13h32.45.696041 +0530,
square.png,you,0,Z,,,,,,,,,23,0,92,2,,,,,,,,,360.7771814999869,,,,,,,,,,,,,,,,,,,,,,,,,,,,,,,,,,,,,,,,,,,,,,,,,,,,,,,,,,,,360.7611499999184,360.7771814999869,361.26092019991484,361.26092019991484,361.26092019991484,361.26092019991484,361.2773263999261,361.5609988999786,361.5609988999786,361.5609988999786,,362.1284704999998,z,362.1288921999512,362.1445071999915,363.14497769996524,363.1288230000064,0.86564490001183,None,,,,,,,,,,,,,,,,,,,,,,,,,,,,,,,,,,,,,,,,,,,,,,,,,,,,,,,,,,,,,,,,,,,,,,,,,,,,,A_7,001,2024-11-28_13h32.31.371,untitled,2024.1.5,None,2024-11-28 13h32.45.696041 +0530,
triangle.png,you,1,M,,,,,,,,,23,1,93,1,,,,,,,,,363.14497769996524,,,,,,,,,,,,,,,,,,,,,,,,,,,,,,,,,,,,,,,,,,,,,,,,,,,,,,,,,,,,363.1291666999459,363.14497769996524,363.6286016999511,363.6286016999511,363.6286016999511,363.6286016999511,363.6454793999437,363.9288474000059,363.9288474000059,363.9288474000059,,364.26294779998716,m,364.2633651000215,364.27909209998325,365.2795677999966,365.2632832999807,0.6330097999889404,None,,,,,,,,,,,,,,,,,,,,,,,,,,,,,,,,,,,,,,,,,,,,,,,,,,,,,,,,,,,,,,,,,,,,,,,,,,,,,A_7,001,2024-11-28_13h32.31.371,untitled,2024.1.5,None,2024-11-28 13h32.45.696041 +0530,
square.png,stranger,1,M,,,,,,,,,23,2,94,0,,,,,,,,,365.2795677999966,,,,,,,,,,,,,,,,,,,,,,,,,,,,,,,,,,,,,,,,,,,,,,,,,,,,,,,,,,,,365.2636301999446,365.2795677999966,365.7632948999526,365.7632948999526,365.7632948999526,365.7632948999526,365.7797325999709,366.063226499944,366.063226499944,366.063226499944,,366.2975150999846,m,366.2979365999345,366.3133963999571,367.31376709998585,367.2977595999837,0.5186196999857202,None,,,,,,,,,,,,,,,,,,,,,,,,,,,,,,,,,,,,,,,,,,,,,,,,,,,,,,,,,,,,,,,,,,,,,,,,,,,,,A_7,001,2024-11-28_13h32.31.371,untitled,2024.1.5,None,2024-11-28 13h32.45.696041 +0530,
triangle.png,stranger,0,Z,,,,,,,,,23,3,95,3,,,,,,,,,367.31376709998585,,,,,,,,,,,,,,,,,,,,,,,,,,,,,,,,,,,,,,,,,,,,,,,,,,,,,,,,,,,,367.2981064999476,367.31376709998585,367.79736720002256,367.79736720002256,367.79736720002256,367.79736720002256,367.81404420000035,368.09745529992506,368.09745529992506,368.09745529992506,,368.8320684999926,z,368.83249679999426,368.84809029998723,369.84834349993616,369.8322317999555,1.0251476999837905,None,,,,,,,,,,,,,,,,,,,,,,,,,,,,,,,,,,,,,,,,,,,,,,,,,,,,,,,,,,,,,,,,,,,,,,,,,,,,,A_7,001,2024-11-28_13h32.31.371,untitled,2024.1.5,None,2024-11-28 13h32.45.696041 +0530,
triangle.png,you,1,M,,,,,,,,,24,0,96,1,,,,,,,,,369.84834349993616,,,,,,,,,,,,,,,,,,,,,,,,,,,,,,,,,,,,,,,,,,,,,,,,,,,,,,,,,,,,369.8325872999849,369.84834349993616,370.3323077999521,370.3323077999521,370.3323077999521,370.3323077999521,370.3489517000271,370.63229879993014,370.63229879993014,370.63229879993014,,370.94991329999175,m,370.9503303000238,370.96581670001615,371.96615689992905,371.9501305000158,0.6100212000310421,None,,,,,,,,,,,,,,,,,,,,,,,,,,,,,,,,,,,,,,,,,,,,,,,,,,,,,,,,,,,,,,,,,,,,,,,,,,,,,A_7,001,2024-11-28_13h32.31.371,untitled,2024.1.5,None,2024-11-28 13h32.45.696041 +0530,
triangle.png,stranger,0,Z,,,,,,,,,24,1,97,3,,,,,,,,,371.96615689992905,,,,,,,,,,,,,,,,,,,,,,,,,,,,,,,,,,,,,,,,,,,,,,,,,,,,,,,,,,,,371.95048300002236,371.96615689992905,372.44992699997965,372.44992699997965,372.44992699997965,372.44992699997965,372.46639489999507,372.7499191999668,372.7499191999668,372.7499191999668,,372.98401309992187,z,372.9844295999501,373.0002310000127,374.0005029999884,373.98451219999697,0.5327643000055104,None,,,,,,,,,,,,,,,,,,,,,,,,,,,,,,,,,,,,,,,,,,,,,,,,,,,,,,,,,,,,,,,,,,,,,,,,,,,,,A_7,001,2024-11-28_13h32.31.371,untitled,2024.1.5,None,2024-11-28 13h32.45.696041 +0530,
square.png,stranger,1,M,,,,,,,,,24,2,98,0,,,,,,,,,374.0005029999884,,,,,,,,,,,,,,,,,,,,,,,,,,,,,,,,,,,,,,,,,,,,,,,,,,,,,,,,,,,,373.98486049997155,374.0005029999884,374.4843115999829,374.4843115999829,374.4843115999829,374.4843115999829,374.5008033999475,374.78435349999927,374.78435349999927,374.78435349999927,,374.8684228999773,m,374.8688590999227,374.8843500999501,375.884811899974,375.8687747999793,0.3821672999765724,None,,,,,,,,,,,,,,,,,,,,,,,,,,,,,,,,,,,,,,,,,,,,,,,,,,,,,,,,,,,,,,,,,,,,,,,,,,,,,A_7,001,2024-11-28_13h32.31.371,untitled,2024.1.5,None,2024-11-28 13h32.45.696041 +0530,
square.png,you,0,Z,,,,,,,,,24,3,99,2,,,,,,,,,375.884811899974,,,,,,,,,,,,,,,,,,,,,,,,,,,,,,,,,,,,,,,,,,,,,,,,,,,,,,,,,,,,375.8691297000041,375.884811899974,376.3688000999391,376.3688000999391,376.3688000999391,376.3688000999391,376.38521949993446,376.6687732000137,376.6687732000137,376.6687732000137,,377.05284729995765,m,377.05326620000415,377.0690169999143,378.06937909999397,378.0533305000281,0.672369800042361,None,,,,,,,,,,,,,,,,,,,,,,,,,,,,,,,,,,,,,,,,,,,,,,,,,,,,,,,,,,,,,,,,,,,,,,,,,,,,,A_7,001,2024-11-28_13h32.31.371,untitled,2024.1.5,None,2024-11-28 13h32.45.696041 +0530,
square.png,you,0,Z,,,,,,,,,25,0,100,2,,,,,,,,,378.06937909999397,,,,,,,,,,,,,,,,,,,,,,,,,,,,,,,,,,,,,,,,,,,,,,,,,,,,,,,,,,,,378.0536778999958,378.06937909999397,378.55333319993224,378.55333319993224,378.55333319993224,378.55333319993224,378.5697230999358,378.85322439996526,378.85322439996526,378.85322439996526,,379.38730199995916,z,379.3877326999791,379.4032799999695,380.4040704999352,380.3875745999394,0.8248705000150949,None,,,,,,,,,,,,,,,,,,,,,,,,,,,,,,,,,,,,,,,,,,,,,,,,,,,,,,,,,,,,,,,,,,,,,,,,,,,,,A_7,001,2024-11-28_13h32.31.371,untitled,2024.1.5,None,2024-11-28 13h32.45.696041 +0530,
square.png,stranger,1,M,,,,,,,,,25,1,101,0,,,,,,,,,380.4040704999352,,,,,,,,,,,,,,,,,,,,,,,,,,,,,,,,,,,,,,,,,,,,,,,,,,,,,,,,,,,,380.3879258999368,380.4040704999352,380.8877379000187,380.8877379000187,380.8877379000187,380.8877379000187,380.9044011000078,381.1876826999942,381.1876826999942,381.1876826999942,,381.5553976999363,m,381.55582080001477,381.5711857000133,382.5717775999801,382.555380799924,0.6628297999268398,None,,,,,,,,,,,,,,,,,,,,,,,,,,,,,,,,,,,,,,,,,,,,,,,,,,,,,,,,,,,,,,,,,,,,,,,,,,,,,A_7,001,2024-11-28_13h32.31.371,untitled,2024.1.5,None,2024-11-28 13h32.45.696041 +0530,
triangle.png,stranger,0,Z,,,,,,,,,25,2,102,3,,,,,,,,,382.5717775999801,,,,,,,,,,,,,,,,,,,,,,,,,,,,,,,,,,,,,,,,,,,,,,,,,,,,,,,,,,,,382.55573439993896,382.5717775999801,383.05532739998307,383.05532739998307,383.05532739998307,383.05532739998307,383.0719521000283,383.3555970999878,383.3555970999878,383.3555970999878,,383.7897794999881,z,383.79020199994557,383.8055957999313,384.8061375999823,384.79011429997627,0.7180987000465393,None,,,,,,,,,,,,,,,,,,,,,,,,,,,,,,,,,,,,,,,,,,,,,,,,,,,,,,,,,,,,,,,,,,,,,,,,,,,,,A_7,001,2024-11-28_13h32.31.371,untitled,2024.1.5,None,2024-11-28 13h32.45.696041 +0530,
triangle.png,you,1,M,,,,,,,,,25,3,103,1,,,,,,,,,384.8061375999823,,,,,,,,,,,,,,,,,,,,,,,,,,,,,,,,,,,,,,,,,,,,,,,,,,,,,,,,,,,,384.7904652999714,384.8061375999823,385.2901832999196,385.2901832999196,385.2901832999196,385.2901832999196,385.3065510999877,385.5899896000046,385.5899896000046,385.5899896000046,,385.89085460000206,m,385.89128260000143,385.90697889996227,386.90738699992653,386.89096099999733,0.5841967999003828,None,,,,,,,,,,,,,,,,,,,,,,,,,,,,,,,,,,,,,,,,,,,,,,,,,,,,,,,,,,,,,,,,,,,,,,,,,,,,,A_7,001,2024-11-28_13h32.31.371,untitled,2024.1.5,None,2024-11-28 13h32.45.696041 +0530,
square.png,stranger,1,M,,,,,,,,,26,0,104,0,,,,,,,,,386.90738699992653,,,,,,,,,,,,,,,,,,,,,,,,,,,,,,,,,,,,,,,,,,,,,,,,,,,,,,,,,,,,386.89130759995896,386.90738699992653,387.3911150000058,387.3911150000058,387.3911150000058,387.3911150000058,387.40767899993807,387.69091300002765,387.69091300002765,387.69091300002765,,388.1920746000251,m,388.19249819999095,388.2078609999735,389.2084683999419,389.1920956999529,0.7900924999266863,None,,,,,,,,,,,,,,,,,,,,,,,,,,,,,,,,,,,,,,,,,,,,,,,,,,,,,,,,,,,,,,,,,,,,,,,,,,,,,A_7,001,2024-11-28_13h32.31.371,untitled,2024.1.5,None,2024-11-28 13h32.45.696041 +0530,
triangle.png,you,1,M,,,,,,,,,26,1,105,1,,,,,,,,,389.2084683999419,,,,,,,,,,,,,,,,,,,,,,,,,,,,,,,,,,,,,,,,,,,,,,,,,,,,,,,,,,,,389.19245189998765,389.2084683999419,389.6919885999523,389.6919885999523,389.6919885999523,389.6919885999523,389.708873399999,389.99209580000024,389.99209580000024,389.99209580000024,,390.27644009992946,m,390.2768619999988,390.2923384999158,391.2927381999325,391.2766193000134,0.578928800066933,None,,,,,,,,,,,,,,,,,,,,,,,,,,,,,,,,,,,,,,,,,,,,,,,,,,,,,,,,,,,,,,,,,,,,,,,,,,,,,A_7,001,2024-11-28_13h32.31.371,untitled,2024.1.5,None,2024-11-28 13h32.45.696041 +0530,
square.png,you,0,Z,,,,,,,,,26,2,106,2,,,,,,,,,391.2927381999325,,,,,,,,,,,,,,,,,,,,,,,,,,,,,,,,,,,,,,,,,,,,,,,,,,,,,,,,,,,,391.27698349999264,391.2927381999325,391.77667429996654,391.77667429996654,391.77667429996654,391.77667429996654,391.7932760999538,392.07659730000887,392.07659730000887,392.07659730000887,,392.24418729997706,z,392.24461860000156,392.2598974999273,393.2605585999554,393.2443809999386,0.4657145000528544,None,,,,,,,,,,,,,,,,,,,,,,,,,,,,,,,,,,,,,,,,,,,,,,,,,,,,,,,,,,,,,,,,,,,,,,,,,,,,,A_7,001,2024-11-28_13h32.31.371,untitled,2024.1.5,None,2024-11-28 13h32.45.696041 +0530,
triangle.png,stranger,0,Z,,,,,,,,,26,3,107,3,,,,,,,,,393.2605585999554,,,,,,,,,,,,,,,,,,,,,,,,,,,,,,,,,,,,,,,,,,,,,,,,,,,,,,,,,,,,393.24473039992154,393.2605585999554,393.7443919000216,393.7443919000216,393.7443919000216,393.7443919000216,393.76097529998515,394.0443438999355,394.0443438999355,394.0443438999355,,394.44506840000395,z,394.4454962000018,394.46123180002905,395.46160119993147,395.4452683000127,0.6905281000072137,None,,,,,,,,,,,,,,,,,,,,,,,,,,,,,,,,,,,,,,,,,,,,,,,,,,,,,,,,,,,,,,,,,,,,,,,,,,,,,A_7,001,2024-11-28_13h32.31.371,untitled,2024.1.5,None,2024-11-28 13h32.45.696041 +0530,
triangle.png,stranger,0,Z,,,,,,,,,27,0,108,3,,,,,,,,,395.46160119993147,,,,,,,,,,,,,,,,,,,,,,,,,,,,,,,,,,,,,,,,,,,,,,,,,,,,,,,,,,,,395.445614199969,395.46160119993147,395.94543059996795,395.94543059996795,395.94543059996795,395.94543059996795,395.9621558999643,396.2452665999299,396.2452665999299,396.2452665999299,,396.61307650001254,z,396.61350470001344,396.62884369993117,397.6293411999941,397.6130265999818,0.6609780000289902,None,,,,,,,,,,,,,,,,,,,,,,,,,,,,,,,,,,,,,,,,,,,,,,,,,,,,,,,,,,,,,,,,,,,,,,,,,,,,,A_7,001,2024-11-28_13h32.31.371,untitled,2024.1.5,None,2024-11-28 13h32.45.696041 +0530,
triangle.png,you,1,M,,,,,,,,,27,1,109,1,,,,,,,,,397.6293411999941,,,,,,,,,,,,,,,,,,,,,,,,,,,,,,,,,,,,,,,,,,,,,,,,,,,,,,,,,,,,397.6133845000295,397.6293411999941,398.1130724999821,398.1130724999821,398.1130724999821,398.1130724999821,398.1298205999192,398.41291489999276,398.41291489999276,398.41291489999276,,398.81428920000326,m,398.81471740000416,398.829997099936,399.8304904999677,399.8143547999207,0.6968785000499338,None,,,,,,,,,,,,,,,,,,,,,,,,,,,,,,,,,,,,,,,,,,,,,,,,,,,,,,,,,,,,,,,,,,,,,,,,,,,,,A_7,001,2024-11-28_13h32.31.371,untitled,2024.1.5,None,2024-11-28 13h32.45.696041 +0530,
square.png,you,0,Z,,,,,,,,,27,2,110,2,,,,,,,,,399.8304904999677,,,,,,,,,,,,,,,,,,,,,,,,,,,,,,,,,,,,,,,,,,,,,,,,,,,,,,,,,,,,399.8147105999524,399.8304904999677,400.3142225999618,400.3142225999618,400.3142225999618,400.3142225999618,400.3307736000279,400.6144033999881,400.6144033999881,400.6144033999881,,401.098754299921,z,401.0991812000284,401.1145675999578,402.1151660999749,402.0988160999259,0.7689467000309378,None,,,,,,,,,,,,,,,,,,,,,,,,,,,,,,,,,,,,,,,,,,,,,,,,,,,,,,,,,,,,,,,,,,,,,,,,,,,,,A_7,001,2024-11-28_13h32.31.371,untitled,2024.1.5,None,2024-11-28 13h32.45.696041 +0530,
square.png,stranger,1,M,,,,,,,,,27,3,111,0,,,,,,,,,402.1151660999749,,,,,,,,,,,,,,,,,,,,,,,,,,,,,,,,,,,,,,,,,,,,,,,,,,,,,,,,,,,,402.099168799934,402.1151660999749,402.5989376999205,402.5989376999205,402.5989376999205,402.5989376999205,402.6155402000295,402.8987606000155,402.8987606000155,402.8987606000155,,403.3499875999987,m,403.35041569999885,403.3658167999238,404.3662506999681,404.349870899925,0.7502524999435991,None,,,,,,,,,,,,,,,,,,,,,,,,,,,,,,,,,,,,,,,,,,,,,,,,,,,,,,,,,,,,,,,,,,,,,,,,,,,,,A_7,001,2024-11-28_13h32.31.371,untitled,2024.1.5,None,2024-11-28 13h32.45.696041 +0530,
square.png,stranger,1,M,,,,,,,,,28,0,112,0,,,,,,,,,404.3662506999681,,,,,,,,,,,,,,,,,,,,,,,,,,,,,,,,,,,,,,,,,,,,,,,,,,,,,,,,,,,,404.35022090002894,404.3662506999681,404.8500457999762,404.8500457999762,404.8500457999762,404.8500457999762,404.86662360001355,405.150020299945,405.150020299945,405.150020299945,,405.4174460999202,m,405.4179208999267,405.4333232999779,406.4341447999468,406.4180039999774,0.5645440999651328,None,,,,,,,,,,,,,,,,,,,,,,,,,,,,,,,,,,,,,,,,,,,,,,,,,,,,,,,,,,,,,,,,,,,,,,,,,,,,,A_7,001,2024-11-28_13h32.31.371,untitled,2024.1.5,None,2024-11-28 13h32.45.696041 +0530,
square.png,you,0,Z,,,,,,,,,28,1,113,2,,,,,,,,,406.4341447999468,,,,,,,,,,,,,,,,,,,,,,,,,,,,,,,,,,,,,,,,,,,,,,,,,,,,,,,,,,,,406.41835279995576,406.4341447999468,406.9173904999625,406.9173904999625,406.9173904999625,406.9173904999625,406.9340100999689,407.2173344999319,407.2173344999319,407.2173344999319,,407.5182417000178,z,407.5186752999434,407.53420549992006,408.534694599919,408.51847519993316,0.5884562999708578,None,,,,,,,,,,,,,,,,,,,,,,,,,,,,,,,,,,,,,,,,,,,,,,,,,,,,,,,,,,,,,,,,,,,,,,,,,,,,,A_7,001,2024-11-28_13h32.31.371,untitled,2024.1.5,None,2024-11-28 13h32.45.696041 +0530,
triangle.png,you,1,M,,,,,,,,,28,2,114,1,,,,,,,,,408.534694599919,,,,,,,,,,,,,,,,,,,,,,,,,,,,,,,,,,,,,,,,,,,,,,,,,,,,,,,,,,,,408.5188448999543,408.534694599919,409.01849439996295,409.01849439996295,409.01849439996295,409.01849439996295,409.03509010002017,409.3184387999354,409.3184387999354,409.3184387999354,,409.7360561999958,m,409.73650140000973,409.75204669998493,410.75249430001713,410.7360869999975,0.7068881000159308,None,,,,,,,,,,,,,,,,,,,,,,,,,,,,,,,,,,,,,,,,,,,,,,,,,,,,,,,,,,,,,,,,,,,,,,,,,,,,,A_7,001,2024-11-28_13h32.31.371,untitled,2024.1.5,None,2024-11-28 13h32.45.696041 +0530,
triangle.png,stranger,0,Z,,,,,,,,,28,3,115,3,,,,,,,,,410.75249430001713,,,,,,,,,,,,,,,,,,,,,,,,,,,,,,,,,,,,,,,,,,,,,,,,,,,,,,,,,,,,410.7364211999811,410.75249430001713,411.23622059996706,411.23622059996706,411.23622059996706,411.23622059996706,411.2528134000022,411.53617680002935,411.53617680002935,411.53617680002935,,411.8869158999296,z,411.88734579994343,411.9030541999964,412.9035796999233,412.8872789000161,0.6411739999894053,None,,,,,,,,,,,,,,,,,,,,,,,,,,,,,,,,,,,,,,,,,,,,,,,,,,,,,,,,,,,,,,,,,,,,,,,,,,,,,A_7,001,2024-11-28_13h32.31.371,untitled,2024.1.5,None,2024-11-28 13h32.45.696041 +0530,
triangle.png,you,1,M,,,,,,,,,29,0,116,1,,,,,,,,,412.9035796999233,,,,,,,,,,,,,,,,,,,,,,,,,,,,,,,,,,,,,,,,,,,,,,,,,,,,,,,,,,,,412.88760859996546,412.9035796999233,413.38730179995764,413.38730179995764,413.38730179995764,413.38730179995764,413.4039107999997,413.68731119995937,413.68731119995937,413.68731119995937,,414.0381568999728,m,414.0385759000201,414.05416910001077,415.05473989993334,415.0385706999805,0.6461215999443084,None,,,,,,,,,,,,,,,,,,,,,,,,,,,,,,,,,,,,,,,,,,,,,,,,,,,,,,,,,,,,,,,,,,,,,,,,,,,,,A_7,001,2024-11-28_13h32.31.371,untitled,2024.1.5,None,2024-11-28 13h32.45.696041 +0530,
square.png,stranger,1,M,,,,,,,,,29,1,117,0,,,,,,,,,415.05473989993334,,,,,,,,,,,,,,,,,,,,,,,,,,,,,,,,,,,,,,,,,,,,,,,,,,,,,,,,,,,,415.0389282000251,415.05473989993334,415.5384313999675,415.5384313999675,415.5384313999675,415.5384313999675,415.5550447999267,415.8383935999591,415.8383935999591,415.8383935999591,,416.2063181999838,m,416.20674759999383,416.222345200018,417.22284760000184,417.206650899956,0.659542900044471,None,,,,,,,,,,,,,,,,,,,,,,,,,,,,,,,,,,,,,,,,,,,,,,,,,,,,,,,,,,,,,,,,,,,,,,,,,,,,,A_7,001,2024-11-28_13h32.31.371,untitled,2024.1.5,None,2024-11-28 13h32.45.696041 +0530,
square.png,you,0,Z,,,,,,,,,29,2,118,2,,,,,,,,,417.22284760000184,,,,,,,,,,,,,,,,,,,,,,,,,,,,,,,,,,,,,,,,,,,,,,,,,,,,,,,,,,,,417.207002799958,417.22284760000184,417.70633259997703,417.70633259997703,417.70633259997703,417.70633259997703,417.72294659994077,418.00661159993615,418.00661159993615,418.00661159993615,,418.3242551999865,z,418.3246789999539,418.3402095999336,419.3405097000068,419.3245309999911,0.6082574999891222,None,,,,,,,,,,,,,,,,,,,,,,,,,,,,,,,,,,,,,,,,,,,,,,,,,,,,,,,,,,,,,,,,,,,,,,,,,,,,,A_7,001,2024-11-28_13h32.31.371,untitled,2024.1.5,None,2024-11-28 13h32.45.696041 +0530,
triangle.png,stranger,0,Z,,,,,,,,,29,3,119,3,,,,,,,,,419.3405097000068,,,,,,,,,,,,,,,,,,,,,,,,,,,,,,,,,,,,,,,,,,,,,,,,,,,,,,,,,,,,419.32488299999386,419.3405097000068,419.82423879997805,419.82423879997805,419.82423879997805,419.82423879997805,419.8408513999311,420.1242231000215,420.1242231000215,420.1242231000215,420.9248905000277,420.90834740002174,None,420.90853699995205,420.9248905000277,421.92537589999847,421.90922029991634,,,,,,,,,,,,,,,,,,,,,,,,,,,,,,,,,,,,,,,,,,,,,,,,,,,,,,,,,,,,,,,,,,,,,,,,,,,,,,,A_7,001,2024-11-28_13h32.31.371,untitled,2024.1.5,None,2024-11-28 13h32.45.696041 +0530,
triangle.png,stranger,0,Z,,,,,,,,,30,0,120,3,,,,,,,,,421.92537589999847,,,,,,,,,,,,,,,,,,,,,,,,,,,,,,,,,,,,,,,,,,,,,,,,,,,,,,,,,,,,421.9095684000058,421.92537589999847,422.42549179994967,422.42549179994967,422.42549179994967,422.42549179994967,422.42549179994967,422.7257395000197,422.7257395000197,422.7257395000197,,423.159775899956,z,423.1602004999295,423.17591360001825,424.17635780002456,424.16010259999894,0.7196800999809057,None,,,,,,,,,,,,,,,,,,,,,,,,,,,,,,,,,,,,,,,,,,,,,,,,,,,,,,,,,,,,,,,,,,,,,,,,,,,,,A_7,001,2024-11-28_13h32.31.371,untitled,2024.1.5,None,2024-11-28 13h32.45.696041 +0530,
triangle.png,you,1,M,,,,,,,,,30,1,121,1,,,,,,,,,424.17635780002456,,,,,,,,,,,,,,,,,,,,,,,,,,,,,,,,,,,,,,,,,,,,,,,,,,,,,,,,,,,,424.1604511999758,424.17635780002456,424.66007199999876,424.66007199999876,424.66007199999876,424.66007199999876,424.6766164000146,424.96026109997183,424.96026109997183,424.96026109997183,,425.14399889996275,m,425.1444343000185,425.1601417999482,426.1606548000127,426.1446211999282,0.4826891999691725,None,,,,,,,,,,,,,,,,,,,,,,,,,,,,,,,,,,,,,,,,,,,,,,,,,,,,,,,,,,,,,,,,,,,,,,,,,,,,,A_7,001,2024-11-28_13h32.31.371,untitled,2024.1.5,None,2024-11-28 13h32.45.696041 +0530,
square.png,you,0,Z,,,,,,,,,30,2,122,2,,,,,,,,,426.1606548000127,,,,,,,,,,,,,,,,,,,,,,,,,,,,,,,,,,,,,,,,,,,,,,,,,,,,,,,,,,,,426.14496659999713,426.1606548000127,426.64428659994155,426.64428659994155,426.64428659994155,426.64428659994155,426.6609606000129,426.9443717999384,426.9443717999384,426.9443717999384,,427.26226839993615,z,427.2627053000033,427.27826880000066,428.2785868999781,428.2624032999156,0.6171844000928104,None,,,,,,,,,,,,,,,,,,,,,,,,,,,,,,,,,,,,,,,,,,,,,,,,,,,,,,,,,,,,,,,,,,,,,,,,,,,,,A_7,001,2024-11-28_13h32.31.371,untitled,2024.1.5,None,2024-11-28 13h32.45.696041 +0530,
square.png,stranger,1,M,,,,,,,,,30,3,123,0,,,,,,,,,428.2785868999781,,,,,,,,,,,,,,,,,,,,,,,,,,,,,,,,,,,,,,,,,,,,,,,,,,,,,,,,,,,,428.26274889998604,428.2785868999781,428.76231549994554,428.76231549994554,428.76231549994554,428.76231549994554,428.77900949993636,429.0621802000096,429.0621802000096,429.0621802000096,,429.3134335000068,m,429.31392240000423,429.3290721999947,430.3297106999671,430.3133566000033,0.5470077000791207,None,,,,,,,,,,,,,,,,,,,,,,,,,,,,,,,,,,,,,,,,,,,,,,,,,,,,,,,,,,,,,,,,,,,,,,,,,,,,,A_7,001,2024-11-28_13h32.31.371,untitled,2024.1.5,None,2024-11-28 13h32.45.696041 +0530,
square.png,you,0,Z,,,,,,,,,31,0,124,2,,,,,,,,,430.3297106999671,,,,,,,,,,,,,,,,,,,,,,,,,,,,,,,,,,,,,,,,,,,,,,,,,,,,,,,,,,,,430.3137480999576,430.3297106999671,430.81367760000285,430.81367760000285,430.81367760000285,430.81367760000285,430.8299499999266,431.1133977000136,431.1133977000136,431.1133977000136,,431.4306358000031,z,431.43106380000245,431.4468110000016,432.4473206999246,432.43086039996706,0.604424100019969,None,,,,,,,,,,,,,,,,,,,,,,,,,,,,,,,,,,,,,,,,,,,,,,,,,,,,,,,,,,,,,,,,,,,,,,,,,,,,,A_7,001,2024-11-28_13h32.31.371,untitled,2024.1.5,None,2024-11-28 13h32.45.696041 +0530,
triangle.png,you,1,M,,,,,,,,,31,1,125,1,,,,,,,,,432.4473206999246,,,,,,,,,,,,,,,,,,,,,,,,,,,,,,,,,,,,,,,,,,,,,,,,,,,,,,,,,,,,432.43120889994316,432.4473206999246,432.9312905999832,432.9312905999832,432.9312905999832,432.9312905999832,432.9475638999138,433.2310805999441,433.2310805999441,433.2310805999441,,433.56531149998773,m,433.565736599965,433.5813379000174,434.5818912999239,434.5653921000194,0.6266489999834448,None,,,,,,,,,,,,,,,,,,,,,,,,,,,,,,,,,,,,,,,,,,,,,,,,,,,,,,,,,,,,,,,,,,,,,,,,,,,,,A_7,001,2024-11-28_13h32.31.371,untitled,2024.1.5,None,2024-11-28 13h32.45.696041 +0530,
triangle.png,stranger,0,Z,,,,,,,,,31,2,126,3,,,,,,,,,434.5818912999239,,,,,,,,,,,,,,,,,,,,,,,,,,,,,,,,,,,,,,,,,,,,,,,,,,,,,,,,,,,,434.56573889998253,434.5818912999239,435.065448999987,435.065448999987,435.065448999987,435.065448999987,435.08205550001003,435.3654216999421,435.3654216999421,435.3654216999421,,435.4993655999424,z,435.4997945999494,435.51570280001033,436.5161059999373,436.49986709991936,0.4327428999822587,None,,,,,,,,,,,,,,,,,,,,,,,,,,,,,,,,,,,,,,,,,,,,,,,,,,,,,,,,,,,,,,,,,,,,,,,,,,,,,A_7,001,2024-11-28_13h32.31.371,untitled,2024.1.5,None,2024-11-28 13h32.45.696041 +0530,
square.png,stranger,1,M,,,,,,,,,31,3,127,0,,,,,,,,,436.5161059999373,,,,,,,,,,,,,,,,,,,,,,,,,,,,,,,,,,,,,,,,,,,,,,,,,,,,,,,,,,,,436.5002178000286,436.5161059999373,436.99995690002106,436.99995690002106,436.99995690002106,436.99995690002106,437.0166243999265,437.29987089999486,437.29987089999486,437.29987089999486,,437.43380989995785,m,437.4342471000273,437.4499134999933,438.4503915000241,438.4340876999777,0.42270979995373636,None,,,,,,,,,,,,,,,,,,,,,,,,,,,,,,,,,,,,,,,,,,,,,,,,,,,,,,,,,,,,,,,,,,,,,,,,,,,,,A_7,001,2024-11-28_13h32.31.371,untitled,2024.1.5,None,2024-11-28 13h32.45.696041 +0530,
triangle.png,you,1,M,,,,,,,,,32,0,128,1,,,,,,,,,438.4503915000241,,,,,,,,,,,,,,,,,,,,,,,,,,,,,,,,,,,,,,,,,,,,,,,,,,,,,,,,,,,,438.4344374999637,438.4503915000241,438.93431779998355,438.93431779998355,438.93431779998355,438.93431779998355,438.9509428999154,439.2340242000064,439.2340242000064,439.2340242000064,,439.31863009999506,m,439.3191165999742,439.3343352000229,440.3347033999162,440.31851889996324,0.37566669995430857,None,,,,,,,,,,,,,,,,,,,,,,,,,,,,,,,,,,,,,,,,,,,,,,,,,,,,,,,,,,,,,,,,,,,,,,,,,,,,,A_7,001,2024-11-28_13h32.31.371,untitled,2024.1.5,None,2024-11-28 13h32.45.696041 +0530,
square.png,you,0,Z,,,,,,,,,32,1,129,2,,,,,,,,,440.3347033999162,,,,,,,,,,,,,,,,,,,,,,,,,,,,,,,,,,,,,,,,,,,,,,,,,,,,,,,,,,,,440.3188769000117,440.3347033999162,440.8183112000115,440.8183112000115,440.8183112000115,440.8183112000115,440.8349290000042,441.118443400017,441.118443400017,441.118443400017,,441.38588810001966,z,441.3863143000053,441.4019406000152,442.40253690001555,442.38619520002976,0.5557179999304935,None,,,,,,,,,,,,,,,,,,,,,,,,,,,,,,,,,,,,,,,,,,,,,,,,,,,,,,,,,,,,,,,,,,,,,,,,,,,,,A_7,001,2024-11-28_13h32.31.371,untitled,2024.1.5,None,2024-11-28 13h32.45.696041 +0530,
square.png,stranger,1,M,,,,,,,,,32,2,130,0,,,,,,,,,442.40253690001555,,,,,,,,,,,,,,,,,,,,,,,,,,,,,,,,,,,,,,,,,,,,,,,,,,,,,,,,,,,,442.3865394999739,442.40253690001555,442.88637580000795,442.88637580000795,442.88637580000795,442.88637580000795,442.9026896000141,443.18620569992345,443.18620569992345,443.18620569992345,,443.3535932999803,m,443.35401070001535,443.3694914999651,444.37004009995144,444.35393230000045,0.4627707999898121,None,,,,,,,,,,,,,,,,,,,,,,,,,,,,,,,,,,,,,,,,,,,,,,,,,,,,,,,,,,,,,,,,,,,,,,,,,,,,,A_7,001,2024-11-28_13h32.31.371,untitled,2024.1.5,None,2024-11-28 13h32.45.696041 +0530,
triangle.png,stranger,0,Z,,,,,,,,,32,3,131,3,,,,,,,,,444.37004009995144,,,,,,,,,,,,,,,,,,,,,,,,,,,,,,,,,,,,,,,,,,,,,,,,,,,,,,,,,,,,444.3542793999659,444.37004009995144,444.8539753999794,444.8539753999794,444.8539753999794,444.8539753999794,444.870358999935,445.1536850000266,445.1536850000266,445.1536850000266,,445.371455400018,z,445.37187879998237,445.38742209994234,446.38774129992817,446.37157560000196,0.512028899975121,None,,,,,,,,,,,,,,,,,,,,,,,,,,,,,,,,,,,,,,,,,,,,,,,,,,,,,,,,,,,,,,,,,,,,,,,,,,,,,A_7,001,2024-11-28_13h32.31.371,untitled,2024.1.5,None,2024-11-28 13h32.45.696041 +0530,
triangle.png,you,1,M,,,,,,,,,33,0,132,1,,,,,,,,,446.38774129992817,,,,,,,,,,,,,,,,,,,,,,,,,,,,,,,,,,,,,,,,,,,,,,,,,,,,,,,,,,,,446.37194629991427,446.38774129992817,446.87182919995394,446.87182919995394,446.87182919995394,446.87182919995394,446.888048099936,447.17164690000936,447.17164690000936,447.17164690000936,,447.42240259994287,m,447.4228511999827,447.43815499998163,448.4390341999242,448.4225458999863,0.5497371000237763,None,,,,,,,,,,,,,,,,,,,,,,,,,,,,,,,,,,,,,,,,,,,,,,,,,,,,,,,,,,,,,,,,,,,,,,,,,,,,,A_7,001,2024-11-28_13h32.31.371,untitled,2024.1.5,None,2024-11-28 13h32.45.696041 +0530,
triangle.png,stranger,0,Z,,,,,,,,,33,1,133,3,,,,,,,,,448.4390341999242,,,,,,,,,,,,,,,,,,,,,,,,,,,,,,,,,,,,,,,,,,,,,,,,,,,,,,,,,,,,448.42289009992965,448.4390341999242,448.92250069999136,448.92250069999136,448.92250069999136,448.92250069999136,448.9392967999447,449.22262170002796,449.22262170002796,449.22262170002796,,449.3901952999877,z,449.3906136000296,449.4059226999525,450.4065413000062,450.3902973999502,0.4554417999461293,None,,,,,,,,,,,,,,,,,,,,,,,,,,,,,,,,,,,,,,,,,,,,,,,,,,,,,,,,,,,,,,,,,,,,,,,,,,,,,A_7,001,2024-11-28_13h32.31.371,untitled,2024.1.5,None,2024-11-28 13h32.45.696041 +0530,
square.png,stranger,1,M,,,,,,,,,33,2,134,0,,,,,,,,,450.4065413000062,,,,,,,,,,,,,,,,,,,,,,,,,,,,,,,,,,,,,,,,,,,,,,,,,,,,,,,,,,,,450.39064629992936,450.4065413000062,450.89035499992315,450.89035499992315,450.89035499992315,450.89035499992315,450.90704439999536,451.190409099916,451.190409099916,451.190409099916,,451.52444820001256,m,451.5248757000081,451.54066699999385,452.5408858000301,452.52472969994415,0.6308308999286965,None,,,,,,,,,,,,,,,,,,,,,,,,,,,,,,,,,,,,,,,,,,,,,,,,,,,,,,,,,,,,,,,,,,,,,,,,,,,,,A_7,001,2024-11-28_13h32.31.371,untitled,2024.1.5,None,2024-11-28 13h32.45.696041 +0530,
square.png,you,0,Z,,,,,,,,,33,3,135,2,,,,,,,,,452.5408858000301,,,,,,,,,,,,,,,,,,,,,,,,,,,,,,,,,,,,,,,,,,,,,,,,,,,,,,,,,,,,452.52508079994004,452.5408858000301,453.0248417999828,453.0248417999828,453.0248417999828,453.0248417999828,453.0414787000045,453.32463149994146,453.32463149994146,453.32463149994146,,453.4585923999548,m,453.45901939994656,453.4747078999644,454.4752013999969,454.45905379997566,0.4324423000216484,None,,,,,,,,,,,,,,,,,,,,,,,,,,,,,,,,,,,,,,,,,,,,,,,,,,,,,,,,,,,,,,,,,,,,,,,,,,,,,A_7,001,2024-11-28_13h32.31.371,untitled,2024.1.5,None,2024-11-28 13h32.45.696041 +0530,
triangle.png,you,1,M,,,,,,,,,34,0,136,1,,,,,,,,,454.4752013999969,,,,,,,,,,,,,,,,,,,,,,,,,,,,,,,,,,,,,,,,,,,,,,,,,,,,,,,,,,,,454.45940339996014,454.4752013999969,454.958967100014,454.958967100014,454.958967100014,454.958967100014,454.97567419998813,455.2590836000163,455.2590836000163,455.2590836000163,,455.4598287999397,z,455.46026049996726,455.47577020002063,456.47617629996967,456.46009700000286,0.48728639993350953,None,,,,,,,,,,,,,,,,,,,,,,,,,,,,,,,,,,,,,,,,,,,,,,,,,,,,,,,,,,,,,,,,,,,,,,,,,,,,,A_7,001,2024-11-28_13h32.31.371,untitled,2024.1.5,None,2024-11-28 13h32.45.696041 +0530,
square.png,you,0,Z,,,,,,,,,34,1,137,2,,,,,,,,,456.47617629996967,,,,,,,,,,,,,,,,,,,,,,,,,,,,,,,,,,,,,,,,,,,,,,,,,,,,,,,,,,,,456.46045329992194,456.47617629996967,456.9599084999645,456.9599084999645,456.9599084999645,456.9599084999645,456.9767142999917,457.2598492000252,457.2598492000252,457.2598492000252,,457.61090289999265,z,457.6113223999273,457.6270387999248,458.62750349997077,458.6111511000199,0.6493924000533298,None,,,,,,,,,,,,,,,,,,,,,,,,,,,,,,,,,,,,,,,,,,,,,,,,,,,,,,,,,,,,,,,,,,,,,,,,,,,,,A_7,001,2024-11-28_13h32.31.371,untitled,2024.1.5,None,2024-11-28 13h32.45.696041 +0530,
square.png,stranger,1,M,,,,,,,,,34,2,138,0,,,,,,,,,458.62750349997077,,,,,,,,,,,,,,,,,,,,,,,,,,,,,,,,,,,,,,,,,,,,,,,,,,,,,,,,,,,,458.61149669997394,458.62750349997077,459.11132050002925,459.11132050002925,459.11132050002925,459.11132050002925,459.12768279993907,459.4111996999709,459.4111996999709,459.4111996999709,,459.62840940000024,m,459.6288547000149,459.64427449996583,460.6452346999431,460.62883449997753,0.5108387999935076,None,,,,,,,,,,,,,,,,,,,,,,,,,,,,,,,,,,,,,,,,,,,,,,,,,,,,,,,,,,,,,,,,,,,,,,,,,,,,,A_7,001,2024-11-28_13h32.31.371,untitled,2024.1.5,None,2024-11-28 13h32.45.696041 +0530,
