stimulus,label,is_match,shouldpress,stimulus_2,label_2,is_match_2,shouldpress_2,p_trials.thisRepN,p_trials.thisTrialN,p_trials.thisN,p_trials.thisIndex,trials.thisRepN,trials.thisTrialN,trials.thisN,trials.thisIndex,p_trials_2.thisRepN,p_trials_2.thisTrialN,p_trials_2.thisN,p_trials_2.thisIndex,trials_2.thisRepN,trials_2.thisTrialN,trials_2.thisN,trials_2.thisIndex,thisRow.t,notes,Intruduction.started,text_3.started,key_resp_2.started,Intruduction.stopped,key_resp_2.keys,key_resp_2.rt,key_resp_2.duration,self_other_instructions.started,text_4.started,key_resp_3.started,self_other_instructions.stopped,key_resp_3.keys,key_resp_3.rt,key_resp_3.duration,self_other_info.started,square_image.started,triangle_image.started,self_label.started,other_label.started,key_resp_4.started,text_5.started,self_other_info.stopped,key_resp_4.keys,key_resp_4.rt,key_resp_4.duration,self_other_starting_2.started,text_6.started,key_resp_5.started,self_other_starting_2.stopped,key_resp_5.keys,key_resp_5.rt,key_resp_5.duration,practice1.started,p_fication.started,p_fixation_3.started,p_text.started,key_resp_p.started,p_image.started,p_fication.stopped,p_fixation_3.stopped,p_text.stopped,p_image.stopped,key_resp_p.stopped,practice1.stopped,key_resp_p.keys,p_feedback.started,text_15.started,p_feedback.stopped,text_15.stopped,key_resp_p.rt,key_resp_p.duration,start2.started,start_2.started,key_resp_11.started,start2.stopped,key_resp_11.keys,key_resp_11.rt,key_resp_11.duration,trial.started,fixation.started,fixation_3.started,text.started,key_resp.started,image.started,fixation.stopped,fixation_3.stopped,text.stopped,image.stopped,trial.stopped,key_resp.keys,key_resp.rt,key_resp.duration,feedback.started,text_2.started,text_2.stopped,feedback.stopped,key_resp.stopped,break_3.started,text_13.started,text_13.stopped,text_14.started,key_resp_10.started,break_3.stopped,key_resp_10.keys,key_resp_10.rt,key_resp_10.duration,self_other_instructions_2.started,text_10.started,key_resp_7.started,self_other_instructions_2.stopped,key_resp_7.keys,key_resp_7.rt,key_resp_7.duration,self_other_intro_2.started,circle_image.started,diamond_image.started,Disgusting_self_lable.started,Desirable_self_lable.started,key_resp_8.started,text_11.started,self_other_intro_2.stopped,key_resp_8.keys,key_resp_8.rt,key_resp_8.duration,self_other_starting_3.started,text_12.started,key_resp_9.started,self_other_starting_3.stopped,key_resp_9.keys,key_resp_9.rt,key_resp_9.duration,practice2.started,p_fixation_2.started,p_fixation_2.stopped,p_fixation_4.started,p_text_8.started,key_resp_6_p.started,p_image_2.started,p_fixation_4.stopped,p_text_8.stopped,p_image_2.stopped,practice2.stopped,key_resp_6_p.keys,key_resp_6_p.rt,key_resp_6_p.duration,feedback_2_p.started,text_16.started,text_16.stopped,feedback_2_p.stopped,key_resp_6_p.stopped,trial_2.started,fixation_2.started,fixation_4.started,text_8.started,key_resp_6.started,image_2.started,fixation_2.stopped,fixation_4.stopped,text_8.stopped,image_2.stopped,trial_2.stopped,key_resp_6.keys,key_resp_6.rt,key_resp_6.duration,feedback_2.started,text_9.started,text_9.stopped,feedback_2.stopped,key_resp_6.stopped,Thank_you.started,text_7.started,text_7.stopped,Thank_you.stopped,participant,session,date,expName,psychopyVersion,frameRate,expStart,
,,,,,,,,,,,,,,,,,,,,,,,,,,0.0026916000060737133,0.006471400032751262,0.006471400032751262,7.7795143000548705,space,7.760191000066698,None,,,,,,,,,,,,,,,,,,,,,,,,,,,,,,,,,,,,,,,,,,,,,,,,,,,,,,,,,,,,,,,,,,,,,,,,,,,,,,,,,,,,,,,,,,,,,,,,,,,,,,,,,,,,,,,,,,,,,,,,,,,,,,,,,,,,,,,,,,,,,,,,,,,A_8,001,2024-11-28_16h17.01.820,untitled,2024.1.5,None,2024-11-28 16h17.13.192701 +0530,
,,,,,,,,,,,,,,,,,,,,,,,,,,,,,,,,,7.7795378000009805,7.79342080000788,7.79342080000788,23.869441300048493,space,16.072896800003946,None,,,,,,,,,,,,,,,,,,,,,,,,,,,,,,,,,,,,,,,,,,,,,,,,,,,,,,,,,,,,,,,,,,,,,,,,,,,,,,,,,,,,,,,,,,,,,,,,,,,,,,,,,,,,,,,,,,,,,,,,,,,,,,,,,,,,,,,,,,,,A_8,001,2024-11-28_16h17.01.820,untitled,2024.1.5,None,2024-11-28 16h17.13.192701 +0530,
,,,,,,,,,,,,,,,,,,,,,,,,,,,,,,,,,,,,,,,,23.869467100012116,23.902407300076447,23.902407300076447,23.902407300076447,23.902407300076447,23.902407300076447,23.902407300076447,85.63355390005745,space,61.72408119996544,None,,,,,,,,,,,,,,,,,,,,,,,,,,,,,,,,,,,,,,,,,,,,,,,,,,,,,,,,,,,,,,,,,,,,,,,,,,,,,,,,,,,,,,,,,,,,,,,,,,,,,,,,,,,,,,,,,,,,,,,,,,,,,,,,,A_8,001,2024-11-28_16h17.01.820,untitled,2024.1.5,None,2024-11-28 16h17.13.192701 +0530,
,,,,,,,,,,,,,,,,,,,,,,,,,,,,,,,,,,,,,,,,,,,,,,,,,,,85.63358210003935,85.64948130003177,85.64948130003177,97.93983869999647,space,12.281270700041205,None,,,,,,,,,,,,,,,,,,,,,,,,,,,,,,,,,,,,,,,,,,,,,,,,,,,,,,,,,,,,,,,,,,,,,,,,,,,,,,,,,,,,,,,,,,,,,,,,,,,,,,,,,,,,,,,,,,,,,,,,,,A_8,001,2024-11-28_16h17.01.820,untitled,2024.1.5,None,2024-11-28 16h17.13.192701 +0530,
triangle.png,stranger,0,Z,,,,,0,0,0,3,,,,,,,,,,,,,97.9572750000516,,,,,,,,,,,,,,,,,,,,,,,,,,,,,,,,,,97.94596340006683,97.9572750000516,98.45593500009272,98.45593500009272,98.45593500009272,98.45593500009272,98.47222900006454,98.75580640009139,98.75580640009139,98.75580640009139,99.55592690000776,99.53977140004281,None,99.53997640009038,99.55592690000776,100.54028220009059,,,,,,,,,,,,,,,,,,,,,,,,,,,,,,,,,,,,,,,,,,,,,,,,,,,,,,,,,,,,,,,,,,,,,,,,,,,,,,,,,,,,,,,,,,,,,,,,,,,,,,,,,,A_8,001,2024-11-28_16h17.01.820,untitled,2024.1.5,None,2024-11-28 16h17.13.192701 +0530,
triangle.png,you,1,M,,,,,0,1,1,1,,,,,,,,,,,,,100.55653430009261,,,,,,,,,,,,,,,,,,,,,,,,,,,,,,,,,,100.540559999994,100.55653430009261,101.04018890007865,101.04018890007865,101.04018890007865,101.04018890007865,101.05706040002406,101.34050390007906,101.34050390007906,101.34050390007906,102.14086840010714,102.12447860010434,None,102.12460920005105,102.14086840010714,103.12492319999728,103.14117700001225,,,,,,,,,,,,,,,,,,,,,,,,,,,,,,,,,,,,,,,,,,,,,,,,,,,,,,,,,,,,,,,,,,,,,,,,,,,,,,,,,,,,,,,,,,,,,,,,,,,,,,,,,A_8,001,2024-11-28_16h17.01.820,untitled,2024.1.5,None,2024-11-28 16h17.13.192701 +0530,
square.png,stranger,1,M,,,,,0,2,2,0,,,,,,,,,,,,,103.14117700001225,,,,,,,,,,,,,,,,,,,,,,,,,,,,,,,,,,103.12515440001152,103.14117700001225,103.64154590002727,103.64154590002727,103.64154590002727,103.64154590002727,103.64154590002727,,,,,103.65918290009722,m,103.65950650000013,103.67474470008165,104.6590541000478,104.67543370008934,0.004512000014074147,None,,,,,,,,,,,,,,,,,,,,,,,,,,,,,,,,,,,,,,,,,,,,,,,,,,,,,,,,,,,,,,,,,,,,,,,,,,,,,,,,,,,,,,,,,,,,,,,,,,,,,,,A_8,001,2024-11-28_16h17.01.820,untitled,2024.1.5,None,2024-11-28 16h17.13.192701 +0530,
square.png,you,0,Z,,,,,0,3,3,2,,,,,,,,,,,,,104.67543370008934,,,,,,,,,,,,,,,,,,,,,,,,,,,,,,,,,,104.6592898000963,104.67543370008934,105.15926840004977,105.15926840004977,105.15926840004977,105.15926840004977,105.17582540004514,105.45907370001078,105.45907370001078,105.45907370001078,106.25945980008692,106.24344780005049,None,106.2435778999934,106.25945980008692,107.2437888000859,107.26019990001805,,,,,,,,,,,,,,,,,,,,,,,,,,,,,,,,,,,,,,,,,,,,,,,,,,,,,,,,,,,,,,,,,,,,,,,,,,,,,,,,,,,,,,,,,,,,,,,,,,,,,,,,,A_8,001,2024-11-28_16h17.01.820,untitled,2024.1.5,None,2024-11-28 16h17.13.192701 +0530,
square.png,stranger,1,M,,,,,1,0,4,0,,,,,,,,,,,,,107.26019990001805,,,,,,,,,,,,,,,,,,,,,,,,,,,,,,,,,,107.24401960009709,107.26019990001805,107.76036890002433,107.76036890002433,107.76036890002433,107.76036890002433,107.76036890002433,108.06057230010629,108.06057230010629,108.06057230010629,108.8608116999967,108.84467300004326,None,108.84480350010563,108.8608116999967,109.84513900009915,109.86134040006436,,,,,,,,,,,,,,,,,,,,,,,,,,,,,,,,,,,,,,,,,,,,,,,,,,,,,,,,,,,,,,,,,,,,,,,,,,,,,,,,,,,,,,,,,,,,,,,,,,,,,,,,,A_8,001,2024-11-28_16h17.01.820,untitled,2024.1.5,None,2024-11-28 16h17.13.192701 +0530,
square.png,you,0,Z,,,,,1,1,5,2,,,,,,,,,,,,,109.86134040006436,,,,,,,,,,,,,,,,,,,,,,,,,,,,,,,,,,109.8453694001073,109.86134040006436,110.36169550009072,110.36169550009072,110.36169550009072,110.36169550009072,110.36169550009072,110.66193950001616,110.66193950001616,110.66193950001616,,110.74596329999622,z,110.74620650010183,110.76174920005724,111.74618590006139,111.76255200000014,0.3770681999158114,None,,,,,,,,,,,,,,,,,,,,,,,,,,,,,,,,,,,,,,,,,,,,,,,,,,,,,,,,,,,,,,,,,,,,,,,,,,,,,,,,,,,,,,,,,,,,,,,,,,,,,,,A_8,001,2024-11-28_16h17.01.820,untitled,2024.1.5,None,2024-11-28 16h17.13.192701 +0530,
triangle.png,stranger,0,Z,,,,,1,2,6,3,,,,,,,,,,,,,111.76255200000014,,,,,,,,,,,,,,,,,,,,,,,,,,,,,,,,,,111.74641950009391,111.76255200000014,112.24616330000572,112.24616330000572,112.24616330000572,112.24616330000572,112.26268310006708,112.5461286000209,112.5461286000209,112.5461286000209,113.34672370005865,113.33032710000407,None,113.33045980008319,113.34672370005865,114.33076919999439,114.34702190000098,,,,,,,,,,,,,,,,,,,,,,,,,,,,,,,,,,,,,,,,,,,,,,,,,,,,,,,,,,,,,,,,,,,,,,,,,,,,,,,,,,,,,,,,,,,,,,,,,,,,,,,,,A_8,001,2024-11-28_16h17.01.820,untitled,2024.1.5,None,2024-11-28 16h17.13.192701 +0530,
triangle.png,you,1,M,,,,,1,3,7,1,,,,,,,,,,,,,114.34702190000098,,,,,,,,,,,,,,,,,,,,,,,,,,,,,,,,,,114.33100770006422,114.34702190000098,114.84733420005068,114.84733420005068,114.84733420005068,114.84733420005068,114.84733420005068,115.14755560003687,115.14755560003687,115.14755560003687,,115.28097790002357,m,115.28122110001277,115.2971793001052,116.28151290002279,,0.42243080004118383,None,,,,,,,,,,,,,,,,,,,,,,,,,,,,,,,,,,,,,,,,,,,,,,,,,,,,,,,,,,,,,,,,,,,,,,,,,,,,,,,,,,,,,,,,,,,,,,,,,,,,,,,A_8,001,2024-11-28_16h17.01.820,untitled,2024.1.5,None,2024-11-28 16h17.13.192701 +0530,
square.png,you,0,Z,,,,,2,0,8,2,,,,,,,,,,,,,116.29810610006098,,,,,,,,,,,,,,,,,,,,,,,,,,,,,,,,,,116.28175900003407,116.29810610006098,116.78179480007384,116.78179480007384,116.78179480007384,116.78179480007384,116.79831310000736,117.08162160008214,117.08162160008214,117.08162160008214,,117.16596270003356,z,117.16620850004256,117.1820008000359,118.16617560002487,118.18234630010556,0.3809854999417439,None,,,,,,,,,,,,,,,,,,,,,,,,,,,,,,,,,,,,,,,,,,,,,,,,,,,,,,,,,,,,,,,,,,,,,,,,,,,,,,,,,,,,,,,,,,,,,,,,,,,,,,,A_8,001,2024-11-28_16h17.01.820,untitled,2024.1.5,None,2024-11-28 16h17.13.192701 +0530,
square.png,stranger,1,M,,,,,2,1,9,0,,,,,,,,,,,,,118.18234630010556,,,,,,,,,,,,,,,,,,,,,,,,,,,,,,,,,,118.16640460002236,118.18234630010556,118.66602680005599,118.66602680005599,118.66602680005599,118.66602680005599,118.68280770001002,118.96621990005951,118.96621990005951,118.96621990005951,,119.11673870007508,m,119.11698809999507,119.13283170002978,120.1172056000214,120.13350380002521,0.43616990000009537,None,,,,,,,,,,,,,,,,,,,,,,,,,,,,,,,,,,,,,,,,,,,,,,,,,,,,,,,,,,,,,,,,,,,,,,,,,,,,,,,,,,,,,,,,,,,,,,,,,,,,,,,A_8,001,2024-11-28_16h17.01.820,untitled,2024.1.5,None,2024-11-28 16h17.13.192701 +0530,
triangle.png,you,1,M,,,,,2,2,10,1,,,,,,,,,,,,,120.13350380002521,,,,,,,,,,,,,,,,,,,,,,,,,,,,,,,,,,120.1174434000859,120.13350380002521,120.61723170010373,120.61723170010373,120.61723170010373,120.61723170010373,120.63380330009386,120.91689800005406,120.91689800005406,120.91689800005406,,121.05127270007506,z,121.05152070010081,121.0671589000849,122.05156050005462,122.06788330001291,0.42153159994632006,None,,,,,,,,,,,,,,,,,,,,,,,,,,,,,,,,,,,,,,,,,,,,,,,,,,,,,,,,,,,,,,,,,,,,,,,,,,,,,,,,,,,,,,,,,,,,,,,,,,,,,,,A_8,001,2024-11-28_16h17.01.820,untitled,2024.1.5,None,2024-11-28 16h17.13.192701 +0530,
triangle.png,stranger,0,Z,,,,,2,3,11,3,,,,,,,,,,,,,122.06788330001291,,,,,,,,,,,,,,,,,,,,,,,,,,,,,,,,,,122.05179640010465,122.06788330001291,122.55153130006511,122.55153130006511,122.55153130006511,122.55153130006511,122.56827430007979,122.85144520003814,122.85144520003814,122.85144520003814,123.65173330006655,123.635703500011,None,123.63583360007033,123.65173330006655,124.63612300006207,124.65252420003526,,,,,,,,,,,,,,,,,,,,,,,,,,,,,,,,,,,,,,,,,,,,,,,,,,,,,,,,,,,,,,,,,,,,,,,,,,,,,,,,,,,,,,,,,,,,,,,,,,,,,,,,,A_8,001,2024-11-28_16h17.01.820,untitled,2024.1.5,None,2024-11-28 16h17.13.192701 +0530,
triangle.png,stranger,0,Z,,,,,3,0,12,3,,,,,,,,,,,,,124.65252420003526,,,,,,,,,,,,,,,,,,,,,,,,,,,,,,,,,,124.63635530008469,124.65252420003526,125.1528933000518,125.1528933000518,125.1528933000518,125.1528933000518,125.1528933000518,125.45283429999836,125.45283429999836,125.45283429999836,126.25318100000732,126.23683639999945,None,126.23696780006867,126.25318100000732,127.23761330009438,127.25356990005821,,,,,,,,,,,,,,,,,,,,,,,,,,,,,,,,,,,,,,,,,,,,,,,,,,,,,,,,,,,,,,,,,,,,,,,,,,,,,,,,,,,,,,,,,,,,,,,,,,,,,,,,,A_8,001,2024-11-28_16h17.01.820,untitled,2024.1.5,None,2024-11-28 16h17.13.192701 +0530,
triangle.png,you,1,M,,,,,3,1,13,1,,,,,,,,,,,,,127.25356990005821,,,,,,,,,,,,,,,,,,,,,,,,,,,,,,,,,,127.23784390010405,127.25356990005821,127.75396920007188,127.75396920007188,127.75396920007188,127.75396920007188,127.75396920007188,128.05400540004484,128.05400540004484,128.05400540004484,,128.2216128000291,z,128.2218602000503,128.2375938000623,129.22183370008133,129.23810960003175,0.46474949992261827,None,,,,,,,,,,,,,,,,,,,,,,,,,,,,,,,,,,,,,,,,,,,,,,,,,,,,,,,,,,,,,,,,,,,,,,,,,,,,,,,,,,,,,,,,,,,,,,,,,,,,,,,A_8,001,2024-11-28_16h17.01.820,untitled,2024.1.5,None,2024-11-28 16h17.13.192701 +0530,
square.png,stranger,1,M,,,,,3,2,14,0,,,,,,,,,,,,,129.23810960003175,,,,,,,,,,,,,,,,,,,,,,,,,,,,,,,,,,129.22206770000048,129.23810960003175,129.7218573000282,129.7218573000282,129.7218573000282,129.7218573000282,129.73819010006264,130.0216502000112,130.0216502000112,130.0216502000112,,130.0893597000977,m,130.08960490010213,130.10519200004637,131.08930780005176,131.10578100010753,0.35684190003667027,None,,,,,,,,,,,,,,,,,,,,,,,,,,,,,,,,,,,,,,,,,,,,,,,,,,,,,,,,,,,,,,,,,,,,,,,,,,,,,,,,,,,,,,,,,,,,,,,,,,,,,,,A_8,001,2024-11-28_16h17.01.820,untitled,2024.1.5,None,2024-11-28 16h17.13.192701 +0530,
square.png,you,0,Z,,,,,3,3,15,2,,,,,,,,,,,,,131.10578100010753,,,,,,,,,,,,,,,,,,,,,,,,,,,,,,,,,,131.089539000066,131.10578100010753,131.58925399999134,131.58925399999134,131.58925399999134,131.58925399999134,131.6060315000359,131.88951710006222,131.88951710006222,131.88951710006222,,132.04041710007004,m,132.0406638000859,132.05597670003772,133.0405825000489,133.05678430001717,0.44880089990329,None,,,,,,,,,,,,,,,,,,,,,,,,,,,,,,,,,,,,,,,,,,,,,,,,,,,,,,,,,,,,,,,,,,,,,,,,,,,,,,,,,,,,,,,,,,,,,,,,,,,,,,,A_8,001,2024-11-28_16h17.01.820,untitled,2024.1.5,None,2024-11-28 16h17.13.192701 +0530,
triangle.png,you,1,M,,,,,4,0,16,1,,,,,,,,,,,,,133.05678430001717,,,,,,,,,,,,,,,,,,,,,,,,,,,,,,,,,,133.040818800102,133.05678430001717,133.54025790002197,133.54025790002197,133.54025790002197,133.54025790002197,133.5570388000924,133.84050230006687,133.84050230006687,133.84050230006687,,134.17469610006083,z,134.17494340008125,134.19050680007786,135.1748302000342,135.19119780010078,0.62631630001124,None,,,,,,,,,,,,,,,,,,,,,,,,,,,,,,,,,,,,,,,,,,,,,,,,,,,,,,,,,,,,,,,,,,,,,,,,,,,,,,,,,,,,,,,,,,,,,,,,,,,,,,,A_8,001,2024-11-28_16h17.01.820,untitled,2024.1.5,None,2024-11-28 16h17.13.192701 +0530,
square.png,stranger,1,M,,,,,4,1,17,0,,,,,,,,,,,,,135.19119780010078,,,,,,,,,,,,,,,,,,,,,,,,,,,,,,,,,,135.17505960003473,135.19119780010078,135.6750654000789,135.6750654000789,135.6750654000789,135.6750654000789,135.69134120002855,135.97477880003862,135.97477880003862,135.97477880003862,,136.04230040009134,m,136.04254789999686,136.05829180008732,137.04252570006065,137.05859460006468,0.3623426000121981,None,,,,,,,,,,,,,,,,,,,,,,,,,,,,,,,,,,,,,,,,,,,,,,,,,,,,,,,,,,,,,,,,,,,,,,,,,,,,,,,,,,,,,,,,,,,,,,,,,,,,,,,A_8,001,2024-11-28_16h17.01.820,untitled,2024.1.5,None,2024-11-28 16h17.13.192701 +0530,
square.png,you,0,Z,,,,,4,2,18,2,,,,,,,,,,,,,137.05859460006468,,,,,,,,,,,,,,,,,,,,,,,,,,,,,,,,,,137.0427610001061,137.05859460006468,137.54256220010575,137.54256220010575,137.54256220010575,137.54256220010575,137.55919150006957,137.84248130000196,137.84248130000196,137.84248130000196,,138.3933528000489,z,138.39359720004722,138.40953730000183,139.39382630004548,139.4098642000463,0.8475635999348015,None,,,,,,,,,,,,,,,,,,,,,,,,,,,,,,,,,,,,,,,,,,,,,,,,,,,,,,,,,,,,,,,,,,,,,,,,,,,,,,,,,,,,,,,,,,,,,,,,,,,,,,,A_8,001,2024-11-28_16h17.01.820,untitled,2024.1.5,None,2024-11-28 16h17.13.192701 +0530,
triangle.png,stranger,0,Z,,,,,4,3,19,3,,,,,,,,,,,,,139.4098642000463,,,,,,,,,,,,,,,,,,,,,,,,,,,,,,,,,,139.3940570000559,139.4098642000463,139.8937150000129,139.8937150000129,139.8937150000129,139.8937150000129,139.9103974000318,140.19361110008322,140.19361110008322,140.19361110008322,,140.82802030001767,m,140.82827090006322,140.84412690007593,141.82833680009935,141.84464590006974,0.9322879000101238,None,,,,,,,,,,,,,,,,,,,,,,,,,,,,,,,,,,,,,,,,,,,,,,,,,,,,,,,,,,,,,,,,,,,,,,,,,,,,,,,,,,,,,,,,,,,,,,,,,,,,,,,A_8,001,2024-11-28_16h17.01.820,untitled,2024.1.5,None,2024-11-28 16h17.13.192701 +0530,
,,,,,,,,,,,,,,,,,,,,,,,,,,,,,,,,,,,,,,,,,,,,,,,,,,,,,,,,,,,,,,,,,,,,,,,,,,,,,141.8283835001057,141.84464590006974,141.84464590006974,142.77893610007595,space,0.9181197000434622,None,,,,,,,,,,,,,,,,,,,,,,,,,,,,,,,,,,,,,,,,,,,,,,,,,,,,,,,,,,,,,,,,,,,,,,,,,,,,,,,,,,,,,,,,,,,,,,,,A_8,001,2024-11-28_16h17.01.820,untitled,2024.1.5,None,2024-11-28 16h17.13.192701 +0530,
square.png,you,0,Z,,,,,,,,,0,0,0,2,,,,,,,,,142.7952440000372,,,,,,,,,,,,,,,,,,,,,,,,,,,,,,,,,,,,,,,,,,,,,,,,,,,,,,,,,,,,142.78409640002064,142.7952440000372,143.27887550008018,143.27887550008018,143.27887550008018,143.27887550008018,143.29543590010144,143.5787744000554,143.5787744000554,143.5787744000554,144.09671880002134,z,0.815831399988383,None,144.0973960000556,144.1124070000369,145.1129840000067,145.09649750008248,,,,,,,,,,,,,,,,,,,,,,,,,,,,,,,,,,,,,,,,,,,,,,,,,,,,,,,,,,,,,,,,,,,,,,,,,,,,,,A_8,001,2024-11-28_16h17.01.820,untitled,2024.1.5,None,2024-11-28 16h17.13.192701 +0530,
triangle.png,you,1,M,,,,,,,,,0,1,1,1,,,,,,,,,145.1129840000067,,,,,,,,,,,,,,,,,,,,,,,,,,,,,,,,,,,,,,,,,,,,,,,,,,,,,,,,,,,,145.09685390000232,145.1129840000067,145.6133752000751,145.6133752000751,145.6133752000751,145.6133752000751,145.6133752000751,145.91312680009287,145.91312680009287,145.91312680009287,146.697572800098,None,,,146.69776230002753,146.71373680001125,,147.69783419999294,146.71373680001125,,,,,,,,,,,,,,,,,,,,,,,,,,,,,,,,,,,,,,,,,,,,,,,,,,,,,,,,,,,,,,,,,,,,,,,,,,,,,A_8,001,2024-11-28_16h17.01.820,untitled,2024.1.5,None,2024-11-28 16h17.13.192701 +0530,
triangle.png,stranger,0,Z,,,,,,,,,0,2,2,3,,,,,,,,,147.7140795000596,,,,,,,,,,,,,,,,,,,,,,,,,,,,,,,,,,,,,,,,,,,,,,,,,,,,,,,,,,,,147.69819720007945,147.7140795000596,148.19801870000083,148.19801870000083,148.19801870000083,148.19801870000083,148.21465790004004,148.4979400000302,148.4979400000302,148.4979400000302,148.83220390009228,z,0.6288875999161974,None,148.8326266000513,148.8482252000831,149.84848839999177,149.83247820008546,,,,,,,,,,,,,,,,,,,,,,,,,,,,,,,,,,,,,,,,,,,,,,,,,,,,,,,,,,,,,,,,,,,,,,,,,,,,,,A_8,001,2024-11-28_16h17.01.820,untitled,2024.1.5,None,2024-11-28 16h17.13.192701 +0530,
square.png,stranger,1,M,,,,,,,,,0,3,3,0,,,,,,,,,149.84848839999177,,,,,,,,,,,,,,,,,,,,,,,,,,,,,,,,,,,,,,,,,,,,,,,,,,,,,,,,,,,,149.83282980008516,149.84848839999177,150.33260389999487,150.33260389999487,150.33260389999487,150.33260389999487,150.34885850001592,150.63230810000096,150.63230810000096,150.63230810000096,150.68332680000458,m,0.34932839998509735,None,150.68374950008,150.6992374000838,151.69976320001297,151.68351870006882,,,,,,,,,,,,,,,,,,,,,,,,,,,,,,,,,,,,,,,,,,,,,,,,,,,,,,,,,,,,,,,,,,,,,,,,,,,,,,A_8,001,2024-11-28_16h17.01.820,untitled,2024.1.5,None,2024-11-28 16h17.13.192701 +0530,
triangle.png,stranger,0,Z,,,,,,,,,1,0,4,3,,,,,,,,,151.69976320001297,,,,,,,,,,,,,,,,,,,,,,,,,,,,,,,,,,,,,,,,,,,,,,,,,,,,,,,,,,,,151.68386820005253,151.69976320001297,152.183168400079,152.183168400079,152.183168400079,152.183168400079,152.20002330001444,152.48337130004074,152.48337130004074,152.48337130004074,152.58415300003253,z,0.3943383999867365,None,152.5845779000083,152.60007879999466,153.60050320008304,153.58429730008356,,,,,,,,,,,,,,,,,,,,,,,,,,,,,,,,,,,,,,,,,,,,,,,,,,,,,,,,,,,,,,,,,,,,,,,,,,,,,,A_8,001,2024-11-28_16h17.01.820,untitled,2024.1.5,None,2024-11-28 16h17.13.192701 +0530,
triangle.png,you,1,M,,,,,,,,,1,1,5,1,,,,,,,,,153.60050320008304,,,,,,,,,,,,,,,,,,,,,,,,,,,,,,,,,,,,,,,,,,,,,,,,,,,,,,,,,,,,153.58465540001635,153.60050320008304,154.0843947000103,154.0843947000103,154.0843947000103,154.0843947000103,154.10096440010238,154.38421130005736,154.38421130005736,154.38421130005736,154.41817449999508,m,0.3305498000700027,None,154.41860400000587,154.43433980003465,155.434942800086,155.4184469000902,,,,,,,,,,,,,,,,,,,,,,,,,,,,,,,,,,,,,,,,,,,,,,,,,,,,,,,,,,,,,,,,,,,,,,,,,,,,,,A_8,001,2024-11-28_16h17.01.820,untitled,2024.1.5,None,2024-11-28 16h17.13.192701 +0530,
square.png,stranger,1,M,,,,,,,,,1,2,6,0,,,,,,,,,155.434942800086,,,,,,,,,,,,,,,,,,,,,,,,,,,,,,,,,,,,,,,,,,,,,,,,,,,,,,,,,,,,155.41880169999786,155.434942800086,155.918619700009,155.918619700009,155.918619700009,155.918619700009,155.93506200006232,156.2185221000109,156.2185221000109,156.2185221000109,156.65292430005502,z,0.7196002000709996,None,156.65335030003916,156.66867290006485,157.66946870007087,157.65317850001156,,,,,,,,,,,,,,,,,,,,,,,,,,,,,,,,,,,,,,,,,,,,,,,,,,,,,,,,,,,,,,,,,,,,,,,,,,,,,,A_8,001,2024-11-28_16h17.01.820,untitled,2024.1.5,None,2024-11-28 16h17.13.192701 +0530,
square.png,you,0,Z,,,,,,,,,1,3,7,2,,,,,,,,,157.66946870007087,,,,,,,,,,,,,,,,,,,,,,,,,,,,,,,,,,,,,,,,,,,,,,,,,,,,,,,,,,,,157.65355920000002,157.66946870007087,158.15298600005917,158.15298600005917,158.15298600005917,158.15298600005917,158.16947670001537,158.45293470006436,158.45293470006436,158.45293470006436,158.48717500001658,m,0.3295899999793619,None,158.48760110000148,158.50314010004513,159.503486600006,159.48727100004908,,,,,,,,,,,,,,,,,,,,,,,,,,,,,,,,,,,,,,,,,,,,,,,,,,,,,,,,,,,,,,,,,,,,,,,,,,,,,,A_8,001,2024-11-28_16h17.01.820,untitled,2024.1.5,None,2024-11-28 16h17.13.192701 +0530,
square.png,you,0,Z,,,,,,,,,2,0,8,2,,,,,,,,,159.503486600006,,,,,,,,,,,,,,,,,,,,,,,,,,,,,,,,,,,,,,,,,,,,,,,,,,,,,,,,,,,,159.48763450002298,159.503486600006,159.9869077000767,159.9869077000767,159.9869077000767,159.9869077000767,160.00354649999645,160.28724370000418,160.28724370000418,160.28724370000418,160.37147970008664,z,0.3717770999064669,None,160.37190820008982,160.38726720004342,161.3877226000186,161.37156380002853,,,,,,,,,,,,,,,,,,,,,,,,,,,,,,,,,,,,,,,,,,,,,,,,,,,,,,,,,,,,,,,,,,,,,,,,,,,,,,A_8,001,2024-11-28_16h17.01.820,untitled,2024.1.5,None,2024-11-28 16h17.13.192701 +0530,
triangle.png,you,1,M,,,,,,,,,2,1,9,1,,,,,,,,,161.3877226000186,,,,,,,,,,,,,,,,,,,,,,,,,,,,,,,,,,,,,,,,,,,,,,,,,,,,,,,,,,,,161.37191980006173,161.3877226000186,161.87173950008582,161.87173950008582,161.87173950008582,161.87173950008582,161.88830930006225,162.17181920004077,162.17181920004077,162.17181920004077,162.30594410002232,m,0.4176521999761462,None,162.30636390007567,162.32161950005684,163.3221433000872,163.30602940008976,,,,,,,,,,,,,,,,,,,,,,,,,,,,,,,,,,,,,,,,,,,,,,,,,,,,,,,,,,,,,,,,,,,,,,,,,,,,,,A_8,001,2024-11-28_16h17.01.820,untitled,2024.1.5,None,2024-11-28 16h17.13.192701 +0530,
square.png,stranger,1,M,,,,,,,,,2,2,10,0,,,,,,,,,163.3221433000872,,,,,,,,,,,,,,,,,,,,,,,,,,,,,,,,,,,,,,,,,,,,,,,,,,,,,,,,,,,,163.3063806000864,163.3221433000872,163.8061236999929,163.8061236999929,163.8061236999929,163.8061236999929,163.82246450008824,164.1059120000573,164.1059120000573,164.1059120000573,164.09006980003323,z,0.27521809993777424,None,164.09049670002423,164.1059120000573,165.1065455999924,165.09008910006378,,,,,,,,,,,,,,,,,,,,,,,,,,,,,,,,,,,,,,,,,,,,,,,,,,,,,,,,,,,,,,,,,,,,,,,,,,,,,,A_8,001,2024-11-28_16h17.01.820,untitled,2024.1.5,None,2024-11-28 16h17.13.192701 +0530,
triangle.png,stranger,0,Z,,,,,,,,,2,3,11,3,,,,,,,,,165.1065455999924,,,,,,,,,,,,,,,,,,,,,,,,,,,,,,,,,,,,,,,,,,,,,,,,,,,,,,,,,,,,165.09043920005206,165.1065455999924,165.59024570009205,165.59024570009205,165.59024570009205,165.59024570009205,165.60692710010335,,,,165.8411604000721,m,0.24434279999695718,None,165.84158540004864,165.85705260001123,166.85727010003757,166.84105610009283,,,,,,,,,,,,,,,,,,,,,,,,,,,,,,,,,,,,,,,,,,,,,,,,,,,,,,,,,,,,,,,,,,,,,,,,,,,,,,A_8,001,2024-11-28_16h17.01.820,untitled,2024.1.5,None,2024-11-28 16h17.13.192701 +0530,
triangle.png,stranger,0,Z,,,,,,,,,3,0,12,3,,,,,,,,,166.85727010003757,,,,,,,,,,,,,,,,,,,,,,,,,,,,,,,,,,,,,,,,,,,,,,,,,,,,,,,,,,,,166.84143140004016,166.85727010003757,167.34120980009902,167.34120980009902,167.34120980009902,167.34120980009902,167.35764990001917,167.64102640002966,167.64102640002966,167.64102640002966,167.72515620000195,z,0.38017779996152967,None,167.72559550008737,167.7412708000047,168.74175480008125,168.72532120009419,,,,,,,,,,,,,,,,,,,,,,,,,,,,,,,,,,,,,,,,,,,,,,,,,,,,,,,,,,,,,,,,,,,,,,,,,,,,,,A_8,001,2024-11-28_16h17.01.820,untitled,2024.1.5,None,2024-11-28 16h17.13.192701 +0530,
square.png,you,0,Z,,,,,,,,,3,1,13,2,,,,,,,,,168.74175480008125,,,,,,,,,,,,,,,,,,,,,,,,,,,,,,,,,,,,,,,,,,,,,,,,,,,,,,,,,,,,168.72567260009237,168.74175480008125,169.2253386999946,169.2253386999946,169.2253386999946,169.2253386999946,169.2421016000444,169.52545860002283,169.52545860002283,169.52545860002283,169.85971750004683,m,0.6281631999881938,None,169.8601442000363,169.87544780003373,170.8761009000009,170.85972450010013,,,,,,,,,,,,,,,,,,,,,,,,,,,,,,,,,,,,,,,,,,,,,,,,,,,,,,,,,,,,,,,,,,,,,,,,,,,,,,A_8,001,2024-11-28_16h17.01.820,untitled,2024.1.5,None,2024-11-28 16h17.13.192701 +0530,
square.png,stranger,1,M,,,,,,,,,3,2,14,0,,,,,,,,,170.8761009000009,,,,,,,,,,,,,,,,,,,,,,,,,,,,,,,,,,,,,,,,,,,,,,,,,,,,,,,,,,,,170.86008500005119,170.8761009000009,171.35977910005022,171.35977910005022,171.35977910005022,171.35977910005022,171.37658230005763,171.6596889999928,171.6596889999928,171.6596889999928,171.7104260000633,z,0.3355618000496179,None,171.71085230004974,171.72666839999147,172.72688470000867,172.71066470001824,,,,,,,,,,,,,,,,,,,,,,,,,,,,,,,,,,,,,,,,,,,,,,,,,,,,,,,,,,,,,,,,,,,,,,,,,,,,,,A_8,001,2024-11-28_16h17.01.820,untitled,2024.1.5,None,2024-11-28 16h17.13.192701 +0530,
triangle.png,you,1,M,,,,,,,,,3,3,15,1,,,,,,,,,172.72688470000867,,,,,,,,,,,,,,,,,,,,,,,,,,,,,,,,,,,,,,,,,,,,,,,,,,,,,,,,,,,,172.71101550001185,172.72688470000867,173.21061960002407,173.21061960002407,173.21061960002407,173.21061960002407,173.22750959999394,173.51085730001796,173.51085730001796,173.51085730001796,173.54486660007387,m,0.32413740002084523,None,173.5452903000405,173.56073850009125,174.56124870001804,174.54513940005563,,,,,,,,,,,,,,,,,,,,,,,,,,,,,,,,,,,,,,,,,,,,,,,,,,,,,,,,,,,,,,,,,,,,,,,,,,,,,,A_8,001,2024-11-28_16h17.01.820,untitled,2024.1.5,None,2024-11-28 16h17.13.192701 +0530,
square.png,you,0,Z,,,,,,,,,4,0,16,2,,,,,,,,,174.56124870001804,,,,,,,,,,,,,,,,,,,,,,,,,,,,,,,,,,,,,,,,,,,,,,,,,,,,,,,,,,,,174.5454929000698,174.56124870001804,175.04507880005985,175.04507880005985,175.04507880005985,175.04507880005985,175.06154640007298,175.34507120004855,175.34507120004855,175.34507120004855,175.52929180010688,z,0.47358720004558563,None,175.52972079999745,175.54529530007858,176.5456629000837,176.52935500000603,,,,,,,,,,,,,,,,,,,,,,,,,,,,,,,,,,,,,,,,,,,,,,,,,,,,,,,,,,,,,,,,,,,,,,,,,,,,,,A_8,001,2024-11-28_16h17.01.820,untitled,2024.1.5,None,2024-11-28 16h17.13.192701 +0530,
triangle.png,stranger,0,Z,,,,,,,,,4,1,17,3,,,,,,,,,176.5456629000837,,,,,,,,,,,,,,,,,,,,,,,,,,,,,,,,,,,,,,,,,,,,,,,,,,,,,,,,,,,,176.52970450010616,176.5456629000837,177.02908660005778,177.02908660005778,177.02908660005778,177.02908660005778,177.04567700007465,,,,177.2803780999966,m,0.24937199999112636,None,177.28081290004775,177.29602390003856,178.29666810005438,178.2801640999969,,,,,,,,,,,,,,,,,,,,,,,,,,,,,,,,,,,,,,,,,,,,,,,,,,,,,,,,,,,,,,,,,,,,,,,,,,,,,,A_8,001,2024-11-28_16h17.01.820,untitled,2024.1.5,None,2024-11-28 16h17.13.192701 +0530,
square.png,stranger,1,M,,,,,,,,,4,2,18,0,,,,,,,,,178.29666810005438,,,,,,,,,,,,,,,,,,,,,,,,,,,,,,,,,,,,,,,,,,,,,,,,,,,,,,,,,,,,178.28052010003012,178.29666810005438,178.78030570002738,178.78030570002738,178.78030570002738,178.78030570002738,178.79703550005797,179.08039160002954,179.08039160002954,179.08039160002954,179.1975945000304,z,0.41381850000470877,None,179.19802070001606,179.21369430003688,180.21430570003577,180.19790150003973,,,,,,,,,,,,,,,,,,,,,,,,,,,,,,,,,,,,,,,,,,,,,,,,,,,,,,,,,,,,,,,,,,,,,,,,,,,,,,A_8,001,2024-11-28_16h17.01.820,untitled,2024.1.5,None,2024-11-28 16h17.13.192701 +0530,
triangle.png,you,1,M,,,,,,,,,4,3,19,1,,,,,,,,,180.21430570003577,,,,,,,,,,,,,,,,,,,,,,,,,,,,,,,,,,,,,,,,,,,,,,,,,,,,,,,,,,,,180.19825610006228,180.21430570003577,180.69783370010555,180.69783370010555,180.69783370010555,180.69783370010555,180.7144440000411,180.99796250008512,180.99796250008512,180.99796250008512,181.06535780010745,m,0.35196180001366884,None,181.06577530002687,181.0814310000278,182.0819987000432,182.0656955000013,,,,,,,,,,,,,,,,,,,,,,,,,,,,,,,,,,,,,,,,,,,,,,,,,,,,,,,,,,,,,,,,,,,,,,,,,,,,,,A_8,001,2024-11-28_16h17.01.820,untitled,2024.1.5,None,2024-11-28 16h17.13.192701 +0530,
square.png,stranger,1,M,,,,,,,,,5,0,20,0,,,,,,,,,182.0819987000432,,,,,,,,,,,,,,,,,,,,,,,,,,,,,,,,,,,,,,,,,,,,,,,,,,,,,,,,,,,,182.06605170003604,182.0819987000432,182.56541929999366,182.56541929999366,182.56541929999366,182.56541929999366,182.5821068000514,182.86541740002576,182.86541740002576,182.86541740002576,182.9665321999928,z,0.38566359994001687,None,182.96695970010478,182.98215250007343,183.9827559000114,183.96669220004696,,,,,,,,,,,,,,,,,,,,,,,,,,,,,,,,,,,,,,,,,,,,,,,,,,,,,,,,,,,,,,,,,,,,,,,,,,,,,,A_8,001,2024-11-28_16h17.01.820,untitled,2024.1.5,None,2024-11-28 16h17.13.192701 +0530,
triangle.png,stranger,0,Z,,,,,,,,,5,1,21,3,,,,,,,,,183.9827559000114,,,,,,,,,,,,,,,,,,,,,,,,,,,,,,,,,,,,,,,,,,,,,,,,,,,,,,,,,,,,183.96704520005733,183.9827559000114,184.46684200002346,184.46684200002346,184.46684200002346,184.46684200002346,184.48332260001916,184.7666165000992,184.7666165000992,184.7666165000992,185.28431340004317,z,0.8039364999858662,None,185.28473730001133,185.30007120000664,186.30062520003412,186.28468430007342,,,,,,,,,,,,,,,,,,,,,,,,,,,,,,,,,,,,,,,,,,,,,,,,,,,,,,,,,,,,,,,,,,,,,,,,,,,,,,A_8,001,2024-11-28_16h17.01.820,untitled,2024.1.5,None,2024-11-28 16h17.13.192701 +0530,
triangle.png,you,1,M,,,,,,,,,5,2,22,1,,,,,,,,,186.30062520003412,,,,,,,,,,,,,,,,,,,,,,,,,,,,,,,,,,,,,,,,,,,,,,,,,,,,,,,,,,,,186.28503550007008,186.30062520003412,186.78431610006373,186.78431610006373,186.78431610006373,186.78431610006373,186.80116660008207,187.0845288001001,187.0845288001001,187.0845288001001,187.28521800006274,m,0.49476639996282756,None,187.28565650002565,187.30099830008112,188.30156190006528,188.28554110007826,,,,,,,,,,,,,,,,,,,,,,,,,,,,,,,,,,,,,,,,,,,,,,,,,,,,,,,,,,,,,,,,,,,,,,,,,,,,,,A_8,001,2024-11-28_16h17.01.820,untitled,2024.1.5,None,2024-11-28 16h17.13.192701 +0530,
square.png,you,0,Z,,,,,,,,,5,3,23,2,,,,,,,,,188.30156190006528,,,,,,,,,,,,,,,,,,,,,,,,,,,,,,,,,,,,,,,,,,,,,,,,,,,,,,,,,,,,188.28589300008025,188.30156190006528,188.78529380005784,188.78529380005784,188.78529380005784,188.78529380005784,188.80211200006306,189.08566980005708,189.08566980005708,189.08566980005708,189.1193344000494,z,0.329026099992916,None,189.11975810001604,189.13556970003992,190.13600709999446,190.11982120003086,,,,,,,,,,,,,,,,,,,,,,,,,,,,,,,,,,,,,,,,,,,,,,,,,,,,,,,,,,,,,,,,,,,,,,,,,,,,,,A_8,001,2024-11-28_16h17.01.820,untitled,2024.1.5,None,2024-11-28 16h17.13.192701 +0530,
triangle.png,stranger,0,Z,,,,,,,,,6,0,24,3,,,,,,,,,190.13600709999446,,,,,,,,,,,,,,,,,,,,,,,,,,,,,,,,,,,,,,,,,,,,,,,,,,,,,,,,,,,,190.12017310003284,190.13600709999446,190.61988900008146,190.61988900008146,190.61988900008146,190.61988900008146,190.63619750004727,190.91970160009805,190.91970160009805,190.91970160009805,191.03732560004573,m,0.4110684000188485,None,191.0377508000238,191.0530609000707,192.05377280001994,192.03752590005752,,,,,,,,,,,,,,,,,,,,,,,,,,,,,,,,,,,,,,,,,,,,,,,,,,,,,,,,,,,,,,,,,,,,,,,,,,,,,,A_8,001,2024-11-28_16h17.01.820,untitled,2024.1.5,None,2024-11-28 16h17.13.192701 +0530,
square.png,stranger,1,M,,,,,,,,,6,1,25,0,,,,,,,,,192.05377280001994,,,,,,,,,,,,,,,,,,,,,,,,,,,,,,,,,,,,,,,,,,,,,,,,,,,,,,,,,,,,192.03787350002676,192.05377280001994,192.53739470010623,192.53739470010623,192.53739470010623,192.53739470010623,192.55404810002074,192.8374076000182,192.8374076000182,192.8374076000182,192.90464320010506,z,0.35612759995274246,None,192.90507560002152,192.92090730008204,193.9214277000865,193.90511410008185,,,,,,,,,,,,,,,,,,,,,,,,,,,,,,,,,,,,,,,,,,,,,,,,,,,,,,,,,,,,,,,,,,,,,,,,,,,,,,A_8,001,2024-11-28_16h17.01.820,untitled,2024.1.5,None,2024-11-28 16h17.13.192701 +0530,
triangle.png,you,1,M,,,,,,,,,6,2,26,1,,,,,,,,,193.9214277000865,,,,,,,,,,,,,,,,,,,,,,,,,,,,,,,,,,,,,,,,,,,,,,,,,,,,,,,,,,,,193.90546800009906,193.9214277000865,194.4051185999997,194.4051185999997,194.4051185999997,194.4051185999997,194.42177920008544,194.70486890000757,194.70486890000757,194.70486890000757,194.68925230007153,m,0.26900209998711944,None,194.689683200093,194.70486890000757,195.70576979999896,195.68946150003467,,,,,,,,,,,,,,,,,,,,,,,,,,,,,,,,,,,,,,,,,,,,,,,,,,,,,,,,,,,,,,,,,,,,,,,,,,,,,,A_8,001,2024-11-28_16h17.01.820,untitled,2024.1.5,None,2024-11-28 16h17.13.192701 +0530,
square.png,you,0,Z,,,,,,,,,6,3,27,2,,,,,,,,,195.70576979999896,,,,,,,,,,,,,,,,,,,,,,,,,,,,,,,,,,,,,,,,,,,,,,,,,,,,,,,,,,,,195.68981610005721,195.70576979999896,196.18926570005715,196.18926570005715,196.18926570005715,196.18926570005715,196.20592500001658,196.48938180005644,196.48938180005644,196.48938180005644,197.15696749999188,z,0.9644581000320613,None,197.157397700008,197.17295230005402,198.17369379999582,198.1573636000976,,,,,,,,,,,,,,,,,,,,,,,,,,,,,,,,,,,,,,,,,,,,,,,,,,,,,,,,,,,,,,,,,,,,,,,,,,,,,,A_8,001,2024-11-28_16h17.01.820,untitled,2024.1.5,None,2024-11-28 16h17.13.192701 +0530,
square.png,you,0,Z,,,,,,,,,7,0,28,2,,,,,,,,,198.17369379999582,,,,,,,,,,,,,,,,,,,,,,,,,,,,,,,,,,,,,,,,,,,,,,,,,,,,,,,,,,,,198.15772030001972,198.17369379999582,198.65725410007872,198.65725410007872,198.65725410007872,198.65725410007872,198.67358980001882,,,,198.92465770000126,m,0.26129569998010993,None,198.92509300005622,198.94069100008346,199.94094400003087,199.9247686000308,,,,,,,,,,,,,,,,,,,,,,,,,,,,,,,,,,,,,,,,,,,,,,,,,,,,,,,,,,,,,,,,,,,,,,,,,,,,,,A_8,001,2024-11-28_16h17.01.820,untitled,2024.1.5,None,2024-11-28 16h17.13.192701 +0530,
triangle.png,you,1,M,,,,,,,,,7,1,29,1,,,,,,,,,199.94094400003087,,,,,,,,,,,,,,,,,,,,,,,,,,,,,,,,,,,,,,,,,,,,,,,,,,,,,,,,,,,,199.92512710008305,199.94094400003087,200.42458400002215,200.42458400002215,200.42458400002215,200.42458400002215,200.44122090004385,,,,200.6754218999995,z,0.24601690005511045,None,200.6758516000118,200.69152570003644,201.69204029999673,201.67554560001008,,,,,,,,,,,,,,,,,,,,,,,,,,,,,,,,,,,,,,,,,,,,,,,,,,,,,,,,,,,,,,,,,,,,,,,,,,,,,,A_8,001,2024-11-28_16h17.01.820,untitled,2024.1.5,None,2024-11-28 16h17.13.192701 +0530,
triangle.png,stranger,0,Z,,,,,,,,,7,2,30,3,,,,,,,,,201.69204029999673,,,,,,,,,,,,,,,,,,,,,,,,,,,,,,,,,,,,,,,,,,,,,,,,,,,,,,,,,,,,201.67590200004634,201.69204029999673,202.17573270003777,202.17573270003777,202.17573270003777,202.17573270003777,202.19232930010185,,,,202.4430461000884,m,0.25356680003460497,None,202.44348740007263,202.45912210003007,203.4596304000588,203.44329300010577,,,,,,,,,,,,,,,,,,,,,,,,,,,,,,,,,,,,,,,,,,,,,,,,,,,,,,,,,,,,,,,,,,,,,,,,,,,,,,A_8,001,2024-11-28_16h17.01.820,untitled,2024.1.5,None,2024-11-28 16h17.13.192701 +0530,
square.png,stranger,1,M,,,,,,,,,7,3,31,0,,,,,,,,,203.4596304000588,,,,,,,,,,,,,,,,,,,,,,,,,,,,,,,,,,,,,,,,,,,,,,,,,,,,,,,,,,,,203.4436432000948,203.4596304000588,203.94346120010596,203.94346120010596,203.94346120010596,203.94346120010596,203.96007990010548,,,,204.16078969999216,m,0.2068098000017926,None,204.16121530008968,204.17674020002596,205.1771975000156,205.16069500008598,,,,,,,,,,,,,,,,,,,,,,,,,,,,,,,,,,,,,,,,,,,,,,,,,,,,,,,,,,,,,,,,,,,,,,,,,,,,,,A_8,001,2024-11-28_16h17.01.820,untitled,2024.1.5,None,2024-11-28 16h17.13.192701 +0530,
square.png,stranger,1,M,,,,,,,,,8,0,32,0,,,,,,,,,205.1771975000156,,,,,,,,,,,,,,,,,,,,,,,,,,,,,,,,,,,,,,,,,,,,,,,,,,,,,,,,,,,,205.1610458000796,205.1771975000156,205.6606955000898,205.6606955000898,205.6606955000898,205.6606955000898,205.67744940007105,205.96079969999846,205.96079969999846,205.96079969999846,205.94506940001156,z,0.2738785999827087,None,205.94549300009385,205.96079969999846,206.96092890005093,206.94469490007032,,,,,,,,,,,,,,,,,,,,,,,,,,,,,,,,,,,,,,,,,,,,,,,,,,,,,,,,,,,,,,,,,,,,,,,,,,,,,,A_8,001,2024-11-28_16h17.01.820,untitled,2024.1.5,None,2024-11-28 16h17.13.192701 +0530,
triangle.png,stranger,0,Z,,,,,,,,,8,1,33,3,,,,,,,,,206.96092890005093,,,,,,,,,,,,,,,,,,,,,,,,,,,,,,,,,,,,,,,,,,,,,,,,,,,,,,,,,,,,206.94505630002823,206.96092890005093,207.44512170006055,207.44512170006055,207.44512170006055,207.44512170006055,207.46169980010018,207.74500770005397,207.74500770005397,207.74500770005397,207.74576040008105,m,0.28974010003730655,None,207.74619560001884,207.7616629000986,208.76213520008605,208.74605900002643,,,,,,,,,,,,,,,,,,,,,,,,,,,,,,,,,,,,,,,,,,,,,,,,,,,,,,,,,,,,,,,,,,,,,,,,,,,,,,A_8,001,2024-11-28_16h17.01.820,untitled,2024.1.5,None,2024-11-28 16h17.13.192701 +0530,
triangle.png,you,1,M,,,,,,,,,8,2,34,1,,,,,,,,,208.76213520008605,,,,,,,,,,,,,,,,,,,,,,,,,,,,,,,,,,,,,,,,,,,,,,,,,,,,,,,,,,,,208.7464203001,208.76213520008605,209.24616300000343,209.24616300000343,209.24616300000343,209.24616300000343,209.26247590000276,209.5458656999981,209.5458656999981,209.5458656999981,209.54672800004482,z,0.2995667998911813,None,209.547149799997,209.56259410001803,210.56314540002495,210.54696830001194,,,,,,,,,,,,,,,,,,,,,,,,,,,,,,,,,,,,,,,,,,,,,,,,,,,,,,,,,,,,,,,,,,,,,,,,,,,,,,A_8,001,2024-11-28_16h17.01.820,untitled,2024.1.5,None,2024-11-28 16h17.13.192701 +0530,
square.png,you,0,Z,,,,,,,,,8,3,35,2,,,,,,,,,210.56314540002495,,,,,,,,,,,,,,,,,,,,,,,,,,,,,,,,,,,,,,,,,,,,,,,,,,,,,,,,,,,,210.54731480008923,210.56314540002495,211.04672189999837,211.04672189999837,211.04672189999837,211.04672189999837,211.0633507000748,211.34695050003938,211.34695050003938,211.34695050003938,211.51425910007674,m,0.45603829994797707,None,211.51469510002062,211.53021180001087,212.53087630006485,212.51453180005774,,,,,,,,,,,,,,,,,,,,,,,,,,,,,,,,,,,,,,,,,,,,,,,,,,,,,,,,,,,,,,,,,,,,,,,,,,,,,,A_8,001,2024-11-28_16h17.01.820,untitled,2024.1.5,None,2024-11-28 16h17.13.192701 +0530,
square.png,stranger,1,M,,,,,,,,,9,0,36,0,,,,,,,,,212.53087630006485,,,,,,,,,,,,,,,,,,,,,,,,,,,,,,,,,,,,,,,,,,,,,,,,,,,,,,,,,,,,212.51488100003917,212.53087630006485,213.0147270000307,213.0147270000307,213.0147270000307,213.0147270000307,213.03100200009067,213.31448150007054,213.31448150007054,213.31448150007054,213.29922720009927,z,0.2831761999987066,None,213.29965200007427,213.31448150007054,214.31512760010082,214.29894710006192,,,,,,,,,,,,,,,,,,,,,,,,,,,,,,,,,,,,,,,,,,,,,,,,,,,,,,,,,,,,,,,,,,,,,,,,,,,,,,A_8,001,2024-11-28_16h17.01.820,untitled,2024.1.5,None,2024-11-28 16h17.13.192701 +0530,
triangle.png,you,1,M,,,,,,,,,9,1,37,1,,,,,,,,,214.31512760010082,,,,,,,,,,,,,,,,,,,,,,,,,,,,,,,,,,,,,,,,,,,,,,,,,,,,,,,,,,,,214.29929860006087,214.31512760010082,214.81567040004302,214.81567040004302,214.81567040004302,214.81567040004302,214.81567040004302,215.11554110003635,215.11554110003635,215.11554110003635,215.13300000003073,m,0.3109118000138551,None,215.13342530000955,215.14862700004596,216.14942680008244,216.13299870002083,,,,,,,,,,,,,,,,,,,,,,,,,,,,,,,,,,,,,,,,,,,,,,,,,,,,,,,,,,,,,,,,,,,,,,,,,,,,,,A_8,001,2024-11-28_16h17.01.820,untitled,2024.1.5,None,2024-11-28 16h17.13.192701 +0530,
square.png,you,0,Z,,,,,,,,,9,2,38,2,,,,,,,,,216.14942680008244,,,,,,,,,,,,,,,,,,,,,,,,,,,,,,,,,,,,,,,,,,,,,,,,,,,,,,,,,,,,216.13335520005785,216.14942680008244,216.6330485000508,216.6330485000508,216.6330485000508,216.6330485000508,216.65000420005526,,,,216.86732120008674,z,0.22182179999072105,None,216.8677448000526,216.88305570010561,217.88347970007453,217.86724640009925,,,,,,,,,,,,,,,,,,,,,,,,,,,,,,,,,,,,,,,,,,,,,,,,,,,,,,,,,,,,,,,,,,,,,,,,,,,,,,A_8,001,2024-11-28_16h17.01.820,untitled,2024.1.5,None,2024-11-28 16h17.13.192701 +0530,
triangle.png,stranger,0,Z,,,,,,,,,9,3,39,3,,,,,,,,,217.88347970007453,,,,,,,,,,,,,,,,,,,,,,,,,,,,,,,,,,,,,,,,,,,,,,,,,,,,,,,,,,,,217.86759230005555,217.88347970007453,218.36718970001675,218.36718970001675,218.36718970001675,218.36718970001675,218.3841548000928,,,,218.61814500007313,m,0.2469372000778094,None,218.6185870000627,218.6337649000343,219.63449830003083,219.6185572000686,,,,,,,,,,,,,,,,,,,,,,,,,,,,,,,,,,,,,,,,,,,,,,,,,,,,,,,,,,,,,,,,,,,,,,,,,,,,,,A_8,001,2024-11-28_16h17.01.820,untitled,2024.1.5,None,2024-11-28 16h17.13.192701 +0530,
square.png,stranger,1,M,,,,,,,,,10,0,40,0,,,,,,,,,219.63449830003083,,,,,,,,,,,,,,,,,,,,,,,,,,,,,,,,,,,,,,,,,,,,,,,,,,,,,,,,,,,,219.61890760005917,219.63449830003083,220.11812950007152,220.11812950007152,220.11812950007152,220.11812950007152,220.13495130010415,220.41813940007705,220.41813940007705,220.41813940007705,220.48547290009446,z,0.3599468000466004,None,220.48589620005805,220.50163499999326,221.50214130000677,221.48579639999662,,,,,,,,,,,,,,,,,,,,,,,,,,,,,,,,,,,,,,,,,,,,,,,,,,,,,,,,,,,,,,,,,,,,,,,,,,,,,,A_8,001,2024-11-28_16h17.01.820,untitled,2024.1.5,None,2024-11-28 16h17.13.192701 +0530,
square.png,you,0,Z,,,,,,,,,10,1,41,2,,,,,,,,,221.50214130000677,,,,,,,,,,,,,,,,,,,,,,,,,,,,,,,,,,,,,,,,,,,,,,,,,,,,,,,,,,,,221.4861491000047,221.50214130000677,221.98571120004635,221.98571120004635,221.98571120004635,221.98571120004635,222.0022644000128,222.28583190008067,222.28583190008067,222.28583190008067,222.36982010002248,m,0.36833870003465563,None,222.37024580000434,222.38595930009615,223.3866041000001,223.3702625000151,,,,,,,,,,,,,,,,,,,,,,,,,,,,,,,,,,,,,,,,,,,,,,,,,,,,,,,,,,,,,,,,,,,,,,,,,,,,,,A_8,001,2024-11-28_16h17.01.820,untitled,2024.1.5,None,2024-11-28 16h17.13.192701 +0530,
triangle.png,stranger,0,Z,,,,,,,,,10,2,42,3,,,,,,,,,223.3866041000001,,,,,,,,,,,,,,,,,,,,,,,,,,,,,,,,,,,,,,,,,,,,,,,,,,,,,,,,,,,,223.37061680003535,223.3866041000001,223.87035840004683,223.87035840004683,223.87035840004683,223.87035840004683,223.88695740001276,,,,224.12089470005594,z,0.2472698000492528,None,224.12131870002486,224.13686050008982,225.1374580000993,225.12120700010564,,,,,,,,,,,,,,,,,,,,,,,,,,,,,,,,,,,,,,,,,,,,,,,,,,,,,,,,,,,,,,,,,,,,,,,,,,,,,,A_8,001,2024-11-28_16h17.01.820,untitled,2024.1.5,None,2024-11-28 16h17.13.192701 +0530,
triangle.png,you,1,M,,,,,,,,,10,3,43,1,,,,,,,,,225.1374580000993,,,,,,,,,,,,,,,,,,,,,,,,,,,,,,,,,,,,,,,,,,,,,,,,,,,,,,,,,,,,225.121561500011,225.1374580000993,225.62113159999717,225.62113159999717,225.62113159999717,225.62113159999717,225.63777330005541,225.92092020006385,225.92092020006385,225.92092020006385,226.00520940008573,z,0.3735611999873072,None,226.0056361000752,226.02113710006233,227.0216575000668,227.00542080006562,,,,,,,,,,,,,,,,,,,,,,,,,,,,,,,,,,,,,,,,,,,,,,,,,,,,,,,,,,,,,,,,,,,,,,,,,,,,,,A_8,001,2024-11-28_16h17.01.820,untitled,2024.1.5,None,2024-11-28 16h17.13.192701 +0530,
square.png,stranger,1,M,,,,,,,,,11,0,44,0,,,,,,,,,227.0216575000668,,,,,,,,,,,,,,,,,,,,,,,,,,,,,,,,,,,,,,,,,,,,,,,,,,,,,,,,,,,,227.0057712000562,227.0216575000668,227.50522510008886,227.50522510008886,227.50522510008886,227.50522510008886,227.5220965000335,227.80524030001834,227.80524030001834,227.80524030001834,227.78946880006697,m,0.26869499997701496,None,227.7898904000176,227.80524030001834,228.8059871000005,228.78945030004252,,,,,,,,,,,,,,,,,,,,,,,,,,,,,,,,,,,,,,,,,,,,,,,,,,,,,,,,,,,,,,,,,,,,,,,,,,,,,,A_8,001,2024-11-28_16h17.01.820,untitled,2024.1.5,None,2024-11-28 16h17.13.192701 +0530,
triangle.png,stranger,0,Z,,,,,,,,,11,1,45,3,,,,,,,,,228.8059871000005,,,,,,,,,,,,,,,,,,,,,,,,,,,,,,,,,,,,,,,,,,,,,,,,,,,,,,,,,,,,228.78980440006126,228.8059871000005,229.2894390000729,229.2894390000729,229.2894390000729,229.2894390000729,229.30606120009907,229.5896372999996,229.5896372999996,229.5896372999996,229.973736200016,z,0.6731218999484554,None,229.97415960009675,229.98993340006564,230.99038450000808,230.97402770002373,,,,,,,,,,,,,,,,,,,,,,,,,,,,,,,,,,,,,,,,,,,,,,,,,,,,,,,,,,,,,,,,,,,,,,,,,,,,,,A_8,001,2024-11-28_16h17.01.820,untitled,2024.1.5,None,2024-11-28 16h17.13.192701 +0530,
square.png,you,0,Z,,,,,,,,,11,2,46,2,,,,,,,,,230.99038450000808,,,,,,,,,,,,,,,,,,,,,,,,,,,,,,,,,,,,,,,,,,,,,,,,,,,,,,,,,,,,230.97437670000363,230.99038450000808,231.47391260007862,231.47391260007862,231.47391260007862,231.47391260007862,231.49073870002758,,,,231.7247835000744,m,0.24743430002126843,None,231.7252125000814,231.74092630005907,232.74127710005268,232.72488550003618,,,,,,,,,,,,,,,,,,,,,,,,,,,,,,,,,,,,,,,,,,,,,,,,,,,,,,,,,,,,,,,,,,,,,,,,,,,,,,A_8,001,2024-11-28_16h17.01.820,untitled,2024.1.5,None,2024-11-28 16h17.13.192701 +0530,
triangle.png,you,1,M,,,,,,,,,11,3,47,1,,,,,,,,,232.74127710005268,,,,,,,,,,,,,,,,,,,,,,,,,,,,,,,,,,,,,,,,,,,,,,,,,,,,,,,,,,,,232.725240400061,232.74127710005268,233.22499990009237,233.22499990009237,233.22499990009237,233.22499990009237,233.24134530010633,,,,233.4757442000555,z,0.2490941999712959,None,233.47616930003278,233.49162680003792,234.49219070002437,234.47601640003268,,,,,,,,,,,,,,,,,,,,,,,,,,,,,,,,,,,,,,,,,,,,,,,,,,,,,,,,,,,,,,,,,,,,,,,,,,,,,,A_8,001,2024-11-28_16h17.01.820,untitled,2024.1.5,None,2024-11-28 16h17.13.192701 +0530,
square.png,you,0,Z,,,,,,,,,12,0,48,2,,,,,,,,,234.49219070002437,,,,,,,,,,,,,,,,,,,,,,,,,,,,,,,,,,,,,,,,,,,,,,,,,,,,,,,,,,,,234.4763698000461,234.49219070002437,234.9759227000177,234.9759227000177,234.9759227000177,234.9759227000177,234.9923937000567,,,,235.10978840000462,m,0.12286650005262345,None,235.11028190003708,235.1257842000341,236.1264266000362,236.11013450007886,,,,,,,,,,,,,,,,,,,,,,,,,,,,,,,,,,,,,,,,,,,,,,,,,,,,,,,,,,,,,,,,,,,,,,,,,,,,,,A_8,001,2024-11-28_16h17.01.820,untitled,2024.1.5,None,2024-11-28 16h17.13.192701 +0530,
square.png,stranger,1,M,,,,,,,,,12,1,49,0,,,,,,,,,236.1264266000362,,,,,,,,,,,,,,,,,,,,,,,,,,,,,,,,,,,,,,,,,,,,,,,,,,,,,,,,,,,,236.11048970010597,236.1264266000362,236.60996450006496,236.60996450006496,236.60996450006496,236.60996450006496,236.62670780008193,,,,236.694229500019,z,0.06811230001039803,None,236.69466280005872,236.71000620000996,237.71051980007906,237.69407610001508,,,,,,,,,,,,,,,,,,,,,,,,,,,,,,,,,,,,,,,,,,,,,,,,,,,,,,,,,,,,,,,,,,,,,,,,,,,,,,A_8,001,2024-11-28_16h17.01.820,untitled,2024.1.5,None,2024-11-28 16h17.13.192701 +0530,
triangle.png,stranger,0,Z,,,,,,,,,12,2,50,3,,,,,,,,,237.71051980007906,,,,,,,,,,,,,,,,,,,,,,,,,,,,,,,,,,,,,,,,,,,,,,,,,,,,,,,,,,,,237.69442760001402,237.71051980007906,238.1941185001051,238.1941185001051,238.1941185001051,238.1941185001051,238.21087870001793,238.49406930000987,238.49406930000987,238.49406930000987,238.52840990002733,z,0.3248880999162793,None,238.52883910003584,238.54408550006337,239.5446898000082,239.52831770002376,,,,,,,,,,,,,,,,,,,,,,,,,,,,,,,,,,,,,,,,,,,,,,,,,,,,,,,,,,,,,,,,,,,,,,,,,,,,,,A_8,001,2024-11-28_16h17.01.820,untitled,2024.1.5,None,2024-11-28 16h17.13.192701 +0530,
triangle.png,you,1,M,,,,,,,,,12,3,51,1,,,,,,,,,239.5446898000082,,,,,,,,,,,,,,,,,,,,,,,,,,,,,,,,,,,,,,,,,,,,,,,,,,,,,,,,,,,,239.52867920009885,239.5446898000082,240.028442800045,240.028442800045,240.028442800045,240.028442800045,240.04480760009028,240.3282839000458,240.3282839000458,240.3282839000458,240.46270910010207,z,0.41885380004532635,None,240.46313380007632,240.47852540004533,241.47915800008923,241.46321130008437,,,,,,,,,,,,,,,,,,,,,,,,,,,,,,,,,,,,,,,,,,,,,,,,,,,,,,,,,,,,,,,,,,,,,,,,,,,,,,A_8,001,2024-11-28_16h17.01.820,untitled,2024.1.5,None,2024-11-28 16h17.13.192701 +0530,
square.png,you,0,Z,,,,,,,,,13,0,52,2,,,,,,,,,241.47915800008923,,,,,,,,,,,,,,,,,,,,,,,,,,,,,,,,,,,,,,,,,,,,,,,,,,,,,,,,,,,,241.4635628000833,241.47915800008923,241.96289180009626,241.96289180009626,241.96289180009626,241.96289180009626,241.97941360005643,,,,242.2302512000315,m,0.25181129993870854,None,242.23067499999888,242.24625490000471,243.24651800002903,243.23045630007982,,,,,,,,,,,,,,,,,,,,,,,,,,,,,,,,,,,,,,,,,,,,,,,,,,,,,,,,,,,,,,,,,,,,,,,,,,,,,,A_8,001,2024-11-28_16h17.01.820,untitled,2024.1.5,None,2024-11-28 16h17.13.192701 +0530,
triangle.png,stranger,0,Z,,,,,,,,,13,1,53,3,,,,,,,,,243.24651800002903,,,,,,,,,,,,,,,,,,,,,,,,,,,,,,,,,,,,,,,,,,,,,,,,,,,,,,,,,,,,243.23080680007115,243.24651800002903,243.73044680000748,243.73044680000748,243.73044680000748,243.73044680000748,243.74709160008933,244.03038410004228,244.03038410004228,244.03038410004228,244.03116870007943,z,0.29158789990469813,None,244.03158940002322,244.04692590003833,245.04762590001337,245.0311230000807,,,,,,,,,,,,,,,,,,,,,,,,,,,,,,,,,,,,,,,,,,,,,,,,,,,,,,,,,,,,,,,,,,,,,,,,,,,,,,A_8,001,2024-11-28_16h17.01.820,untitled,2024.1.5,None,2024-11-28 16h17.13.192701 +0530,
square.png,stranger,1,M,,,,,,,,,13,2,54,0,,,,,,,,,245.04762590001337,,,,,,,,,,,,,,,,,,,,,,,,,,,,,,,,,,,,,,,,,,,,,,,,,,,,,,,,,,,,245.03147420007735,245.04762590001337,245.53117770003155,245.53117770003155,245.53117770003155,245.53117770003155,245.54783940000925,,,,245.6485920000123,m,0.11569940007757396,None,245.64903970004525,245.66464970004745,246.66495480004232,246.6490243000444,,,,,,,,,,,,,,,,,,,,,,,,,,,,,,,,,,,,,,,,,,,,,,,,,,,,,,,,,,,,,,,,,,,,,,,,,,,,,,A_8,001,2024-11-28_16h17.01.820,untitled,2024.1.5,None,2024-11-28 16h17.13.192701 +0530,
triangle.png,you,1,M,,,,,,,,,13,3,55,1,,,,,,,,,246.66495480004232,,,,,,,,,,,,,,,,,,,,,,,,,,,,,,,,,,,,,,,,,,,,,,,,,,,,,,,,,,,,246.64938070008066,246.66495480004232,247.14885240001604,247.14885240001604,247.14885240001604,247.14885240001604,247.16552840010263,,,,247.34945350000635,z,0.18517270009033382,None,247.34987480007112,247.3655019000871,248.36606060003396,248.3496935000876,,,,,,,,,,,,,,,,,,,,,,,,,,,,,,,,,,,,,,,,,,,,,,,,,,,,,,,,,,,,,,,,,,,,,,,,,,,,,,A_8,001,2024-11-28_16h17.01.820,untitled,2024.1.5,None,2024-11-28 16h17.13.192701 +0530,
triangle.png,stranger,0,Z,,,,,,,,,14,0,56,3,,,,,,,,,248.36606060003396,,,,,,,,,,,,,,,,,,,,,,,,,,,,,,,,,,,,,,,,,,,,,,,,,,,,,,,,,,,,248.35004990000743,248.36606060003396,248.84966830001213,248.84966830001213,248.84966830001213,248.84966830001213,248.86630640004296,249.14979370008223,249.14979370008223,249.14979370008223,249.9340020000236,None,,,249.93419679999352,249.9500360999955,250.95065040001646,250.9344002000289,249.9500360999955,,,,,,,,,,,,,,,,,,,,,,,,,,,,,,,,,,,,,,,,,,,,,,,,,,,,,,,,,,,,,,,,,,,,,,,,,,,,,A_8,001,2024-11-28_16h17.01.820,untitled,2024.1.5,None,2024-11-28 16h17.13.192701 +0530,
triangle.png,you,1,M,,,,,,,,,14,1,57,1,,,,,,,,,250.95065040001646,,,,,,,,,,,,,,,,,,,,,,,,,,,,,,,,,,,,,,,,,,,,,,,,,,,,,,,,,,,,250.93475380004384,250.95065040001646,251.45108430006076,251.45108430006076,251.45108430006076,251.45108430006076,251.45108430006076,,,,251.5360574000515,m,0.08347239997237921,None,251.53648860007524,251.55089440010488,252.55134850007016,252.53496320010163,,,,,,,,,,,,,,,,,,,,,,,,,,,,,,,,,,,,,,,,,,,,,,,,,,,,,,,,,,,,,,,,,,,,,,,,,,,,,,A_8,001,2024-11-28_16h17.01.820,untitled,2024.1.5,None,2024-11-28 16h17.13.192701 +0530,
square.png,you,0,Z,,,,,,,,,14,2,58,2,,,,,,,,,252.55134850007016,,,,,,,,,,,,,,,,,,,,,,,,,,,,,,,,,,,,,,,,,,,,,,,,,,,,,,,,,,,,252.5353278000839,252.55134850007016,253.0518855000846,253.0518855000846,253.0518855000846,253.0518855000846,253.0518855000846,253.3519687000662,253.3519687000662,253.3519687000662,253.45248400000855,z,0.3894342000130564,None,253.45290320005734,253.4686670000665,254.46909560007043,254.4528637001058,,,,,,,,,,,,,,,,,,,,,,,,,,,,,,,,,,,,,,,,,,,,,,,,,,,,,,,,,,,,,,,,,,,,,,,,,,,,,,A_8,001,2024-11-28_16h17.01.820,untitled,2024.1.5,None,2024-11-28 16h17.13.192701 +0530,
square.png,stranger,1,M,,,,,,,,,14,3,59,0,,,,,,,,,254.46909560007043,,,,,,,,,,,,,,,,,,,,,,,,,,,,,,,,,,,,,,,,,,,,,,,,,,,,,,,,,,,,254.45322160003707,254.46909560007043,254.95259210001677,254.95259210001677,254.95259210001677,254.95259210001677,254.96951980004087,,,,255.20374040002935,m,0.24889270006678998,None,255.20416540000588,255.21925930003636,256.2199174000416,256.2035997000057,,,,,,,,,,,,,,,,,,,,,,,,,,,,,,,,,,,,,,,,,,,,,,,,,,,,,,,,,,,,,,,,,,,,,,,,,,,,,,A_8,001,2024-11-28_16h17.01.820,untitled,2024.1.5,None,2024-11-28 16h17.13.192701 +0530,
triangle.png,stranger,0,Z,,,,,,,,,15,0,60,3,,,,,,,,,256.2199174000416,,,,,,,,,,,,,,,,,,,,,,,,,,,,,,,,,,,,,,,,,,,,,,,,,,,,,,,,,,,,256.20395620004274,256.2199174000416,256.7036200000439,256.7036200000439,256.7036200000439,256.7036200000439,256.720398100093,,,,256.83764370006975,z,0.11846380005590618,None,256.83806950005237,256.8535925000906,257.8541128000943,257.8378234000411,,,,,,,,,,,,,,,,,,,,,,,,,,,,,,,,,,,,,,,,,,,,,,,,,,,,,,,,,,,,,,,,,,,,,,,,,,,,,,A_8,001,2024-11-28_16h17.01.820,untitled,2024.1.5,None,2024-11-28 16h17.13.192701 +0530,
square.png,you,0,Z,,,,,,,,,15,1,61,2,,,,,,,,,257.8541128000943,,,,,,,,,,,,,,,,,,,,,,,,,,,,,,,,,,,,,,,,,,,,,,,,,,,,,,,,,,,,257.8381763000507,257.8541128000943,258.3379727000138,258.3379727000138,258.3379727000138,258.3379727000138,258.3544191000983,,,,258.4052477000514,m,0.06510170002002269,None,258.4056873000227,258.4208806999959,259.4216321000131,259.4052061000839,,,,,,,,,,,,,,,,,,,,,,,,,,,,,,,,,,,,,,,,,,,,,,,,,,,,,,,,,,,,,,,,,,,,,,,,,,,,,,A_8,001,2024-11-28_16h17.01.820,untitled,2024.1.5,None,2024-11-28 16h17.13.192701 +0530,
square.png,stranger,1,M,,,,,,,,,15,2,62,0,,,,,,,,,259.4216321000131,,,,,,,,,,,,,,,,,,,,,,,,,,,,,,,,,,,,,,,,,,,,,,,,,,,,,,,,,,,,259.40556089999154,259.4216321000131,259.9050930000376,259.9050930000376,259.9050930000376,259.9050930000376,259.9217358001042,260.205505900085,260.205505900085,260.205505900085,260.65631250001024,m,0.7415443999925628,None,260.6567421000218,260.6723578000674,261.6728698000079,261.65659140003845,,,,,,,,,,,,,,,,,,,,,,,,,,,,,,,,,,,,,,,,,,,,,,,,,,,,,,,,,,,,,,,,,,,,,,,,,,,,,,A_8,001,2024-11-28_16h17.01.820,untitled,2024.1.5,None,2024-11-28 16h17.13.192701 +0530,
triangle.png,you,1,M,,,,,,,,,15,3,63,1,,,,,,,,,261.6728698000079,,,,,,,,,,,,,,,,,,,,,,,,,,,,,,,,,,,,,,,,,,,,,,,,,,,,,,,,,,,,261.65695080009755,261.6728698000079,262.15667470009066,262.15667470009066,262.15667470009066,262.15667470009066,262.172960099997,262.45661250001285,262.45661250001285,262.45661250001285,262.557274300023,m,0.3900590999983251,None,262.5577030000277,262.5733098000055,263.57363750005607,263.5572918000398,,,,,,,,,,,,,,,,,,,,,,,,,,,,,,,,,,,,,,,,,,,,,,,,,,,,,,,,,,,,,,,,,,,,,,,,,,,,,,A_8,001,2024-11-28_16h17.01.820,untitled,2024.1.5,None,2024-11-28 16h17.13.192701 +0530,
triangle.png,you,1,M,,,,,,,,,16,0,64,1,,,,,,,,,263.57363750005607,,,,,,,,,,,,,,,,,,,,,,,,,,,,,,,,,,,,,,,,,,,,,,,,,,,,,,,,,,,,263.557643200038,263.57363750005607,264.0573951000115,264.0573951000115,264.0573951000115,264.0573951000115,264.0739755000686,,,,264.3249707000796,z,0.26519330008886755,None,264.32539510005154,264.3408838000614,265.3413270000601,265.3251950000413,,,,,,,,,,,,,,,,,,,,,,,,,,,,,,,,,,,,,,,,,,,,,,,,,,,,,,,,,,,,,,,,,,,,,,,,,,,,,,A_8,001,2024-11-28_16h17.01.820,untitled,2024.1.5,None,2024-11-28 16h17.13.192701 +0530,
square.png,you,0,Z,,,,,,,,,16,1,65,2,,,,,,,,,265.3413270000601,,,,,,,,,,,,,,,,,,,,,,,,,,,,,,,,,,,,,,,,,,,,,,,,,,,,,,,,,,,,265.32554980006535,265.3413270000601,265.82510560005903,265.82510560005903,265.82510560005903,265.82510560005903,265.84153060009703,266.1250217000488,266.1250217000488,266.1250217000488,266.8262850000756,m,0.9895515999523923,None,266.82673760002945,266.8421058000531,267.8426849000389,267.82648950000294,,,,,,,,,,,,,,,,,,,,,,,,,,,,,,,,,,,,,,,,,,,,,,,,,,,,,,,,,,,,,,,,,,,,,,,,,,,,,,A_8,001,2024-11-28_16h17.01.820,untitled,2024.1.5,None,2024-11-28 16h17.13.192701 +0530,
triangle.png,stranger,0,Z,,,,,,,,,16,2,66,3,,,,,,,,,267.8426849000389,,,,,,,,,,,,,,,,,,,,,,,,,,,,,,,,,,,,,,,,,,,,,,,,,,,,,,,,,,,,267.82684500003234,267.8426849000389,268.32623490004335,268.32623490004335,268.32623490004335,268.32623490004335,268.34307380008977,268.62633800006006,268.62633800006006,268.62633800006006,269.41037400008645,None,,,269.41056310001295,269.4268767000176,270.4274581000209,270.41118840000127,269.4268767000176,,,,,,,,,,,,,,,,,,,,,,,,,,,,,,,,,,,,,,,,,,,,,,,,,,,,,,,,,,,,,,,,,,,,,,,,,,,,,A_8,001,2024-11-28_16h17.01.820,untitled,2024.1.5,None,2024-11-28 16h17.13.192701 +0530,
square.png,stranger,1,M,,,,,,,,,16,3,67,0,,,,,,,,,270.4274581000209,,,,,,,,,,,,,,,,,,,,,,,,,,,,,,,,,,,,,,,,,,,,,,,,,,,,,,,,,,,,270.4115423000185,270.4274581000209,270.92778990010265,270.92778990010265,270.92778990010265,270.92778990010265,270.92778990010265,271.22774870006833,271.22774870006833,271.22774870006833,271.245124500012,m,0.30174219992477447,None,271.245553500019,271.2611881000921,272.2613803000422,272.24534440005664,,,,,,,,,,,,,,,,,,,,,,,,,,,,,,,,,,,,,,,,,,,,,,,,,,,,,,,,,,,,,,,,,,,,,,,,,,,,,,A_8,001,2024-11-28_16h17.01.820,untitled,2024.1.5,None,2024-11-28 16h17.13.192701 +0530,
triangle.png,you,1,M,,,,,,,,,17,0,68,1,,,,,,,,,272.2613803000422,,,,,,,,,,,,,,,,,,,,,,,,,,,,,,,,,,,,,,,,,,,,,,,,,,,,,,,,,,,,272.24576220009476,272.2613803000422,272.7454345000442,272.7454345000442,272.7454345000442,272.7454345000442,272.7617601000238,273.0449949000031,273.0449949000031,273.0449949000031,273.0457451000111,z,0.29264370002783835,None,273.0461847000988,273.06200680008624,274.0623753000982,274.0462919001002,,,,,,,,,,,,,,,,,,,,,,,,,,,,,,,,,,,,,,,,,,,,,,,,,,,,,,,,,,,,,,,,,,,,,,,,,,,,,,A_8,001,2024-11-28_16h17.01.820,untitled,2024.1.5,None,2024-11-28 16h17.13.192701 +0530,
square.png,stranger,1,M,,,,,,,,,17,1,69,0,,,,,,,,,274.0623753000982,,,,,,,,,,,,,,,,,,,,,,,,,,,,,,,,,,,,,,,,,,,,,,,,,,,,,,,,,,,,274.0466461000033,274.0623753000982,274.546194500057,274.546194500057,274.546194500057,274.546194500057,274.5628154000733,274.8460323000327,274.8460323000327,274.8460323000327,274.94675300002564,m,0.39529250003397465,None,274.94718560006004,274.96284320007544,275.963610200095,275.9469542000443,,,,,,,,,,,,,,,,,,,,,,,,,,,,,,,,,,,,,,,,,,,,,,,,,,,,,,,,,,,,,,,,,,,,,,,,,,,,,,A_8,001,2024-11-28_16h17.01.820,untitled,2024.1.5,None,2024-11-28 16h17.13.192701 +0530,
square.png,you,0,Z,,,,,,,,,17,2,70,2,,,,,,,,,275.963610200095,,,,,,,,,,,,,,,,,,,,,,,,,,,,,,,,,,,,,,,,,,,,,,,,,,,,,,,,,,,,275.9473313000053,275.963610200095,276.44702379999217,276.44702379999217,276.44702379999217,276.44702379999217,276.46383850008715,276.74728950008284,276.74728950008284,276.74728950008284,277.0815025001066,z,0.6188724999083206,None,277.0819283000892,277.09720780001953,278.0980933000101,278.0817497000098,,,,,,,,,,,,,,,,,,,,,,,,,,,,,,,,,,,,,,,,,,,,,,,,,,,,,,,,,,,,,,,,,,,,,,,,,,,,,,A_8,001,2024-11-28_16h17.01.820,untitled,2024.1.5,None,2024-11-28 16h17.13.192701 +0530,
triangle.png,stranger,0,Z,,,,,,,,,17,3,71,3,,,,,,,,,278.0980933000101,,,,,,,,,,,,,,,,,,,,,,,,,,,,,,,,,,,,,,,,,,,,,,,,,,,,,,,,,,,,278.0821065000491,278.0980933000101,278.58155150001403,278.58155150001403,278.58155150001403,278.58155150001403,278.59807090007234,278.88133040000685,278.88133040000685,278.88133040000685,279.1491725000087,m,0.561342200031504,None,279.14959260006435,279.1650118000107,280.16584660008084,280.14953180006705,,,,,,,,,,,,,,,,,,,,,,,,,,,,,,,,,,,,,,,,,,,,,,,,,,,,,,,,,,,,,,,,,,,,,,,,,,,,,,A_8,001,2024-11-28_16h17.01.820,untitled,2024.1.5,None,2024-11-28 16h17.13.192701 +0530,
square.png,you,0,Z,,,,,,,,,18,0,72,2,,,,,,,,,280.16584660008084,,,,,,,,,,,,,,,,,,,,,,,,,,,,,,,,,,,,,,,,,,,,,,,,,,,,,,,,,,,,280.1498835000675,280.16584660008084,280.6493483000668,280.6493483000668,280.6493483000668,280.6493483000668,280.6659724001074,280.94931440008804,280.94931440008804,280.94931440008804,280.9668218001025,z,0.3120350999524817,None,280.9672450000653,280.98284920002334,281.9832496000454,281.96691320009995,,,,,,,,,,,,,,,,,,,,,,,,,,,,,,,,,,,,,,,,,,,,,,,,,,,,,,,,,,,,,,,,,,,,,,,,,,,,,,A_8,001,2024-11-28_16h17.01.820,untitled,2024.1.5,None,2024-11-28 16h17.13.192701 +0530,
square.png,stranger,1,M,,,,,,,,,18,1,73,0,,,,,,,,,281.9832496000454,,,,,,,,,,,,,,,,,,,,,,,,,,,,,,,,,,,,,,,,,,,,,,,,,,,,,,,,,,,,281.96726460009813,281.9832496000454,282.4669498000294,282.4669498000294,282.4669498000294,282.4669498000294,282.48342150007375,,,,282.6675698000472,m,0.18811500002630055,None,282.6680027000839,282.6836416000733,283.68417060002685,283.6676901000319,,,,,,,,,,,,,,,,,,,,,,,,,,,,,,,,,,,,,,,,,,,,,,,,,,,,,,,,,,,,,,,,,,,,,,,,,,,,,,A_8,001,2024-11-28_16h17.01.820,untitled,2024.1.5,None,2024-11-28 16h17.13.192701 +0530,
triangle.png,you,1,M,,,,,,,,,18,2,74,1,,,,,,,,,283.68417060002685,,,,,,,,,,,,,,,,,,,,,,,,,,,,,,,,,,,,,,,,,,,,,,,,,,,,,,,,,,,,283.66804440005217,283.68417060002685,284.16799059999175,284.16799059999175,284.16799059999175,284.16799059999175,284.18434010003693,284.467854800052,284.467854800052,284.467854800052,284.5350758000277,z,0.35141259990632534,None,284.5354995999951,284.55133819999173,285.5515062001068,285.535309500061,,,,,,,,,,,,,,,,,,,,,,,,,,,,,,,,,,,,,,,,,,,,,,,,,,,,,,,,,,,,,,,,,,,,,,,,,,,,,,A_8,001,2024-11-28_16h17.01.820,untitled,2024.1.5,None,2024-11-28 16h17.13.192701 +0530,
triangle.png,stranger,0,Z,,,,,,,,,18,3,75,3,,,,,,,,,285.5515062001068,,,,,,,,,,,,,,,,,,,,,,,,,,,,,,,,,,,,,,,,,,,,,,,,,,,,,,,,,,,,285.5356610000599,285.5515062001068,286.0352771000471,286.0352771000471,286.0352771000471,286.0352771000471,286.05213369999547,,,,286.30297409999184,m,0.25135739997494966,None,286.30340200010687,286.3186518000439,287.3194160000421,287.30309550010134,,,,,,,,,,,,,,,,,,,,,,,,,,,,,,,,,,,,,,,,,,,,,,,,,,,,,,,,,,,,,,,,,,,,,,,,,,,,,,A_8,001,2024-11-28_16h17.01.820,untitled,2024.1.5,None,2024-11-28 16h17.13.192701 +0530,
square.png,stranger,1,M,,,,,,,,,19,0,76,0,,,,,,,,,287.3194160000421,,,,,,,,,,,,,,,,,,,,,,,,,,,,,,,,,,,,,,,,,,,,,,,,,,,,,,,,,,,,287.30345400003716,287.3194160000421,287.8027411000803,287.8027411000803,287.8027411000803,287.8027411000803,287.8194846000988,,,,287.90375660010614,m,0.09595320001244545,None,287.9041908000363,287.91945400007535,288.92033029999584,288.90385300002526,,,,,,,,,,,,,,,,,,,,,,,,,,,,,,,,,,,,,,,,,,,,,,,,,,,,,,,,,,,,,,,,,,,,,,,,,,,,,,A_8,001,2024-11-28_16h17.01.820,untitled,2024.1.5,None,2024-11-28 16h17.13.192701 +0530,
triangle.png,stranger,0,Z,,,,,,,,,19,1,77,3,,,,,,,,,288.92033029999584,,,,,,,,,,,,,,,,,,,,,,,,,,,,,,,,,,,,,,,,,,,,,,,,,,,,,,,,,,,,288.9042064000387,288.92033029999584,289.4037121000001,289.4037121000001,289.4037121000001,289.4037121000001,289.4205227000639,289.7039363000076,289.7039363000076,289.7039363000076,290.18791360000614,z,0.7745899999281392,None,290.1883461000398,290.2041069000261,291.20473830006085,291.18816170003265,,,,,,,,,,,,,,,,,,,,,,,,,,,,,,,,,,,,,,,,,,,,,,,,,,,,,,,,,,,,,,,,,,,,,,,,,,,,,,A_8,001,2024-11-28_16h17.01.820,untitled,2024.1.5,None,2024-11-28 16h17.13.192701 +0530,
triangle.png,you,1,M,,,,,,,,,19,2,78,1,,,,,,,,,291.20473830006085,,,,,,,,,,,,,,,,,,,,,,,,,,,,,,,,,,,,,,,,,,,,,,,,,,,,,,,,,,,,291.18851380003616,291.20473830006085,291.688316600048,291.688316600048,291.688316600048,291.688316600048,291.705051500001,291.988353200024,291.988353200024,291.988353200024,292.0891564000631,m,0.394615099998191,None,292.0895773000084,292.10495460010134,293.10555400000885,293.08931950002443,,,,,,,,,,,,,,,,,,,,,,,,,,,,,,,,,,,,,,,,,,,,,,,,,,,,,,,,,,,,,,,,,,,,,,,,,,,,,,A_8,001,2024-11-28_16h17.01.820,untitled,2024.1.5,None,2024-11-28 16h17.13.192701 +0530,
square.png,you,0,Z,,,,,,,,,19,3,79,2,,,,,,,,,293.10555400000885,,,,,,,,,,,,,,,,,,,,,,,,,,,,,,,,,,,,,,,,,,,,,,,,,,,,,,,,,,,,293.0897007000167,293.10555400000885,293.58934090007097,293.58934090007097,293.58934090007097,293.58934090007097,293.6059538000263,293.8891303000273,293.8891303000273,293.8891303000273,293.94002140010707,z,0.3455573000246659,None,293.94046210008673,293.9561976999976,294.9563684000168,294.94029180007055,,,,,,,,,,,,,,,,,,,,,,,,,,,,,,,,,,,,,,,,,,,,,,,,,,,,,,,,,,,,,,,,,,,,,,,,,,,,,,A_8,001,2024-11-28_16h17.01.820,untitled,2024.1.5,None,2024-11-28 16h17.13.192701 +0530,
triangle.png,stranger,0,Z,,,,,,,,,20,0,80,3,,,,,,,,,294.9563684000168,,,,,,,,,,,,,,,,,,,,,,,,,,,,,,,,,,,,,,,,,,,,,,,,,,,,,,,,,,,,294.94064810010605,294.9563684000168,295.4403467000229,295.4403467000229,295.4403467000229,295.4403467000229,295.456907600048,295.74014790006913,295.74014790006913,295.74014790006913,295.7909551000921,m,0.3464218000881374,None,295.7913849001052,295.80688400007784,296.8074021000648,296.7913261000067,,,,,,,,,,,,,,,,,,,,,,,,,,,,,,,,,,,,,,,,,,,,,,,,,,,,,,,,,,,,,,,,,,,,,,,,,,,,,,A_8,001,2024-11-28_16h17.01.820,untitled,2024.1.5,None,2024-11-28 16h17.13.192701 +0530,
triangle.png,you,1,M,,,,,,,,,20,1,81,1,,,,,,,,,296.8074021000648,,,,,,,,,,,,,,,,,,,,,,,,,,,,,,,,,,,,,,,,,,,,,,,,,,,,,,,,,,,,296.79168740008026,296.8074021000648,297.2913411000045,297.2913411000045,297.2913411000045,297.2913411000045,297.30789410008583,297.5912406001007,297.5912406001007,297.5912406001007,297.60861790005583,z,0.30197000002954155,None,297.6090469000628,297.6246833000332,298.62498070008587,298.60890920006204,,,,,,,,,,,,,,,,,,,,,,,,,,,,,,,,,,,,,,,,,,,,,,,,,,,,,,,,,,,,,,,,,,,,,,,,,,,,,,A_8,001,2024-11-28_16h17.01.820,untitled,2024.1.5,None,2024-11-28 16h17.13.192701 +0530,
square.png,stranger,1,M,,,,,,,,,20,2,82,0,,,,,,,,,298.62498070008587,,,,,,,,,,,,,,,,,,,,,,,,,,,,,,,,,,,,,,,,,,,,,,,,,,,,,,,,,,,,298.6092619000701,298.62498070008587,299.10888610000256,299.10888610000256,299.10888610000256,299.10888610000256,299.1255909000756,299.4087591000134,299.4087591000134,299.4087591000134,299.60968100000173,m,0.49665519990958273,None,299.6101150000468,299.62545030005276,300.62588860001415,300.6097828000784,,,,,,,,,,,,,,,,,,,,,,,,,,,,,,,,,,,,,,,,,,,,,,,,,,,,,,,,,,,,,,,,,,,,,,,,,,,,,,A_8,001,2024-11-28_16h17.01.820,untitled,2024.1.5,None,2024-11-28 16h17.13.192701 +0530,
square.png,you,0,Z,,,,,,,,,20,3,83,2,,,,,,,,,300.62588860001415,,,,,,,,,,,,,,,,,,,,,,,,,,,,,,,,,,,,,,,,,,,,,,,,,,,,,,,,,,,,300.61015080008656,300.62588860001415,301.1100800000131,301.1100800000131,301.1100800000131,301.1100800000131,301.1266339001013,301.4098665000638,301.4098665000638,301.4098665000638,301.66042730002664,z,0.5448171000462025,None,301.66086170007475,301.67662560008466,302.6773085000459,302.66080320009496,,,,,,,,,,,,,,,,,,,,,,,,,,,,,,,,,,,,,,,,,,,,,,,,,,,,,,,,,,,,,,,,,,,,,,,,,,,,,,A_8,001,2024-11-28_16h17.01.820,untitled,2024.1.5,None,2024-11-28 16h17.13.192701 +0530,
triangle.png,stranger,0,Z,,,,,,,,,21,0,84,3,,,,,,,,,302.6773085000459,,,,,,,,,,,,,,,,,,,,,,,,,,,,,,,,,,,,,,,,,,,,,,,,,,,,,,,,,,,,302.66115610010456,302.6773085000459,303.16095510008745,303.16095510008745,303.16095510008745,303.16095510008745,303.17749210004695,303.4609191000927,303.4609191000927,303.4609191000927,303.4451273001032,m,0.27658269996754825,None,303.44555300008506,303.4609191000927,304.46149500005413,304.44504200003576,,,,,,,,,,,,,,,,,,,,,,,,,,,,,,,,,,,,,,,,,,,,,,,,,,,,,,,,,,,,,,,,,,,,,,,,,,,,,,A_8,001,2024-11-28_16h17.01.820,untitled,2024.1.5,None,2024-11-28 16h17.13.192701 +0530,
square.png,stranger,1,M,,,,,,,,,21,1,85,0,,,,,,,,,304.46149500005413,,,,,,,,,,,,,,,,,,,,,,,,,,,,,,,,,,,,,,,,,,,,,,,,,,,,,,,,,,,,304.44539360003546,304.46149500005413,304.9451948000351,304.9451948000351,304.9451948000351,304.9451948000351,304.9618720000144,,,,305.1626667000819,z,0.2136396000860259,None,305.16312480007764,305.1784777001012,306.1790552000748,306.1627769001061,,,,,,,,,,,,,,,,,,,,,,,,,,,,,,,,,,,,,,,,,,,,,,,,,,,,,,,,,,,,,,,,,,,,,,,,,,,,,,A_8,001,2024-11-28_16h17.01.820,untitled,2024.1.5,None,2024-11-28 16h17.13.192701 +0530,
triangle.png,you,1,M,,,,,,,,,21,2,86,1,,,,,,,,,306.1790552000748,,,,,,,,,,,,,,,,,,,,,,,,,,,,,,,,,,,,,,,,,,,,,,,,,,,,,,,,,,,,306.1631257000845,306.1790552000748,306.66274570010137,306.66274570010137,306.66274570010137,306.66274570010137,306.6792886001058,306.9627393000992,306.9627393000992,306.9627393000992,306.94694450008683,m,0.27534769999329,None,306.9473785000155,306.9627393000992,307.9633731000358,307.9468568000011,,,,,,,,,,,,,,,,,,,,,,,,,,,,,,,,,,,,,,,,,,,,,,,,,,,,,,,,,,,,,,,,,,,,,,,,,,,,,,A_8,001,2024-11-28_16h17.01.820,untitled,2024.1.5,None,2024-11-28 16h17.13.192701 +0530,
square.png,you,0,Z,,,,,,,,,21,3,87,2,,,,,,,,,307.9633731000358,,,,,,,,,,,,,,,,,,,,,,,,,,,,,,,,,,,,,,,,,,,,,,,,,,,,,,,,,,,,307.94720990001224,307.9633731000358,308.44676670001354,308.44676670001354,308.44676670001354,308.44676670001354,308.46341260010377,,,,308.68093470006716,m,0.22266330011188984,None,308.6813605000498,308.69699850003235,309.69731370010413,309.6812189000193,,,,,,,,,,,,,,,,,,,,,,,,,,,,,,,,,,,,,,,,,,,,,,,,,,,,,,,,,,,,,,,,,,,,,,,,,,,,,,A_8,001,2024-11-28_16h17.01.820,untitled,2024.1.5,None,2024-11-28 16h17.13.192701 +0530,
square.png,you,0,Z,,,,,,,,,22,0,88,2,,,,,,,,,309.69731370010413,,,,,,,,,,,,,,,,,,,,,,,,,,,,,,,,,,,,,,,,,,,,,,,,,,,,,,,,,,,,309.6815721000312,309.69731370010413,310.1810800000094,310.1810800000094,310.1810800000094,310.1810800000094,310.197797400062,,,,310.36514090001583,m,0.1691512999823317,None,310.36556850001216,310.3813955000369,311.38173350004945,311.3653003000654,,,,,,,,,,,,,,,,,,,,,,,,,,,,,,,,,,,,,,,,,,,,,,,,,,,,,,,,,,,,,,,,,,,,,,,,,,,,,,A_8,001,2024-11-28_16h17.01.820,untitled,2024.1.5,None,2024-11-28 16h17.13.192701 +0530,
square.png,stranger,1,M,,,,,,,,,22,1,89,0,,,,,,,,,311.38173350004945,,,,,,,,,,,,,,,,,,,,,,,,,,,,,,,,,,,,,,,,,,,,,,,,,,,,,,,,,,,,311.3656478000339,311.38173350004945,311.8654999000719,311.8654999000719,311.8654999000719,311.8654999000719,311.8818184999982,,,,312.1325393000152,m,0.26577329996507615,None,312.1329801999964,312.14866090007126,313.1493074001046,313.13282480009366,,,,,,,,,,,,,,,,,,,,,,,,,,,,,,,,,,,,,,,,,,,,,,,,,,,,,,,,,,,,,,,,,,,,,,,,,,,,,,A_8,001,2024-11-28_16h17.01.820,untitled,2024.1.5,None,2024-11-28 16h17.13.192701 +0530,
triangle.png,you,1,M,,,,,,,,,22,2,90,1,,,,,,,,,313.1493074001046,,,,,,,,,,,,,,,,,,,,,,,,,,,,,,,,,,,,,,,,,,,,,,,,,,,,,,,,,,,,313.1331858000485,313.1493074001046,313.6329109000508,313.6329109000508,313.6329109000508,313.6329109000508,313.6495172000723,313.93298380007036,313.93298380007036,313.93298380007036,314.01719120005146,z,0.3816293999552727,None,314.0176151000196,314.03294890001416,315.0334272000473,315.01713920000475,,,,,,,,,,,,,,,,,,,,,,,,,,,,,,,,,,,,,,,,,,,,,,,,,,,,,,,,,,,,,,,,,,,,,,,,,,,,,,A_8,001,2024-11-28_16h17.01.820,untitled,2024.1.5,None,2024-11-28 16h17.13.192701 +0530,
triangle.png,stranger,0,Z,,,,,,,,,22,3,91,3,,,,,,,,,315.0334272000473,,,,,,,,,,,,,,,,,,,,,,,,,,,,,,,,,,,,,,,,,,,,,,,,,,,,,,,,,,,,315.0174933000235,315.0334272000473,315.51732370001264,315.51732370001264,315.51732370001264,315.51732370001264,315.53395440010354,315.81719259999227,315.81719259999227,315.81719259999227,315.8016953000333,m,0.2734789000824094,None,315.8021185999969,315.81719259999227,316.8177067000652,316.8013758000452,,,,,,,,,,,,,,,,,,,,,,,,,,,,,,,,,,,,,,,,,,,,,,,,,,,,,,,,,,,,,,,,,,,,,,,,,,,,,,A_8,001,2024-11-28_16h17.01.820,untitled,2024.1.5,None,2024-11-28 16h17.13.192701 +0530,
triangle.png,stranger,0,Z,,,,,,,,,23,0,92,3,,,,,,,,,316.8177067000652,,,,,,,,,,,,,,,,,,,,,,,,,,,,,,,,,,,,,,,,,,,,,,,,,,,,,,,,,,,,316.8017364999978,316.8177067000652,317.30136220005807,317.30136220005807,317.30136220005807,317.30136220005807,317.31817940005567,,,,317.5522627000464,z,0.2492165999719873,None,317.55268690001685,317.5682083000429,318.56879500008654,318.5523020999972,,,,,,,,,,,,,,,,,,,,,,,,,,,,,,,,,,,,,,,,,,,,,,,,,,,,,,,,,,,,,,,,,,,,,,,,,,,,,,A_8,001,2024-11-28_16h17.01.820,untitled,2024.1.5,None,2024-11-28 16h17.13.192701 +0530,
square.png,stranger,1,M,,,,,,,,,23,1,93,0,,,,,,,,,318.56879500008654,,,,,,,,,,,,,,,,,,,,,,,,,,,,,,,,,,,,,,,,,,,,,,,,,,,,,,,,,,,,318.55264890007675,318.56879500008654,319.0523938999977,319.0523938999977,319.0523938999977,319.0523938999977,319.0688391000731,,,,319.236247700057,m,0.17809509998187423,None,319.23670000000857,319.2524892000947,320.25293590000365,320.23672730010003,,,,,,,,,,,,,,,,,,,,,,,,,,,,,,,,,,,,,,,,,,,,,,,,,,,,,,,,,,,,,,,,,,,,,,,,,,,,,,A_8,001,2024-11-28_16h17.01.820,untitled,2024.1.5,None,2024-11-28 16h17.13.192701 +0530,
triangle.png,you,1,M,,,,,,,,,23,2,94,1,,,,,,,,,320.25293590000365,,,,,,,,,,,,,,,,,,,,,,,,,,,,,,,,,,,,,,,,,,,,,,,,,,,,,,,,,,,,320.23707910010125,320.25293590000365,320.7367343000369,320.7367343000369,320.7367343000369,320.7367343000369,320.7530771000311,321.036484500044,321.036484500044,321.036484500044,321.8207392001059,None,,,321.82093879999593,321.8371062000515,322.8374849000247,322.8214297000086,321.8371062000515,,,,,,,,,,,,,,,,,,,,,,,,,,,,,,,,,,,,,,,,,,,,,,,,,,,,,,,,,,,,,,,,,,,,,,,,,,,,,A_8,001,2024-11-28_16h17.01.820,untitled,2024.1.5,None,2024-11-28 16h17.13.192701 +0530,
square.png,you,0,Z,,,,,,,,,23,3,95,2,,,,,,,,,322.8374849000247,,,,,,,,,,,,,,,,,,,,,,,,,,,,,,,,,,,,,,,,,,,,,,,,,,,,,,,,,,,,322.8218023000518,322.8374849000247,323.3380855000578,323.3380855000578,323.3380855000578,323.3380855000578,323.3380855000578,323.637801200035,323.637801200035,323.637801200035,323.6385855000699,z,0.2996139000169933,None,323.6390187999932,323.6543842999963,324.65520180005115,324.6389462000225,,,,,,,,,,,,,,,,,,,,,,,,,,,,,,,,,,,,,,,,,,,,,,,,,,,,,,,,,,,,,,,,,,,,,,,,,,,,,,A_8,001,2024-11-28_16h17.01.820,untitled,2024.1.5,None,2024-11-28 16h17.13.192701 +0530,
triangle.png,you,1,M,,,,,,,,,24,0,96,1,,,,,,,,,324.65520180005115,,,,,,,,,,,,,,,,,,,,,,,,,,,,,,,,,,,,,,,,,,,,,,,,,,,,,,,,,,,,324.6393032000633,324.65520180005115,325.13862179999705,325.13862179999705,325.13862179999705,325.13862179999705,325.15556089999154,,,,325.35622000007425,m,0.20772099995519966,None,325.35665180010255,325.3722068000352,326.3724914001068,326.3566116000293,,,,,,,,,,,,,,,,,,,,,,,,,,,,,,,,,,,,,,,,,,,,,,,,,,,,,,,,,,,,,,,,,,,,,,,,,,,,,,A_8,001,2024-11-28_16h17.01.820,untitled,2024.1.5,None,2024-11-28 16h17.13.192701 +0530,
triangle.png,stranger,0,Z,,,,,,,,,24,1,97,3,,,,,,,,,326.3724914001068,,,,,,,,,,,,,,,,,,,,,,,,,,,,,,,,,,,,,,,,,,,,,,,,,,,,,,,,,,,,326.3569621000206,326.3724914001068,326.8563422000734,326.8563422000734,326.8563422000734,326.8563422000734,326.8730159000261,327.15648400003556,327.15648400003556,327.15648400003556,327.1572215000633,m,0.2856712000211701,None,327.1576432000147,327.1729545000708,328.173737800098,328.1572471000254,,,,,,,,,,,,,,,,,,,,,,,,,,,,,,,,,,,,,,,,,,,,,,,,,,,,,,,,,,,,,,,,,,,,,,,,,,,,,,A_8,001,2024-11-28_16h17.01.820,untitled,2024.1.5,None,2024-11-28 16h17.13.192701 +0530,
square.png,stranger,1,M,,,,,,,,,24,2,98,0,,,,,,,,,328.173737800098,,,,,,,,,,,,,,,,,,,,,,,,,,,,,,,,,,,,,,,,,,,,,,,,,,,,,,,,,,,,328.15759529999923,328.173737800098,328.65717820008285,328.65717820008285,328.65717820008285,328.65717820008285,328.673801500001,,,,328.90802910004277,z,0.24559109995607287,None,328.90846659999806,328.9241585000418,329.9244669000618,329.90826330007985,,,,,,,,,,,,,,,,,,,,,,,,,,,,,,,,,,,,,,,,,,,,,,,,,,,,,,,,,,,,,,,,,,,,,,,,,,,,,,A_8,001,2024-11-28_16h17.01.820,untitled,2024.1.5,None,2024-11-28 16h17.13.192701 +0530,
square.png,you,0,Z,,,,,,,,,24,3,99,2,,,,,,,,,329.9244669000618,,,,,,,,,,,,,,,,,,,,,,,,,,,,,,,,,,,,,,,,,,,,,,,,,,,,,,,,,,,,329.908612200059,329.9244669000618,330.40816700004507,330.40816700004507,330.40816700004507,330.40816700004507,330.42494290007744,,,,330.6421869000187,m,0.23047710000537336,None,330.64261040010024,330.65815650008153,331.65874320000876,331.64244470000267,,,,,,,,,,,,,,,,,,,,,,,,,,,,,,,,,,,,,,,,,,,,,,,,,,,,,,,,,,,,,,,,,,,,,,,,,,,,,,A_8,001,2024-11-28_16h17.01.820,untitled,2024.1.5,None,2024-11-28 16h17.13.192701 +0530,
triangle.png,you,1,M,,,,,,,,,25,0,100,1,,,,,,,,,331.65874320000876,,,,,,,,,,,,,,,,,,,,,,,,,,,,,,,,,,,,,,,,,,,,,,,,,,,,,,,,,,,,331.6427944001043,331.65874320000876,332.1423130000476,332.1423130000476,332.1423130000476,332.1423130000476,332.15918130008504,,,,332.4098709000973,z,0.25125940004363656,None,332.4102947000647,332.4256609000731,333.42639490007423,333.4100408999948,,,,,,,,,,,,,,,,,,,,,,,,,,,,,,,,,,,,,,,,,,,,,,,,,,,,,,,,,,,,,,,,,,,,,,,,,,,,,,A_8,001,2024-11-28_16h17.01.820,untitled,2024.1.5,None,2024-11-28 16h17.13.192701 +0530,
triangle.png,stranger,0,Z,,,,,,,,,25,1,101,3,,,,,,,,,333.42639490007423,,,,,,,,,,,,,,,,,,,,,,,,,,,,,,,,,,,,,,,,,,,,,,,,,,,,,,,,,,,,333.41038720007055,333.42639490007423,333.9098918000236,333.9098918000236,333.9098918000236,333.9098918000236,333.92690660001244,,,,334.14411200000905,z,0.22420320007950068,None,334.14453480008524,334.16016700002365,335.1606000000611,335.14427010004874,,,,,,,,,,,,,,,,,,,,,,,,,,,,,,,,,,,,,,,,,,,,,,,,,,,,,,,,,,,,,,,,,,,,,,,,,,,,,,A_8,001,2024-11-28_16h17.01.820,untitled,2024.1.5,None,2024-11-28 16h17.13.192701 +0530,
square.png,stranger,1,M,,,,,,,,,25,2,102,0,,,,,,,,,335.1606000000611,,,,,,,,,,,,,,,,,,,,,,,,,,,,,,,,,,,,,,,,,,,,,,,,,,,,,,,,,,,,335.1446295999922,335.1606000000611,335.64412980002817,335.64412980002817,335.64412980002817,335.64412980002817,335.66101040004287,,,,335.8451440000208,z,0.19455940008629113,None,335.84556670009624,335.86067470000125,336.86130700004287,336.8451697001001,,,,,,,,,,,,,,,,,,,,,,,,,,,,,,,,,,,,,,,,,,,,,,,,,,,,,,,,,,,,,,,,,,,,,,,,,,,,,,A_8,001,2024-11-28_16h17.01.820,untitled,2024.1.5,None,2024-11-28 16h17.13.192701 +0530,
square.png,you,0,Z,,,,,,,,,25,3,103,2,,,,,,,,,336.86130700004287,,,,,,,,,,,,,,,,,,,,,,,,,,,,,,,,,,,,,,,,,,,,,,,,,,,,,,,,,,,,336.8455230999971,336.86130700004287,337.34524960001,337.34524960001,337.34524960001,337.34524960001,337.3615462000016,,,,337.4626805000007,z,0.10088830010499805,None,337.46310710010584,337.47849850007333,338.4788484000601,338.46253170003183,,,,,,,,,,,,,,,,,,,,,,,,,,,,,,,,,,,,,,,,,,,,,,,,,,,,,,,,,,,,,,,,,,,,,,,,,,,,,,A_8,001,2024-11-28_16h17.01.820,untitled,2024.1.5,None,2024-11-28 16h17.13.192701 +0530,
triangle.png,stranger,0,Z,,,,,,,,,26,0,104,3,,,,,,,,,338.4788484000601,,,,,,,,,,,,,,,,,,,,,,,,,,,,,,,,,,,,,,,,,,,,,,,,,,,,,,,,,,,,338.4628824000247,338.4788484000601,338.96286950004287,338.96286950004287,338.96286950004287,338.96286950004287,338.97928830003366,,,,339.0802484001033,m,0.10804019996430725,None,339.08067230007146,339.09583910007495,340.0962581000058,340.08015280007385,,,,,,,,,,,,,,,,,,,,,,,,,,,,,,,,,,,,,,,,,,,,,,,,,,,,,,,,,,,,,,,,,,,,,,,,,,,,,,A_8,001,2024-11-28_16h17.01.820,untitled,2024.1.5,None,2024-11-28 16h17.13.192701 +0530,
square.png,you,0,Z,,,,,,,,,26,1,105,2,,,,,,,,,340.0962581000058,,,,,,,,,,,,,,,,,,,,,,,,,,,,,,,,,,,,,,,,,,,,,,,,,,,,,,,,,,,,340.08050230005756,340.0962581000058,340.5801980000688,340.5801980000688,340.5801980000688,340.5801980000688,340.59673059999477,,,,340.74751140002627,z,0.15036460000555962,None,340.7479350999929,340.7634413000196,341.76390280004125,341.7475986999925,,,,,,,,,,,,,,,,,,,,,,,,,,,,,,,,,,,,,,,,,,,,,,,,,,,,,,,,,,,,,,,,,,,,,,,,,,,,,,A_8,001,2024-11-28_16h17.01.820,untitled,2024.1.5,None,2024-11-28 16h17.13.192701 +0530,
square.png,stranger,1,M,,,,,,,,,26,2,106,0,,,,,,,,,341.76390280004125,,,,,,,,,,,,,,,,,,,,,,,,,,,,,,,,,,,,,,,,,,,,,,,,,,,,,,,,,,,,341.74795590003487,341.76390280004125,342.24782450008206,342.24782450008206,342.24782450008206,342.24782450008206,342.26440210000146,342.5477202000329,342.5477202000329,342.5477202000329,343.33189970010426,None,,,343.33208930003457,343.3481543000089,344.3485869000433,344.3324085000204,343.3481543000089,,,,,,,,,,,,,,,,,,,,,,,,,,,,,,,,,,,,,,,,,,,,,,,,,,,,,,,,,,,,,,,,,,,,,,,,,,,,,A_8,001,2024-11-28_16h17.01.820,untitled,2024.1.5,None,2024-11-28 16h17.13.192701 +0530,
triangle.png,you,1,M,,,,,,,,,26,3,107,1,,,,,,,,,344.3485869000433,,,,,,,,,,,,,,,,,,,,,,,,,,,,,,,,,,,,,,,,,,,,,,,,,,,,,,,,,,,,344.33276570006274,344.3485869000433,344.84898420004174,344.84898420004174,344.84898420004174,344.84898420004174,344.84898420004174,345.1489511000691,345.1489511000691,345.1489511000691,345.1832259000512,z,0.3217539000324905,None,345.1836543000536,345.19887760002166,346.19958630006295,346.1833583000116,,,,,,,,,,,,,,,,,,,,,,,,,,,,,,,,,,,,,,,,,,,,,,,,,,,,,,,,,,,,,,,,,,,,,,,,,,,,,,A_8,001,2024-11-28_16h17.01.820,untitled,2024.1.5,None,2024-11-28 16h17.13.192701 +0530,
square.png,stranger,1,M,,,,,,,,,27,0,108,0,,,,,,,,,346.19958630006295,,,,,,,,,,,,,,,,,,,,,,,,,,,,,,,,,,,,,,,,,,,,,,,,,,,,,,,,,,,,346.1837149000494,346.19958630006295,346.68336150003597,346.68336150003597,346.68336150003597,346.68336150003597,346.69970250001643,,,,346.88407910009846,m,0.19163600006140769,None,346.8845061000902,346.89968110003974,347.900310200057,347.88405120000243,,,,,,,,,,,,,,,,,,,,,,,,,,,,,,,,,,,,,,,,,,,,,,,,,,,,,,,,,,,,,,,,,,,,,,,,,,,,,,A_8,001,2024-11-28_16h17.01.820,untitled,2024.1.5,None,2024-11-28 16h17.13.192701 +0530,
square.png,you,0,Z,,,,,,,,,27,1,109,2,,,,,,,,,347.900310200057,,,,,,,,,,,,,,,,,,,,,,,,,,,,,,,,,,,,,,,,,,,,,,,,,,,,,,,,,,,,347.88440070010256,347.900310200057,348.3839626000263,348.3839626000263,348.3839626000263,348.3839626000263,348.4008550000144,348.6841839000117,348.6841839000117,348.6841839000117,348.93505830003414,z,0.542638499988243,None,348.9354835000122,348.95110080007,349.9516428000061,349.93528190010693,,,,,,,,,,,,,,,,,,,,,,,,,,,,,,,,,,,,,,,,,,,,,,,,,,,,,,,,,,,,,,,,,,,,,,,,,,,,,,A_8,001,2024-11-28_16h17.01.820,untitled,2024.1.5,None,2024-11-28 16h17.13.192701 +0530,
triangle.png,stranger,0,Z,,,,,,,,,27,2,110,3,,,,,,,,,349.9516428000061,,,,,,,,,,,,,,,,,,,,,,,,,,,,,,,,,,,,,,,,,,,,,,,,,,,,,,,,,,,,349.9356359000085,349.9516428000061,350.4350299000507,350.4350299000507,350.4350299000507,350.4350299000507,350.45189210004173,350.7350655000191,350.7350655000191,350.7350655000191,350.8191804999951,m,0.382792399963364,None,350.81963560008444,350.8352201000089,351.8355988000985,351.8196181000676,,,,,,,,,,,,,,,,,,,,,,,,,,,,,,,,,,,,,,,,,,,,,,,,,,,,,,,,,,,,,,,,,,,,,,,,,,,,,,A_8,001,2024-11-28_16h17.01.820,untitled,2024.1.5,None,2024-11-28 16h17.13.192701 +0530,
triangle.png,you,1,M,,,,,,,,,27,3,111,1,,,,,,,,,351.8355988000985,,,,,,,,,,,,,,,,,,,,,,,,,,,,,,,,,,,,,,,,,,,,,,,,,,,,,,,,,,,,351.82002210000064,351.8355988000985,352.31936780002434,352.31936780002434,352.31936780002434,352.31936780002434,352.3359342000913,,,,352.5870672001038,z,0.26207550009712577,None,352.58749210007954,352.6028274000855,353.6031495000934,353.5871346000349,,,,,,,,,,,,,,,,,,,,,,,,,,,,,,,,,,,,,,,,,,,,,,,,,,,,,,,,,,,,,,,,,,,,,,,,,,,,,,A_8,001,2024-11-28_16h17.01.820,untitled,2024.1.5,None,2024-11-28 16h17.13.192701 +0530,
triangle.png,you,1,M,,,,,,,,,28,0,112,1,,,,,,,,,353.6031495000934,,,,,,,,,,,,,,,,,,,,,,,,,,,,,,,,,,,,,,,,,,,,,,,,,,,,,,,,,,,,353.58748139999807,353.6031495000934,354.08728400000837,354.08728400000837,354.08728400000837,354.08728400000837,354.10353720001876,,,,354.32128490007017,m,0.21876550000160933,None,354.3217153000878,354.33690580003895,355.33755910000764,355.32124950003345,,,,,,,,,,,,,,,,,,,,,,,,,,,,,,,,,,,,,,,,,,,,,,,,,,,,,,,,,,,,,,,,,,,,,,,,,,,,,,A_8,001,2024-11-28_16h17.01.820,untitled,2024.1.5,None,2024-11-28 16h17.13.192701 +0530,
square.png,stranger,1,M,,,,,,,,,28,1,113,0,,,,,,,,,355.33755910000764,,,,,,,,,,,,,,,,,,,,,,,,,,,,,,,,,,,,,,,,,,,,,,,,,,,,,,,,,,,,355.3216036000522,355.33755910000764,355.8211598000489,355.8211598000489,355.8211598000489,355.8211598000489,355.8379235001048,356.12136550003197,356.12136550003197,356.12136550003197,356.3222731000278,m,0.4899006000487134,None,356.3227001000196,356.3379339000676,357.3386383000761,357.322399900062,,,,,,,,,,,,,,,,,,,,,,,,,,,,,,,,,,,,,,,,,,,,,,,,,,,,,,,,,,,,,,,,,,,,,,,,,,,,,,A_8,001,2024-11-28_16h17.01.820,untitled,2024.1.5,None,2024-11-28 16h17.13.192701 +0530,
triangle.png,stranger,0,Z,,,,,,,,,28,2,114,3,,,,,,,,,357.3386383000761,,,,,,,,,,,,,,,,,,,,,,,,,,,,,,,,,,,,,,,,,,,,,,,,,,,,,,,,,,,,357.3227515000617,357.3386383000761,357.82213690003846,357.82213690003846,357.82213690003846,357.82213690003846,357.8389325001044,358.1222557000583,358.1222557000583,358.1222557000583,358.68999660003465,z,0.8526324999984354,None,358.6904397000326,358.70595050009433,359.70642880001105,359.6902267000405,,,,,,,,,,,,,,,,,,,,,,,,,,,,,,,,,,,,,,,,,,,,,,,,,,,,,,,,,,,,,,,,,,,,,,,,,,,,,,A_8,001,2024-11-28_16h17.01.820,untitled,2024.1.5,None,2024-11-28 16h17.13.192701 +0530,
square.png,you,0,Z,,,,,,,,,28,3,115,2,,,,,,,,,359.70642880001105,,,,,,,,,,,,,,,,,,,,,,,,,,,,,,,,,,,,,,,,,,,,,,,,,,,,,,,,,,,,359.69057920004707,359.70642880001105,360.1902599000605,360.1902599000605,360.1902599000605,360.1902599000605,360.20667800004594,360.4900352000259,360.4900352000259,360.4900352000259,360.5910737999948,m,0.3912770999595523,None,360.5914986000862,360.6070050999988,361.60755680000875,361.59110850002617,,,,,,,,,,,,,,,,,,,,,,,,,,,,,,,,,,,,,,,,,,,,,,,,,,,,,,,,,,,,,,,,,,,,,,,,,,,,,,A_8,001,2024-11-28_16h17.01.820,untitled,2024.1.5,None,2024-11-28 16h17.13.192701 +0530,
square.png,you,0,Z,,,,,,,,,29,0,116,2,,,,,,,,,361.60755680000875,,,,,,,,,,,,,,,,,,,,,,,,,,,,,,,,,,,,,,,,,,,,,,,,,,,,,,,,,,,,361.5914626000449,361.60755680000875,362.09096550010145,362.09096550010145,362.09096550010145,362.09096550010145,362.10758890002035,362.3909290001029,362.3909290001029,362.3909290001029,362.3751134000486,z,0.26795159990433604,None,362.375541800051,362.3909290001029,363.39159380004276,363.37547100009397,,,,,,,,,,,,,,,,,,,,,,,,,,,,,,,,,,,,,,,,,,,,,,,,,,,,,,,,,,,,,,,,,,,,,,,,,,,,,,A_8,001,2024-11-28_16h17.01.820,untitled,2024.1.5,None,2024-11-28 16h17.13.192701 +0530,
triangle.png,you,1,M,,,,,,,,,29,1,117,1,,,,,,,,,363.39159380004276,,,,,,,,,,,,,,,,,,,,,,,,,,,,,,,,,,,,,,,,,,,,,,,,,,,,,,,,,,,,363.37588910001796,363.39159380004276,363.8754275999963,363.8754275999963,363.8754275999963,363.8754275999963,363.8920158999972,364.17521870008204,364.17521870008204,364.17521870008204,364.29278340004385,m,0.4153107999591157,None,364.29320660000667,364.3087529001059,365.30926660005935,365.29316890006885,,,,,,,,,,,,,,,,,,,,,,,,,,,,,,,,,,,,,,,,,,,,,,,,,,,,,,,,,,,,,,,,,,,,,,,,,,,,,,A_8,001,2024-11-28_16h17.01.820,untitled,2024.1.5,None,2024-11-28 16h17.13.192701 +0530,
square.png,stranger,1,M,,,,,,,,,29,2,118,0,,,,,,,,,365.30926660005935,,,,,,,,,,,,,,,,,,,,,,,,,,,,,,,,,,,,,,,,,,,,,,,,,,,,,,,,,,,,365.29351900005713,365.30926660005935,365.7931533000665,365.7931533000665,365.7931533000665,365.7931533000665,365.80979520000983,366.0930812000297,366.0930812000297,366.0930812000297,366.2105921000475,m,0.4099182999925688,None,366.21101650001947,366.226527400082,367.22688920004293,367.21062640007585,,,,,,,,,,,,,,,,,,,,,,,,,,,,,,,,,,,,,,,,,,,,,,,,,,,,,,,,,,,,,,,,,,,,,,,,,,,,,,A_8,001,2024-11-28_16h17.01.820,untitled,2024.1.5,None,2024-11-28 16h17.13.192701 +0530,
triangle.png,stranger,0,Z,,,,,,,,,29,3,119,3,,,,,,,,,367.22688920004293,,,,,,,,,,,,,,,,,,,,,,,,,,,,,,,,,,,,,,,,,,,,,,,,,,,,,,,,,,,,367.21097590005957,367.22688920004293,367.7105831000954,367.7105831000954,367.7105831000954,367.7105831000954,367.7272725000512,368.01076910004485,368.01076910004485,368.01076910004485,368.3282572000753,m,0.6084602000191808,None,368.3286802000366,368.3443836000515,369.34486680000555,369.32857950008474,,,,,,,,,,,,,,,,,,,,,,,,,,,,,,,,,,,,,,,,,,,,,,,,,,,,,,,,,,,,,,,,,,,,,,,,,,,,,,A_8,001,2024-11-28_16h17.01.820,untitled,2024.1.5,None,2024-11-28 16h17.13.192701 +0530,
square.png,stranger,1,M,,,,,,,,,30,0,120,0,,,,,,,,,369.34486680000555,,,,,,,,,,,,,,,,,,,,,,,,,,,,,,,,,,,,,,,,,,,,,,,,,,,,,,,,,,,,369.32892800006084,369.34486680000555,369.82859859999735,369.82859859999735,369.82859859999735,369.82859859999735,369.8449322000379,,,,369.96236320002936,m,0.12159419991075993,None,369.9627955000615,369.9783870000392,370.9791314000031,370.96262040000875,,,,,,,,,,,,,,,,,,,,,,,,,,,,,,,,,,,,,,,,,,,,,,,,,,,,,,,,,,,,,,,,,,,,,,,,,,,,,,A_8,001,2024-11-28_16h17.01.820,untitled,2024.1.5,None,2024-11-28 16h17.13.192701 +0530,
square.png,you,0,Z,,,,,,,,,30,1,121,2,,,,,,,,,370.9791314000031,,,,,,,,,,,,,,,,,,,,,,,,,,,,,,,,,,,,,,,,,,,,,,,,,,,,,,,,,,,,370.9629758000374,370.9791314000031,371.4628331999993,371.4628331999993,371.4628331999993,371.4628331999993,371.47917220008094,371.76273000007495,371.76273000007495,371.76273000007495,372.5466892000986,None,,,372.5468867000891,372.56297180010006,373.5637864000164,373.547360900091,372.56297180010006,,,,,,,,,,,,,,,,,,,,,,,,,,,,,,,,,,,,,,,,,,,,,,,,,,,,,,,,,,,,,,,,,,,,,,,,,,,,,A_8,001,2024-11-28_16h17.01.820,untitled,2024.1.5,None,2024-11-28 16h17.13.192701 +0530,
triangle.png,you,1,M,,,,,,,,,30,2,122,1,,,,,,,,,373.5637864000164,,,,,,,,,,,,,,,,,,,,,,,,,,,,,,,,,,,,,,,,,,,,,,,,,,,,,,,,,,,,373.5477161000017,373.5637864000164,374.06375990004744,374.06375990004744,374.06375990004744,374.06375990004744,374.06375990004744,374.3638787000673,374.3638787000673,374.3638787000673,375.1480254000053,None,,,375.1482127000345,375.16434730007313,376.1650082000997,376.1486341001,375.16434730007313,,,,,,,,,,,,,,,,,,,,,,,,,,,,,,,,,,,,,,,,,,,,,,,,,,,,,,,,,,,,,,,,,,,,,,,,,,,,,A_8,001,2024-11-28_16h17.01.820,untitled,2024.1.5,None,2024-11-28 16h17.13.192701 +0530,
triangle.png,stranger,0,Z,,,,,,,,,30,3,123,3,,,,,,,,,376.1650082000997,,,,,,,,,,,,,,,,,,,,,,,,,,,,,,,,,,,,,,,,,,,,,,,,,,,,,,,,,,,,376.1489842000883,376.1650082000997,376.66531870001927,376.66531870001927,376.66531870001927,376.66531870001927,376.66531870001927,,,,376.89949120010715,m,0.22960700001567602,None,376.89992840006016,376.9151354000205,377.9157264000969,377.8995058001019,,,,,,,,,,,,,,,,,,,,,,,,,,,,,,,,,,,,,,,,,,,,,,,,,,,,,,,,,,,,,,,,,,,,,,,,,,,,,,A_8,001,2024-11-28_16h17.01.820,untitled,2024.1.5,None,2024-11-28 16h17.13.192701 +0530,
square.png,you,0,Z,,,,,,,,,31,0,124,2,,,,,,,,,377.9157264000969,,,,,,,,,,,,,,,,,,,,,,,,,,,,,,,,,,,,,,,,,,,,,,,,,,,,,,,,,,,,377.89986820006743,377.9157264000969,378.3993888000259,378.3993888000259,378.3993888000259,378.3993888000259,378.41600309999194,378.6995455001015,378.6995455001015,378.6995455001015,379.30052610009443,m,0.899829400004819,None,379.30094900005497,379.3166210000636,380.3168489000527,380.30082170001697,,,,,,,,,,,,,,,,,,,,,,,,,,,,,,,,,,,,,,,,,,,,,,,,,,,,,,,,,,,,,,,,,,,,,,,,,,,,,,A_8,001,2024-11-28_16h17.01.820,untitled,2024.1.5,None,2024-11-28 16h17.13.192701 +0530,
square.png,stranger,1,M,,,,,,,,,31,1,125,0,,,,,,,,,380.3168489000527,,,,,,,,,,,,,,,,,,,,,,,,,,,,,,,,,,,,,,,,,,,,,,,,,,,,,,,,,,,,380.3011696001049,380.3168489000527,380.80062930006534,380.80062930006534,380.80062930006534,380.80062930006534,380.81747440004256,381.1008205000544,381.1008205000544,381.1008205000544,381.10176079999655,m,0.294215300003998,None,381.10218570008874,381.11738510010764,382.1180496000452,382.1018557000207,,,,,,,,,,,,,,,,,,,,,,,,,,,,,,,,,,,,,,,,,,,,,,,,,,,,,,,,,,,,,,,,,,,,,,,,,,,,,,A_8,001,2024-11-28_16h17.01.820,untitled,2024.1.5,None,2024-11-28 16h17.13.192701 +0530,
triangle.png,you,1,M,,,,,,,,,31,2,126,1,,,,,,,,,382.1180496000452,,,,,,,,,,,,,,,,,,,,,,,,,,,,,,,,,,,,,,,,,,,,,,,,,,,,,,,,,,,,382.1022011000896,382.1180496000452,382.6016036000801,382.6016036000801,382.6016036000801,382.6016036000801,382.6181697000284,382.9017692001071,382.9017692001071,382.9017692001071,383.01932670001406,m,0.41632299998309463,None,383.0197512001032,383.03503270004876,384.03560190007556,384.019484700053,,,,,,,,,,,,,,,,,,,,,,,,,,,,,,,,,,,,,,,,,,,,,,,,,,,,,,,,,,,,,,,,,,,,,,,,,,,,,,A_8,001,2024-11-28_16h17.01.820,untitled,2024.1.5,None,2024-11-28 16h17.13.192701 +0530,
triangle.png,stranger,0,Z,,,,,,,,,31,3,127,3,,,,,,,,,384.03560190007556,,,,,,,,,,,,,,,,,,,,,,,,,,,,,,,,,,,,,,,,,,,,,,,,,,,,,,,,,,,,384.01983540004585,384.03560190007556,384.5194653000217,384.5194653000217,384.5194653000217,384.5194653000217,384.5359956000466,384.8193633001065,384.8193633001065,384.8193633001065,384.97026910004206,m,0.4379941000370309,None,384.9706889000954,384.98609900008887,385.9866192000918,385.97056460008025,,,,,,,,,,,,,,,,,,,,,,,,,,,,,,,,,,,,,,,,,,,,,,,,,,,,,,,,,,,,,,,,,,,,,,,,,,,,,,A_8,001,2024-11-28_16h17.01.820,untitled,2024.1.5,None,2024-11-28 16h17.13.192701 +0530,
square.png,stranger,1,M,,,,,,,,,32,0,128,0,,,,,,,,,385.9866192000918,,,,,,,,,,,,,,,,,,,,,,,,,,,,,,,,,,,,,,,,,,,,,,,,,,,,,,,,,,,,385.9709212000016,385.9866192000918,386.4702361000236,386.4702361000236,386.4702361000236,386.4702361000236,386.4868604000658,386.7704572000075,386.7704572000075,386.7704572000075,387.3714671001071,z,0.8848087000660598,None,387.37188720004633,387.3876378000714,388.3877009000862,388.37162950006314,,,,,,,,,,,,,,,,,,,,,,,,,,,,,,,,,,,,,,,,,,,,,,,,,,,,,,,,,,,,,,,,,,,,,,,,,,,,,,A_8,001,2024-11-28_16h17.01.820,untitled,2024.1.5,None,2024-11-28 16h17.13.192701 +0530,
triangle.png,stranger,0,Z,,,,,,,,,32,1,129,3,,,,,,,,,388.3877009000862,,,,,,,,,,,,,,,,,,,,,,,,,,,,,,,,,,,,,,,,,,,,,,,,,,,,,,,,,,,,388.37198550009634,388.3877009000862,388.87163050007075,388.87163050007075,388.87163050007075,388.87163050007075,388.88826430006884,389.1714911001036,389.1714911001036,389.1714911001036,389.3388211000711,m,0.4510422999737784,None,389.3392474000575,389.3551074001007,390.35544300009497,390.3392991001019,,,,,,,,,,,,,,,,,,,,,,,,,,,,,,,,,,,,,,,,,,,,,,,,,,,,,,,,,,,,,,,,,,,,,,,,,,,,,,A_8,001,2024-11-28_16h17.01.820,untitled,2024.1.5,None,2024-11-28 16h17.13.192701 +0530,
square.png,you,0,Z,,,,,,,,,32,2,130,2,,,,,,,,,390.35544300009497,,,,,,,,,,,,,,,,,,,,,,,,,,,,,,,,,,,,,,,,,,,,,,,,,,,,,,,,,,,,390.3396420000354,390.35544300009497,390.8391260000644,390.8391260000644,390.8391260000644,390.8391260000644,390.8557676000055,391.13932070008013,391.13932070008013,391.13932070008013,391.12342270009685,m,0.28252889995928854,None,391.12386200006586,391.13932070008013,392.1397286000429,392.12381620006636,,,,,,,,,,,,,,,,,,,,,,,,,,,,,,,,,,,,,,,,,,,,,,,,,,,,,,,,,,,,,,,,,,,,,,,,,,,,,,A_8,001,2024-11-28_16h17.01.820,untitled,2024.1.5,None,2024-11-28 16h17.13.192701 +0530,
triangle.png,you,1,M,,,,,,,,,32,3,131,1,,,,,,,,,392.1397286000429,,,,,,,,,,,,,,,,,,,,,,,,,,,,,,,,,,,,,,,,,,,,,,,,,,,,,,,,,,,,392.124165300047,392.1397286000429,392.62364440003876,392.62364440003876,392.62364440003876,392.62364440003876,392.63998740003444,392.92335220007226,392.92335220007226,392.92335220007226,393.3245375000406,m,0.6987618000712246,None,393.3249610000057,393.3404432000825,394.3409555000253,394.32467970007565,,,,,,,,,,,,,,,,,,,,,,,,,,,,,,,,,,,,,,,,,,,,,,,,,,,,,,,,,,,,,,,,,,,,,,,,,,,,,,A_8,001,2024-11-28_16h17.01.820,untitled,2024.1.5,None,2024-11-28 16h17.13.192701 +0530,
triangle.png,stranger,0,Z,,,,,,,,,33,0,132,3,,,,,,,,,394.3409555000253,,,,,,,,,,,,,,,,,,,,,,,,,,,,,,,,,,,,,,,,,,,,,,,,,,,,,,,,,,,,394.32503060007,394.3409555000253,394.8246257000137,394.8246257000137,394.8246257000137,394.8246257000137,394.84104379999917,,,,395.0419559000293,z,0.20471270009875298,None,395.0423827000195,395.05794810003135,396.05859910009895,396.0421735000564,,,,,,,,,,,,,,,,,,,,,,,,,,,,,,,,,,,,,,,,,,,,,,,,,,,,,,,,,,,,,,,,,,,,,,,,,,,,,,A_8,001,2024-11-28_16h17.01.820,untitled,2024.1.5,None,2024-11-28 16h17.13.192701 +0530,
square.png,stranger,1,M,,,,,,,,,33,1,133,0,,,,,,,,,396.05859910009895,,,,,,,,,,,,,,,,,,,,,,,,,,,,,,,,,,,,,,,,,,,,,,,,,,,,,,,,,,,,396.0425233000424,396.05859910009895,396.5424034000607,396.5424034000607,396.5424034000607,396.5424034000607,396.5590587001061,396.8420696000103,396.8420696000103,396.8420696000103,396.9430228000274,m,0.38417740003205836,None,396.943454900058,396.9590562999947,397.95938680006657,397.94309410010464,,,,,,,,,,,,,,,,,,,,,,,,,,,,,,,,,,,,,,,,,,,,,,,,,,,,,,,,,,,,,,,,,,,,,,,,,,,,,,A_8,001,2024-11-28_16h17.01.820,untitled,2024.1.5,None,2024-11-28 16h17.13.192701 +0530,
square.png,you,0,Z,,,,,,,,,33,2,134,2,,,,,,,,,397.95938680006657,,,,,,,,,,,,,,,,,,,,,,,,,,,,,,,,,,,,,,,,,,,,,,,,,,,,,,,,,,,,397.94344820000697,397.95938680006657,398.4430766000878,398.4430766000878,398.4430766000878,398.4430766000878,398.4595179000171,398.7432406001026,398.7432406001026,398.7432406001026,399.0273927000817,m,0.5791587999556214,None,399.02781820006203,399.0431602000026,400.0437910000328,400.02771440008655,,,,,,,,,,,,,,,,,,,,,,,,,,,,,,,,,,,,,,,,,,,,,,,,,,,,,,,,,,,,,,,,,,,,,,,,,,,,,,A_8,001,2024-11-28_16h17.01.820,untitled,2024.1.5,None,2024-11-28 16h17.13.192701 +0530,
triangle.png,you,1,M,,,,,,,,,33,3,135,1,,,,,,,,,400.0437910000328,,,,,,,,,,,,,,,,,,,,,,,,,,,,,,,,,,,,,,,,,,,,,,,,,,,,,,,,,,,,400.0280721000163,400.0437910000328,400.5276949000545,400.5276949000545,400.5276949000545,400.5276949000545,400.5440099000698,,,,400.76169920002576,z,0.22162550000939518,None,400.7621319000609,400.77781450003386,401.7783567000879,401.76198740000837,,,,,,,,,,,,,,,,,,,,,,,,,,,,,,,,,,,,,,,,,,,,,,,,,,,,,,,,,,,,,,,,,,,,,,,,,,,,,,A_8,001,2024-11-28_16h17.01.820,untitled,2024.1.5,None,2024-11-28 16h17.13.192701 +0530,
square.png,you,0,Z,,,,,,,,,34,0,136,2,,,,,,,,,401.7783567000879,,,,,,,,,,,,,,,,,,,,,,,,,,,,,,,,,,,,,,,,,,,,,,,,,,,,,,,,,,,,401.76234710006975,401.7783567000879,402.2616482001031,402.2616482001031,402.2616482001031,402.2616482001031,402.2783517000498,402.5619049000088,402.5619049000088,402.5619049000088,403.09625850000884,m,0.8290770999155939,None,403.0966969000874,403.1119631000329,404.11246120010037,404.09651689999737,,,,,,,,,,,,,,,,,,,,,,,,,,,,,,,,,,,,,,,,,,,,,,,,,,,,,,,,,,,,,,,,,,,,,,,,,,,,,,A_8,001,2024-11-28_16h17.01.820,untitled,2024.1.5,None,2024-11-28 16h17.13.192701 +0530,
square.png,stranger,1,M,,,,,,,,,34,1,137,0,,,,,,,,,404.11246120010037,,,,,,,,,,,,,,,,,,,,,,,,,,,,,,,,,,,,,,,,,,,,,,,,,,,,,,,,,,,,404.09686859999783,404.11246120010037,404.59642870002426,404.59642870002426,404.59642870002426,404.59642870002426,404.6131044999929,404.89639580005314,404.89639580005314,404.89639580005314,405.0640443000011,z,0.4656807000283152,None,405.0644901000196,405.079837199999,406.08039030001964,406.0639331000857,,,,,,,,,,,,,,,,,,,,,,,,,,,,,,,,,,,,,,,,,,,,,,,,,,,,,,,,,,,,,,,,,,,,,,,,,,,,,,A_8,001,2024-11-28_16h17.01.820,untitled,2024.1.5,None,2024-11-28 16h17.13.192701 +0530,
triangle.png,stranger,0,Z,,,,,,,,,34,2,138,3,,,,,,,,,406.08039030001964,,,,,,,,,,,,,,,,,,,,,,,,,,,,,,,,,,,,,,,,,,,,,,,,,,,,,,,,,,,,406.0642837000778,406.08039030001964,406.5640806000447,406.5640806000447,406.5640806000447,406.5640806000447,406.5806696000509,406.8638316000579,406.8638316000579,406.8638316000579,407.2482746000169,m,0.6789412000216544,None,407.2487015000079,407.2641373000806,408.26475530001335,408.24850650003646,,,,,,,,,,,,,,,,,,,,,,,,,,,,,,,,,,,,,,,,,,,,,,,,,,,,,,,,,,,,,,,,,,,,,,,,,,,,,,A_8,001,2024-11-28_16h17.01.820,untitled,2024.1.5,None,2024-11-28 16h17.13.192701 +0530,
triangle.png,you,1,M,,,,,,,,,34,3,139,1,,,,,,,,,408.26475530001335,,,,,,,,,,,,,,,,,,,,,,,,,,,,,,,,,,,,,,,,,,,,,,,,,,,,,,,,,,,,408.24885680002626,408.26475530001335,408.74838590004947,408.74838590004947,408.74838590004947,408.74838590004947,408.7649391000159,409.0485177000519,409.0485177000519,409.0485177000519,409.1993973000208,z,0.44576120004057884,None,409.19982050010003,409.21511820005253,410.2157683999976,410.19965590001084,,,,,,,,,,,,,,,,,,,,,,,,,,,,,,,,,,,,,,,,,,,,,,,,,,,,,,,,,,,,,,,,,,,,,,,,,,,,,,A_8,001,2024-11-28_16h17.01.820,untitled,2024.1.5,None,2024-11-28 16h17.13.192701 +0530,
square.png,you,0,Z,,,,,,,,,35,0,140,2,,,,,,,,,410.2157683999976,,,,,,,,,,,,,,,,,,,,,,,,,,,,,,,,,,,,,,,,,,,,,,,,,,,,,,,,,,,,410.2000809001038,410.2157683999976,410.69936560001224,410.69936560001224,410.69936560001224,410.69936560001224,410.71593520010356,410.99944670009427,410.99944670009427,410.99944670009427,411.78370310005266,None,,,411.78389399999287,411.79991780000273,412.8002863000147,412.7841147000436,411.79991780000273,,,,,,,,,,,,,,,,,,,,,,,,,,,,,,,,,,,,,,,,,,,,,,,,,,,,,,,,,,,,,,,,,,,,,,,,,,,,,A_8,001,2024-11-28_16h17.01.820,untitled,2024.1.5,None,2024-11-28 16h17.13.192701 +0530,
triangle.png,stranger,0,Z,,,,,,,,,35,1,141,3,,,,,,,,,412.8002863000147,,,,,,,,,,,,,,,,,,,,,,,,,,,,,,,,,,,,,,,,,,,,,,,,,,,,,,,,,,,,412.7844683000585,412.8002863000147,413.3009238000959,413.3009238000959,413.3009238000959,413.3009238000959,413.3009238000959,413.60081390000414,413.60081390000414,413.60081390000414,414.16856340004597,z,0.8573359999572858,None,414.16898650000803,414.18455900007393,415.18525050010066,415.1685939000454,,,,,,,,,,,,,,,,,,,,,,,,,,,,,,,,,,,,,,,,,,,,,,,,,,,,,,,,,,,,,,,,,,,,,,,,,,,,,,A_8,001,2024-11-28_16h17.01.820,untitled,2024.1.5,None,2024-11-28 16h17.13.192701 +0530,
square.png,stranger,1,M,,,,,,,,,35,2,142,0,,,,,,,,,415.18525050010066,,,,,,,,,,,,,,,,,,,,,,,,,,,,,,,,,,,,,,,,,,,,,,,,,,,,,,,,,,,,415.16894430003595,415.18525050010066,415.66884210007265,415.66884210007265,415.66884210007265,415.66884210007265,415.68540340010077,415.968712800066,415.968712800066,415.968712800066,416.2196478000842,m,0.5487635999452323,None,416.22007660008967,416.23551930009853,417.23598360002507,417.2198749000672,,,,,,,,,,,,,,,,,,,,,,,,,,,,,,,,,,,,,,,,,,,,,,,,,,,,,,,,,,,,,,,,,,,,,,,,,,,,,,A_8,001,2024-11-28_16h17.01.820,untitled,2024.1.5,None,2024-11-28 16h17.13.192701 +0530,
