stimulus,label,is_match,shouldpress,stimulus_2,label_2,is_match_2,shouldpress_2,p_trials.thisRepN,p_trials.thisTrialN,p_trials.thisN,p_trials.thisIndex,trials.thisRepN,trials.thisTrialN,trials.thisN,trials.thisIndex,p_trials_2.thisRepN,p_trials_2.thisTrialN,p_trials_2.thisN,p_trials_2.thisIndex,trials_2.thisRepN,trials_2.thisTrialN,trials_2.thisN,trials_2.thisIndex,thisRow.t,notes,Intruduction.started,text_3.started,key_resp_2.started,Intruduction.stopped,key_resp_2.keys,key_resp_2.rt,key_resp_2.duration,self_other_instructions.started,text_4.started,key_resp_3.started,self_other_instructions.stopped,key_resp_3.keys,key_resp_3.rt,key_resp_3.duration,self_other_info.started,square_image.started,triangle_image.started,self_label.started,other_label.started,key_resp_4.started,text_5.started,self_other_info.stopped,key_resp_4.keys,key_resp_4.rt,key_resp_4.duration,self_other_starting_2.started,text_6.started,key_resp_5.started,self_other_starting_2.stopped,key_resp_5.keys,key_resp_5.rt,key_resp_5.duration,practice1.started,p_fication.started,p_fixation_3.started,p_text.started,key_resp_p.started,p_image.started,p_fication.stopped,p_fixation_3.stopped,p_text.stopped,p_image.stopped,key_resp_p.stopped,practice1.stopped,key_resp_p.keys,p_feedback.started,text_15.started,p_feedback.stopped,text_15.stopped,key_resp_p.rt,key_resp_p.duration,start2.started,start_2.started,key_resp_11.started,start2.stopped,key_resp_11.keys,key_resp_11.rt,key_resp_11.duration,trial.started,fixation.started,fixation_3.started,text.started,key_resp.started,image.started,fixation.stopped,fixation_3.stopped,text.stopped,image.stopped,trial.stopped,key_resp.keys,key_resp.rt,key_resp.duration,feedback.started,text_2.started,text_2.stopped,feedback.stopped,key_resp.stopped,break_3.started,text_13.started,text_14.started,key_resp_10.started,text_13.stopped,break_3.stopped,key_resp_10.keys,key_resp_10.rt,key_resp_10.duration,self_other_instructions_2.started,text_10.started,key_resp_7.started,self_other_instructions_2.stopped,key_resp_7.keys,key_resp_7.rt,key_resp_7.duration,self_other_intro_2.started,circle_image.started,diamond_image.started,Disgusting_self_lable.started,Desirable_self_lable.started,key_resp_8.started,text_11.started,self_other_intro_2.stopped,key_resp_8.keys,key_resp_8.rt,key_resp_8.duration,self_other_starting_3.started,text_12.started,key_resp_9.started,self_other_starting_3.stopped,key_resp_9.keys,key_resp_9.rt,key_resp_9.duration,practice2.started,p_fixation_2.started,p_fixation_4.started,p_text_8.started,key_resp_6_p.started,p_image_2.started,p_fixation_2.stopped,p_fixation_4.stopped,p_text_8.stopped,p_image_2.stopped,practice2.stopped,key_resp_6_p.keys,key_resp_6_p.rt,key_resp_6_p.duration,feedback_2_p.started,text_16.started,text_16.stopped,feedback_2_p.stopped,trial_2.started,fixation_2.started,fixation_4.started,text_8.started,key_resp_6.started,image_2.started,fixation_2.stopped,fixation_4.stopped,text_8.stopped,image_2.stopped,trial_2.stopped,key_resp_6.keys,key_resp_6.rt,key_resp_6.duration,feedback_2.started,text_9.started,text_9.stopped,feedback_2.stopped,key_resp_6.stopped,Thank_you.started,text_7.started,text_7.stopped,Thank_you.stopped,participant,session,date,expName,psychopyVersion,frameRate,expStart,
,,,,,,,,,,,,,,,,,,,,,,,,,,0.0026738999877125025,0.006449499982409179,0.006449499982409179,1.8416189999552444,space,1.830988600035198,None,,,,,,,,,,,,,,,,,,,,,,,,,,,,,,,,,,,,,,,,,,,,,,,,,,,,,,,,,,,,,,,,,,,,,,,,,,,,,,,,,,,,,,,,,,,,,,,,,,,,,,,,,,,,,,,,,,,,,,,,,,,,,,,,,,,,,,,,,,,,,,,,,,A_9,001,2024-11-29_10h27.28.431,untitled,2024.1.5,None,2024-11-29 10h27.46.664573 +0530,
,,,,,,,,,,,,,,,,,,,,,,,,,,,,,,,,,1.841642600018531,1.8557968999957666,1.8557968999957666,26.352305099950172,space,24.485660700011067,None,,,,,,,,,,,,,,,,,,,,,,,,,,,,,,,,,,,,,,,,,,,,,,,,,,,,,,,,,,,,,,,,,,,,,,,,,,,,,,,,,,,,,,,,,,,,,,,,,,,,,,,,,,,,,,,,,,,,,,,,,,,,,,,,,,,,,,,,,,,A_9,001,2024-11-29_10h27.28.431,untitled,2024.1.5,None,2024-11-29 10h27.46.664573 +0530,
,,,,,,,,,,,,,,,,,,,,,,,,,,,,,,,,,,,,,,,,26.35233230004087,26.38546140003018,26.38546140003018,26.38546140003018,26.38546140003018,26.38546140003018,26.38546140003018,86.3491583999712,space,59.952068499987945,None,,,,,,,,,,,,,,,,,,,,,,,,,,,,,,,,,,,,,,,,,,,,,,,,,,,,,,,,,,,,,,,,,,,,,,,,,,,,,,,,,,,,,,,,,,,,,,,,,,,,,,,,,,,,,,,,,,,,,,,,,,,,,,,,A_9,001,2024-11-29_10h27.28.431,untitled,2024.1.5,None,2024-11-29 10h27.46.664573 +0530,
,,,,,,,,,,,,,,,,,,,,,,,,,,,,,,,,,,,,,,,,,,,,,,,,,,,86.34918909997214,86.3652226999402,86.3652226999402,102.55770150001626,space,16.18784239992965,None,,,,,,,,,,,,,,,,,,,,,,,,,,,,,,,,,,,,,,,,,,,,,,,,,,,,,,,,,,,,,,,,,,,,,,,,,,,,,,,,,,,,,,,,,,,,,,,,,,,,,,,,,,,,,,,,,,,,,,,,,A_9,001,2024-11-29_10h27.28.431,untitled,2024.1.5,None,2024-11-29 10h27.46.664573 +0530,
square.png,stranger,1,M,,,,,0,0,0,0,,,,,,,,,,,,,102.57591939996928,,,,,,,,,,,,,,,,,,,,,,,,,,,,,,,,,,102.56388060003519,102.57591939996928,103.07338399998844,103.07338399998844,103.07338399998844,103.07338399998844,103.08993220003322,103.3735814000247,103.3735814000247,103.3735814000247,104.17372770002112,104.1574496999383,None,104.15765960002318,104.17372770002112,105.15793340001255,,,,,,,,,,,,,,,,,,,,,,,,,,,,,,,,,,,,,,,,,,,,,,,,,,,,,,,,,,,,,,,,,,,,,,,,,,,,,,,,,,,,,,,,,,,,,,,,,,,,,,,,,A_9,001,2024-11-29_10h27.28.431,untitled,2024.1.5,None,2024-11-29 10h27.46.664573 +0530,
triangle.png,you,1,M,,,,,0,1,1,1,,,,,,,,,,,,,105.17466030002106,,,,,,,,,,,,,,,,,,,,,,,,,,,,,,,,,,105.15817800001241,105.17466030002106,105.65792479994707,105.65792479994707,105.65792479994707,105.65792479994707,105.67477539996617,105.95819649996702,105.95819649996702,105.95819649996702,106.75844979996327,106.74222510005347,None,106.74235730001237,106.75844979996327,107.74271719995886,107.75889179995283,,,,,,,,,,,,,,,,,,,,,,,,,,,,,,,,,,,,,,,,,,,,,,,,,,,,,,,,,,,,,,,,,,,,,,,,,,,,,,,,,,,,,,,,,,,,,,,,,,,,,,,,A_9,001,2024-11-29_10h27.28.431,untitled,2024.1.5,None,2024-11-29 10h27.46.664573 +0530,
square.png,you,0,Z,,,,,0,2,2,2,,,,,,,,,,,,,107.75889179995283,,,,,,,,,,,,,,,,,,,,,,,,,,,,,,,,,,107.74295570002869,107.75889179995283,108.25950639997609,108.25950639997609,108.25950639997609,108.25950639997609,108.25950639997609,108.55951589997858,108.55951589997858,108.55951589997858,,108.6271759000374,m,108.62749949994031,108.64295130001847,109.6270349000115,109.64326479996089,0.3656704999739304,None,,,,,,,,,,,,,,,,,,,,,,,,,,,,,,,,,,,,,,,,,,,,,,,,,,,,,,,,,,,,,,,,,,,,,,,,,,,,,,,,,,,,,,,,,,,,,,,,,,,,,,A_9,001,2024-11-29_10h27.28.431,untitled,2024.1.5,None,2024-11-29 10h27.46.664573 +0530,
triangle.png,stranger,0,Z,,,,,0,3,3,3,,,,,,,,,,,,,109.64326479996089,,,,,,,,,,,,,,,,,,,,,,,,,,,,,,,,,,109.62727229995653,109.64326479996089,110.12724970001727,110.12724970001727,110.12724970001727,110.12724970001727,110.1438137999503,110.42699069995433,110.42699069995433,110.42699069995433,,110.5274646000471,z,110.52771559997927,110.54374610004015,111.52796840004157,111.54447950003669,0.3971783999586478,None,,,,,,,,,,,,,,,,,,,,,,,,,,,,,,,,,,,,,,,,,,,,,,,,,,,,,,,,,,,,,,,,,,,,,,,,,,,,,,,,,,,,,,,,,,,,,,,,,,,,,,A_9,001,2024-11-29_10h27.28.431,untitled,2024.1.5,None,2024-11-29 10h27.46.664573 +0530,
square.png,stranger,1,M,,,,,1,0,4,0,,,,,,,,,,,,,111.54447950003669,,,,,,,,,,,,,,,,,,,,,,,,,,,,,,,,,,111.528202699963,111.54447950003669,112.02804480004124,112.02804480004124,112.02804480004124,112.02804480004124,112.0446590000065,112.3281726000132,112.3281726000132,112.3281726000132,,112.728978500003,m,112.72922810004093,112.7449701000005,113.72931630001403,113.74544500000775,0.6939081000164151,None,,,,,,,,,,,,,,,,,,,,,,,,,,,,,,,,,,,,,,,,,,,,,,,,,,,,,,,,,,,,,,,,,,,,,,,,,,,,,,,,,,,,,,,,,,,,,,,,,,,,,,A_9,001,2024-11-29_10h27.28.431,untitled,2024.1.5,None,2024-11-29 10h27.46.664573 +0530,
triangle.png,you,1,M,,,,,1,1,5,1,,,,,,,,,,,,,113.74544500000775,,,,,,,,,,,,,,,,,,,,,,,,,,,,,,,,,,113.72955149994232,113.74544500000775,114.22933729994111,114.22933729994111,114.22933729994111,114.22933729994111,114.2460125000216,114.52907359995879,114.52907359995879,114.52907359995879,,114.56325150001794,m,114.56349530001171,114.5791029999964,115.56338439998217,115.57978779997211,0.32073869998566806,None,,,,,,,,,,,,,,,,,,,,,,,,,,,,,,,,,,,,,,,,,,,,,,,,,,,,,,,,,,,,,,,,,,,,,,,,,,,,,,,,,,,,,,,,,,,,,,,,,,,,,,A_9,001,2024-11-29_10h27.28.431,untitled,2024.1.5,None,2024-11-29 10h27.46.664573 +0530,
square.png,you,0,Z,,,,,1,2,6,2,,,,,,,,,,,,,115.57978779997211,,,,,,,,,,,,,,,,,,,,,,,,,,,,,,,,,,115.56361870002002,115.57978779997211,116.06345989997499,116.06345989997499,116.06345989997499,116.06345989997499,116.08012479997706,116.36347450001631,116.36347450001631,116.36347450001631,,116.4307104999898,m,116.43096120003611,116.44666649994906,117.43110139993951,117.44753180001862,0.3535570000531152,None,,,,,,,,,,,,,,,,,,,,,,,,,,,,,,,,,,,,,,,,,,,,,,,,,,,,,,,,,,,,,,,,,,,,,,,,,,,,,,,,,,,,,,,,,,,,,,,,,,,,,,A_9,001,2024-11-29_10h27.28.431,untitled,2024.1.5,None,2024-11-29 10h27.46.664573 +0530,
triangle.png,stranger,0,Z,,,,,1,3,7,3,,,,,,,,,,,,,117.44753180001862,,,,,,,,,,,,,,,,,,,,,,,,,,,,,,,,,,117.43133579997811,117.44753180001862,117.93109970004298,117.93109970004298,117.93109970004298,117.93109970004298,117.94782600004692,118.23090960003901,118.23090960003901,118.23090960003901,,118.38185330003034,z,118.38210159994196,118.39790850004647,119.38210399996024,119.39847849996295,0.4452463999623433,None,,,,,,,,,,,,,,,,,,,,,,,,,,,,,,,,,,,,,,,,,,,,,,,,,,,,,,,,,,,,,,,,,,,,,,,,,,,,,,,,,,,,,,,,,,,,,,,,,,,,,,A_9,001,2024-11-29_10h27.28.431,untitled,2024.1.5,None,2024-11-29 10h27.46.664573 +0530,
square.png,stranger,1,M,,,,,2,0,8,0,,,,,,,,,,,,,119.39847849996295,,,,,,,,,,,,,,,,,,,,,,,,,,,,,,,,,,119.3823398000095,119.39847849996295,119.88187130005099,119.88187130005099,119.88187130005099,119.88187130005099,119.89886680000927,,,,,120.13296179997269,m,120.13320749998093,120.14863129996229,121.13294849998783,121.14936349994969,0.24365690001286566,None,,,,,,,,,,,,,,,,,,,,,,,,,,,,,,,,,,,,,,,,,,,,,,,,,,,,,,,,,,,,,,,,,,,,,,,,,,,,,,,,,,,,,,,,,,,,,,,,,,,,,,A_9,001,2024-11-29_10h27.28.431,untitled,2024.1.5,None,2024-11-29 10h27.46.664573 +0530,
triangle.png,you,1,M,,,,,2,1,9,1,,,,,,,,,,,,,121.14936349994969,,,,,,,,,,,,,,,,,,,,,,,,,,,,,,,,,,121.13318390003406,121.14936349994969,121.63295230001677,121.63295230001677,121.63295230001677,121.63295230001677,121.64954969997052,121.93304899998475,121.93304899998475,121.93304899998475,,121.98385429999325,z,121.98410060000606,121.999558600015,122.98392020002939,123.00013359996956,0.34368239995092154,None,,,,,,,,,,,,,,,,,,,,,,,,,,,,,,,,,,,,,,,,,,,,,,,,,,,,,,,,,,,,,,,,,,,,,,,,,,,,,,,,,,,,,,,,,,,,,,,,,,,,,,A_9,001,2024-11-29_10h27.28.431,untitled,2024.1.5,None,2024-11-29 10h27.46.664573 +0530,
square.png,you,0,Z,,,,,2,2,10,2,,,,,,,,,,,,,123.00013359996956,,,,,,,,,,,,,,,,,,,,,,,,,,,,,,,,,,122.9841547999531,123.00013359996956,123.48393959994428,123.48393959994428,123.48393959994428,123.48393959994428,123.50072989996988,123.784066000022,123.784066000022,123.784066000022,,123.76807999995071,m,123.76832359994296,123.784066000022,124.7682947999565,124.78447569999844,0.27365939994342625,None,,,,,,,,,,,,,,,,,,,,,,,,,,,,,,,,,,,,,,,,,,,,,,,,,,,,,,,,,,,,,,,,,,,,,,,,,,,,,,,,,,,,,,,,,,,,,,,,,,,,,,A_9,001,2024-11-29_10h27.28.431,untitled,2024.1.5,None,2024-11-29 10h27.46.664573 +0530,
triangle.png,stranger,0,Z,,,,,2,3,11,3,,,,,,,,,,,,,124.78447569999844,,,,,,,,,,,,,,,,,,,,,,,,,,,,,,,,,,124.76853959995788,124.78447569999844,125.26807270001154,125.26807270001154,125.26807270001154,125.26807270001154,125.28494010004215,125.56829089997336,125.56829089997336,125.56829089997336,,125.60236130002886,m,125.60260800004471,125.61833399999887,126.60251240001526,126.61867740005255,0.3331359999720007,None,,,,,,,,,,,,,,,,,,,,,,,,,,,,,,,,,,,,,,,,,,,,,,,,,,,,,,,,,,,,,,,,,,,,,,,,,,,,,,,,,,,,,,,,,,,,,,,,,,,,,,A_9,001,2024-11-29_10h27.28.431,untitled,2024.1.5,None,2024-11-29 10h27.46.664573 +0530,
triangle.png,you,1,M,,,,,3,0,12,1,,,,,,,,,,,,,126.61867740005255,,,,,,,,,,,,,,,,,,,,,,,,,,,,,,,,,,126.60274470003787,126.61867740005255,127.10244409996085,127.10244409996085,127.10244409996085,127.10244409996085,127.1191189000383,,,,,127.30327569996007,m,127.30352179997135,127.31917449994944,128.3034084000392,128.3197916999925,0.19501070003025234,None,,,,,,,,,,,,,,,,,,,,,,,,,,,,,,,,,,,,,,,,,,,,,,,,,,,,,,,,,,,,,,,,,,,,,,,,,,,,,,,,,,,,,,,,,,,,,,,,,,,,,,A_9,001,2024-11-29_10h27.28.431,untitled,2024.1.5,None,2024-11-29 10h27.46.664573 +0530,
square.png,stranger,1,M,,,,,3,1,13,0,,,,,,,,,,,,,128.3197916999925,,,,,,,,,,,,,,,,,,,,,,,,,,,,,,,,,,128.30364309996367,128.3197916999925,128.80331939994358,128.80331939994358,128.80331939994358,128.80331939994358,128.81995120004285,,,,,128.95396389998496,z,128.95421210001223,128.97013869998045,129.95411679998506,129.97026530001312,0.13392229995224625,None,,,,,,,,,,,,,,,,,,,,,,,,,,,,,,,,,,,,,,,,,,,,,,,,,,,,,,,,,,,,,,,,,,,,,,,,,,,,,,,,,,,,,,,,,,,,,,,,,,,,,,A_9,001,2024-11-29_10h27.28.431,untitled,2024.1.5,None,2024-11-29 10h27.46.664573 +0530,
triangle.png,stranger,0,Z,,,,,3,2,14,3,,,,,,,,,,,,,129.97026530001312,,,,,,,,,,,,,,,,,,,,,,,,,,,,,,,,,,129.9543537000427,129.97026530001312,130.45400449994486,130.45400449994486,130.45400449994486,130.45400449994486,130.4707372999983,,,,,130.53823099995498,m,130.53848119999748,130.55410710000433,131.53817209997214,131.55465399997775,0.07029099995270371,None,,,,,,,,,,,,,,,,,,,,,,,,,,,,,,,,,,,,,,,,,,,,,,,,,,,,,,,,,,,,,,,,,,,,,,,,,,,,,,,,,,,,,,,,,,,,,,,,,,,,,,A_9,001,2024-11-29_10h27.28.431,untitled,2024.1.5,None,2024-11-29 10h27.46.664573 +0530,
square.png,you,0,Z,,,,,3,3,15,2,,,,,,,,,,,,,131.55465399997775,,,,,,,,,,,,,,,,,,,,,,,,,,,,,,,,,,131.53840800002217,131.55465399997775,132.03822230000515,132.03822230000515,132.03822230000515,132.03822230000515,132.05497139994986,,,,,132.1054768000031,m,132.1057307999581,132.12147599994205,133.10574779997114,133.12208939995617,0.05141610000282526,None,,,,,,,,,,,,,,,,,,,,,,,,,,,,,,,,,,,,,,,,,,,,,,,,,,,,,,,,,,,,,,,,,,,,,,,,,,,,,,,,,,,,,,,,,,,,,,,,,,,,,,A_9,001,2024-11-29_10h27.28.431,untitled,2024.1.5,None,2024-11-29 10h27.46.664573 +0530,
triangle.png,you,1,M,,,,,4,0,16,1,,,,,,,,,,,,,133.12208939995617,,,,,,,,,,,,,,,,,,,,,,,,,,,,,,,,,,133.105986700044,133.12208939995617,133.6057918999577,133.6057918999577,133.6057918999577,133.6057918999577,133.6223231999902,,,,,133.70662379998248,m,133.7068734000204,133.7224924999755,134.7066961999517,134.72301099996548,0.09194690000731498,None,,,,,,,,,,,,,,,,,,,,,,,,,,,,,,,,,,,,,,,,,,,,,,,,,,,,,,,,,,,,,,,,,,,,,,,,,,,,,,,,,,,,,,,,,,,,,,,,,,,,,,A_9,001,2024-11-29_10h27.28.431,untitled,2024.1.5,None,2024-11-29 10h27.46.664573 +0530,
square.png,you,0,Z,,,,,4,1,17,2,,,,,,,,,,,,,134.72301099996548,,,,,,,,,,,,,,,,,,,,,,,,,,,,,,,,,,134.70693069999106,134.72301099996548,135.20687610004097,135.20687610004097,135.20687610004097,135.20687610004097,135.22315259999596,,,,,135.35729189997073,m,135.3575387999881,135.3732240999816,136.35748050000984,136.37381559994537,0.14550599991343915,None,,,,,,,,,,,,,,,,,,,,,,,,,,,,,,,,,,,,,,,,,,,,,,,,,,,,,,,,,,,,,,,,,,,,,,,,,,,,,,,,,,,,,,,,,,,,,,,,,,,,,,A_9,001,2024-11-29_10h27.28.431,untitled,2024.1.5,None,2024-11-29 10h27.46.664573 +0530,
triangle.png,stranger,0,Z,,,,,4,2,18,3,,,,,,,,,,,,,136.37381559994537,,,,,,,,,,,,,,,,,,,,,,,,,,,,,,,,,,136.35771560005378,136.37381559994537,136.85744709998835,136.85744709998835,136.85744709998835,136.85744709998835,136.87405939993914,,,,,136.9581928999396,z,136.9584457000019,136.97412379994057,137.95831859996542,137.97440439998172,0.08447120001073927,None,,,,,,,,,,,,,,,,,,,,,,,,,,,,,,,,,,,,,,,,,,,,,,,,,,,,,,,,,,,,,,,,,,,,,,,,,,,,,,,,,,,,,,,,,,,,,,,,,,,,,,A_9,001,2024-11-29_10h27.28.431,untitled,2024.1.5,None,2024-11-29 10h27.46.664573 +0530,
square.png,stranger,1,M,,,,,4,3,19,0,,,,,,,,,,,,,137.97440439998172,,,,,,,,,,,,,,,,,,,,,,,,,,,,,,,,,,137.95855640002992,137.97440439998172,138.45822559995577,138.45822559995577,138.45822559995577,138.45822559995577,138.47510839998722,,,,,138.54271629999857,m,138.54296109999996,138.5583790000528,139.5424098999938,139.55885859997943,0.07003599999006838,None,,,,,,,,,,,,,,,,,,,,,,,,,,,,,,,,,,,,,,,,,,,,,,,,,,,,,,,,,,,,,,,,,,,,,,,,,,,,,,,,,,,,,,,,,,,,,,,,,,,,,,A_9,001,2024-11-29_10h27.28.431,untitled,2024.1.5,None,2024-11-29 10h27.46.664573 +0530,
,,,,,,,,,,,,,,,,,,,,,,,,,,,,,,,,,,,,,,,,,,,,,,,,,,,,,,,,,,,,,,,,,,,,,,,,,,,,,139.54246080003213,139.55885859997943,139.55885859997943,140.94362889998592,space,1.3750980000477284,None,,,,,,,,,,,,,,,,,,,,,,,,,,,,,,,,,,,,,,,,,,,,,,,,,,,,,,,,,,,,,,,,,,,,,,,,,,,,,,,,,,,,,,,,,,,,,,,A_9,001,2024-11-29_10h27.28.431,untitled,2024.1.5,None,2024-11-29 10h27.46.664573 +0530,
square.png,you,0,Z,,,,,,,,,0,0,0,2,,,,,,,,,140.95966940000653,,,,,,,,,,,,,,,,,,,,,,,,,,,,,,,,,,,,,,,,,,,,,,,,,,,,,,,,,,,,140.949019499938,140.95966940000653,141.44339639996178,141.44339639996178,141.44339639996178,141.44339639996178,141.4596453999402,141.74326300004032,141.74326300004032,141.74326300004032,141.827172899968,m,0.36915220005903393,None,141.82785630004946,141.84312850004062,142.84386879997328,142.82765680004377,,,,,,,,,,,,,,,,,,,,,,,,,,,,,,,,,,,,,,,,,,,,,,,,,,,,,,,,,,,,,,,,,,,,,,,,,,,,,A_9,001,2024-11-29_10h27.28.431,untitled,2024.1.5,None,2024-11-29 10h27.46.664573 +0530,
square.png,stranger,1,M,,,,,,,,,0,1,1,0,,,,,,,,,142.84386879997328,,,,,,,,,,,,,,,,,,,,,,,,,,,,,,,,,,,,,,,,,,,,,,,,,,,,,,,,,,,,142.82802290003747,142.84386879997328,143.32750320003834,143.32750320003834,143.32750320003834,143.32750320003834,143.34405720001087,,,,143.4948330000043,m,0.1661350999493152,None,143.49527169996873,143.51054199994542,144.511532500037,144.49512310000136,,,,,,,,,,,,,,,,,,,,,,,,,,,,,,,,,,,,,,,,,,,,,,,,,,,,,,,,,,,,,,,,,,,,,,,,,,,,,A_9,001,2024-11-29_10h27.28.431,untitled,2024.1.5,None,2024-11-29 10h27.46.664573 +0530,
triangle.png,you,1,M,,,,,,,,,0,2,2,1,,,,,,,,,144.511532500037,,,,,,,,,,,,,,,,,,,,,,,,,,,,,,,,,,,,,,,,,,,,,,,,,,,,,,,,,,,,144.4954843999585,144.511532500037,144.99488230003044,144.99488230003044,144.99488230003044,144.99488230003044,145.0117141000228,,,,145.22910210001282,z,0.22618390002753586,None,145.2295390999643,145.24509370001033,146.24553449999075,146.2292224999983,,,,,,,,,,,,,,,,,,,,,,,,,,,,,,,,,,,,,,,,,,,,,,,,,,,,,,,,,,,,,,,,,,,,,,,,,,,,,A_9,001,2024-11-29_10h27.28.431,untitled,2024.1.5,None,2024-11-29 10h27.46.664573 +0530,
triangle.png,stranger,0,Z,,,,,,,,,0,3,3,3,,,,,,,,,146.24553449999075,,,,,,,,,,,,,,,,,,,,,,,,,,,,,,,,,,,,,,,,,,,,,,,,,,,,,,,,,,,,146.22958279994782,146.24553449999075,146.7292719000252,146.7292719000252,146.7292719000252,146.7292719000252,146.74606589996256,147.02900360000785,147.02900360000785,147.02900360000785,147.02974050003104,m,0.28778380004223436,None,147.03018450003583,147.04585889994632,148.04658770002425,148.03018500003964,,,,,,,,,,,,,,,,,,,,,,,,,,,,,,,,,,,,,,,,,,,,,,,,,,,,,,,,,,,,,,,,,,,,,,,,,,,,,A_9,001,2024-11-29_10h27.28.431,untitled,2024.1.5,None,2024-11-29 10h27.46.664573 +0530,
triangle.png,you,1,M,,,,,,,,,1,0,4,1,,,,,,,,,148.04658770002425,,,,,,,,,,,,,,,,,,,,,,,,,,,,,,,,,,,,,,,,,,,,,,,,,,,,,,,,,,,,148.03054690000135,148.04658770002425,148.53007179999258,148.53007179999258,148.53007179999258,148.53007179999258,148.54664820001926,148.83013569994364,148.83013569994364,148.83013569994364,148.91425819997676,z,0.3743954000528902,None,148.91472010000143,148.9303951000329,149.93076000001747,149.9144669000525,,,,,,,,,,,,,,,,,,,,,,,,,,,,,,,,,,,,,,,,,,,,,,,,,,,,,,,,,,,,,,,,,,,,,,,,,,,,,A_9,001,2024-11-29_10h27.28.431,untitled,2024.1.5,None,2024-11-29 10h27.46.664573 +0530,
square.png,you,0,Z,,,,,,,,,1,1,5,2,,,,,,,,,149.93076000001747,,,,,,,,,,,,,,,,,,,,,,,,,,,,,,,,,,,,,,,,,,,,,,,,,,,,,,,,,,,,149.91485269996338,149.93076000001747,150.41450640000403,150.41450640000403,150.41450640000403,150.41450640000403,150.43123750004452,,,,150.5318940000143,m,0.10718779999297112,None,150.53234729997348,150.5477450999897,151.5481688999571,151.53208329994231,,,,,,,,,,,,,,,,,,,,,,,,,,,,,,,,,,,,,,,,,,,,,,,,,,,,,,,,,,,,,,,,,,,,,,,,,,,,,A_9,001,2024-11-29_10h27.28.431,untitled,2024.1.5,None,2024-11-29 10h27.46.664573 +0530,
square.png,stranger,1,M,,,,,,,,,1,2,6,0,,,,,,,,,151.5481688999571,,,,,,,,,,,,,,,,,,,,,,,,,,,,,,,,,,,,,,,,,,,,,,,,,,,,,,,,,,,,151.53244550002273,151.5481688999571,152.03203979996033,152.03203979996033,152.03203979996033,152.03203979996033,152.04867589997593,,,,152.09954610001296,m,0.05315739999059588,None,152.0999773000367,152.11512460000813,153.11588759999722,153.0995839999523,,,,,,,,,,,,,,,,,,,,,,,,,,,,,,,,,,,,,,,,,,,,,,,,,,,,,,,,,,,,,,,,,,,,,,,,,,,,,A_9,001,2024-11-29_10h27.28.431,untitled,2024.1.5,None,2024-11-29 10h27.46.664573 +0530,
triangle.png,stranger,0,Z,,,,,,,,,1,3,7,3,,,,,,,,,153.11588759999722,,,,,,,,,,,,,,,,,,,,,,,,,,,,,,,,,,,,,,,,,,,,,,,,,,,,,,,,,,,,153.09994800004642,153.11588759999722,153.59905730001628,153.59905730001628,153.59905730001628,153.59905730001628,153.61568339995574,,,,153.7502431999892,z,0.13755770004354417,None,153.7506855999818,153.76585470000282,154.76670859998558,154.75023350003175,,,,,,,,,,,,,,,,,,,,,,,,,,,,,,,,,,,,,,,,,,,,,,,,,,,,,,,,,,,,,,,,,,,,,,,,,,,,,A_9,001,2024-11-29_10h27.28.431,untitled,2024.1.5,None,2024-11-29 10h27.46.664573 +0530,
triangle.png,stranger,0,Z,,,,,,,,,2,0,8,3,,,,,,,,,154.76670859998558,,,,,,,,,,,,,,,,,,,,,,,,,,,,,,,,,,,,,,,,,,,,,,,,,,,,,,,,,,,,154.7505947999889,154.76670859998558,155.25008959998377,155.25008959998377,155.25008959998377,155.25008959998377,155.26671330002137,,,,155.43443010002375,m,0.16783539997413754,None,155.43487170001026,155.45025120000355,156.45073030004278,156.43436229997315,,,,,,,,,,,,,,,,,,,,,,,,,,,,,,,,,,,,,,,,,,,,,,,,,,,,,,,,,,,,,,,,,,,,,,,,,,,,,A_9,001,2024-11-29_10h27.28.431,untitled,2024.1.5,None,2024-11-29 10h27.46.664573 +0530,
square.png,you,0,Z,,,,,,,,,2,1,9,2,,,,,,,,,156.45073030004278,,,,,,,,,,,,,,,,,,,,,,,,,,,,,,,,,,,,,,,,,,,,,,,,,,,,,,,,,,,,156.43473209999502,156.45073030004278,156.93435060000047,156.93435060000047,156.93435060000047,156.93435060000047,156.95116009993944,,,,157.0519930999726,m,0.11544409999623895,None,157.05242930003442,157.06767340004444,158.0683907000348,158.05203739996068,,,,,,,,,,,,,,,,,,,,,,,,,,,,,,,,,,,,,,,,,,,,,,,,,,,,,,,,,,,,,,,,,,,,,,,,,,,,,A_9,001,2024-11-29_10h27.28.431,untitled,2024.1.5,None,2024-11-29 10h27.46.664573 +0530,
triangle.png,you,1,M,,,,,,,,,2,2,10,1,,,,,,,,,158.0683907000348,,,,,,,,,,,,,,,,,,,,,,,,,,,,,,,,,,,,,,,,,,,,,,,,,,,,,,,,,,,,158.05240359995514,158.0683907000348,158.55188459996134,158.55188459996134,158.55188459996134,158.55188459996134,158.56845390005037,,,,158.68617949995678,m,0.12450940010603517,None,158.6866136000026,158.70192649995442,159.70261899998877,159.68606269999873,,,,,,,,,,,,,,,,,,,,,,,,,,,,,,,,,,,,,,,,,,,,,,,,,,,,,,,,,,,,,,,,,,,,,,,,,,,,,A_9,001,2024-11-29_10h27.28.431,untitled,2024.1.5,None,2024-11-29 10h27.46.664573 +0530,
square.png,stranger,1,M,,,,,,,,,2,3,11,0,,,,,,,,,159.70261899998877,,,,,,,,,,,,,,,,,,,,,,,,,,,,,,,,,,,,,,,,,,,,,,,,,,,,,,,,,,,,159.68642120005097,159.70261899998877,160.18646570004057,160.18646570004057,160.18646570004057,160.18646570004057,160.2029239999829,,,,160.4036044999957,z,0.21095059998333454,None,160.40405020001344,160.4194945000345,161.4200013000518,161.40356050000992,,,,,,,,,,,,,,,,,,,,,,,,,,,,,,,,,,,,,,,,,,,,,,,,,,,,,,,,,,,,,,,,,,,,,,,,,,,,,A_9,001,2024-11-29_10h27.28.431,untitled,2024.1.5,None,2024-11-29 10h27.46.664573 +0530,
square.png,you,0,Z,,,,,,,,,3,0,12,2,,,,,,,,,161.4200013000518,,,,,,,,,,,,,,,,,,,,,,,,,,,,,,,,,,,,,,,,,,,,,,,,,,,,,,,,,,,,161.40392910002265,161.4200013000518,161.9035947000375,161.9035947000375,161.9035947000375,161.9035947000375,161.92047230002936,,,,162.15462459996343,m,0.2418716000393033,None,162.15505499998108,162.1701982000377,163.17073929996695,163.1547506999923,,,,,,,,,,,,,,,,,,,,,,,,,,,,,,,,,,,,,,,,,,,,,,,,,,,,,,,,,,,,,,,,,,,,,,,,,,,,,A_9,001,2024-11-29_10h27.28.431,untitled,2024.1.5,None,2024-11-29 10h27.46.664573 +0530,
square.png,stranger,1,M,,,,,,,,,3,1,13,0,,,,,,,,,163.17073929996695,,,,,,,,,,,,,,,,,,,,,,,,,,,,,,,,,,,,,,,,,,,,,,,,,,,,,,,,,,,,163.15511149994563,163.17073929996695,163.6545167999575,163.6545167999575,163.6545167999575,163.6545167999575,163.67121129995212,163.95445079996716,163.95445079996716,163.95445079996716,164.12213799997699,z,0.4663576000602916,None,164.12257270002738,164.1382084999932,165.1386077000061,165.12236629996914,,,,,,,,,,,,,,,,,,,,,,,,,,,,,,,,,,,,,,,,,,,,,,,,,,,,,,,,,,,,,,,,,,,,,,,,,,,,,A_9,001,2024-11-29_10h27.28.431,untitled,2024.1.5,None,2024-11-29 10h27.46.664573 +0530,
triangle.png,you,1,M,,,,,,,,,3,2,14,1,,,,,,,,,165.1386077000061,,,,,,,,,,,,,,,,,,,,,,,,,,,,,,,,,,,,,,,,,,,,,,,,,,,,,,,,,,,,165.12272520002443,165.1386077000061,165.62218339997344,165.62218339997344,165.62218339997344,165.62218339997344,165.638958800002,165.92231679998804,165.92231679998804,165.92231679998804,165.9396133000264,m,0.31425880000460893,None,165.94004060002044,165.9556670000311,166.95603060000576,166.9398923999397,,,,,,,,,,,,,,,,,,,,,,,,,,,,,,,,,,,,,,,,,,,,,,,,,,,,,,,,,,,,,,,,,,,,,,,,,,,,,A_9,001,2024-11-29_10h27.28.431,untitled,2024.1.5,None,2024-11-29 10h27.46.664573 +0530,
triangle.png,stranger,0,Z,,,,,,,,,3,3,15,3,,,,,,,,,166.95603060000576,,,,,,,,,,,,,,,,,,,,,,,,,,,,,,,,,,,,,,,,,,,,,,,,,,,,,,,,,,,,166.94025560002774,166.95603060000576,167.43995379994158,167.43995379994158,167.43995379994158,167.43995379994158,167.45654259994626,167.73987409996334,167.73987409996334,167.73987409996334,167.74060529994313,m,0.28851109999231994,None,167.7410392999882,167.75661130005028,168.75706149998587,168.74099489999935,,,,,,,,,,,,,,,,,,,,,,,,,,,,,,,,,,,,,,,,,,,,,,,,,,,,,,,,,,,,,,,,,,,,,,,,,,,,,A_9,001,2024-11-29_10h27.28.431,untitled,2024.1.5,None,2024-11-29 10h27.46.664573 +0530,
triangle.png,stranger,0,Z,,,,,,,,,4,0,16,3,,,,,,,,,168.75706149998587,,,,,,,,,,,,,,,,,,,,,,,,,,,,,,,,,,,,,,,,,,,,,,,,,,,,,,,,,,,,168.74135709996335,168.75706149998587,169.24093379999977,169.24093379999977,169.24093379999977,169.24093379999977,169.25734999997076,169.54077950003557,169.54077950003557,169.54077950003557,169.5247944999719,m,0.2770318000111729,None,169.5252340999432,169.54077950003557,170.54124669998419,170.52504530001897,,,,,,,,,,,,,,,,,,,,,,,,,,,,,,,,,,,,,,,,,,,,,,,,,,,,,,,,,,,,,,,,,,,,,,,,,,,,,A_9,001,2024-11-29_10h27.28.431,untitled,2024.1.5,None,2024-11-29 10h27.46.664573 +0530,
square.png,you,0,Z,,,,,,,,,4,1,17,2,,,,,,,,,170.54124669998419,,,,,,,,,,,,,,,,,,,,,,,,,,,,,,,,,,,,,,,,,,,,,,,,,,,,,,,,,,,,170.52540779998526,170.54124669998419,171.02513359999284,171.02513359999284,171.02513359999284,171.02513359999284,171.04177560005337,,,,171.1757626000326,m,0.14046530006453395,None,171.17620460002217,171.19147630000953,172.1919730999507,172.1758647999959,,,,,,,,,,,,,,,,,,,,,,,,,,,,,,,,,,,,,,,,,,,,,,,,,,,,,,,,,,,,,,,,,,,,,,,,,,,,,A_9,001,2024-11-29_10h27.28.431,untitled,2024.1.5,None,2024-11-29 10h27.46.664573 +0530,
square.png,stranger,1,M,,,,,,,,,4,2,18,0,,,,,,,,,172.1919730999507,,,,,,,,,,,,,,,,,,,,,,,,,,,,,,,,,,,,,,,,,,,,,,,,,,,,,,,,,,,,172.17622819996905,172.1919730999507,172.6759277000092,172.6759277000092,172.6759277000092,172.6759277000092,172.69258050003555,,,,172.89365400001407,z,0.20092720002867281,None,172.8940989000257,172.9093273000326,173.9099481999874,173.89346649998333,,,,,,,,,,,,,,,,,,,,,,,,,,,,,,,,,,,,,,,,,,,,,,,,,,,,,,,,,,,,,,,,,,,,,,,,,,,,,A_9,001,2024-11-29_10h27.28.431,untitled,2024.1.5,None,2024-11-29 10h27.46.664573 +0530,
triangle.png,you,1,M,,,,,,,,,4,3,19,1,,,,,,,,,173.9099481999874,,,,,,,,,,,,,,,,,,,,,,,,,,,,,,,,,,,,,,,,,,,,,,,,,,,,,,,,,,,,173.8938247000333,173.9099481999874,174.39332539995667,174.39332539995667,174.39332539995667,174.39332539995667,174.4100724000018,174.6934871999547,174.6934871999547,174.6934871999547,174.694217100041,m,0.28449580003507435,None,174.69465029996354,174.71007090003695,175.71057919994928,175.69461709994357,,,,,,,,,,,,,,,,,,,,,,,,,,,,,,,,,,,,,,,,,,,,,,,,,,,,,,,,,,,,,,,,,,,,,,,,,,,,,A_9,001,2024-11-29_10h27.28.431,untitled,2024.1.5,None,2024-11-29 10h27.46.664573 +0530,
square.png,stranger,1,M,,,,,,,,,5,0,20,0,,,,,,,,,175.71057919994928,,,,,,,,,,,,,,,,,,,,,,,,,,,,,,,,,,,,,,,,,,,,,,,,,,,,,,,,,,,,175.6949782000156,175.71057919994928,176.19451399997342,176.19451399997342,176.19451399997342,176.19451399997342,176.2109043999808,,,,176.36194299999624,m,0.1661499000620097,None,176.36237850005273,176.37754759995732,177.3781055000145,177.36206590000074,,,,,,,,,,,,,,,,,,,,,,,,,,,,,,,,,,,,,,,,,,,,,,,,,,,,,,,,,,,,,,,,,,,,,,,,,,,,,A_9,001,2024-11-29_10h27.28.431,untitled,2024.1.5,None,2024-11-29 10h27.46.664573 +0530,
triangle.png,stranger,0,Z,,,,,,,,,5,1,21,3,,,,,,,,,177.3781055000145,,,,,,,,,,,,,,,,,,,,,,,,,,,,,,,,,,,,,,,,,,,,,,,,,,,,,,,,,,,,177.3624315999914,177.3781055000145,177.86207100003958,177.86207100003958,177.86207100003958,177.86207100003958,177.87872030003928,,,,178.0628774999641,z,0.19952949997968972,None,178.06330629996955,178.07852400001138,179.07919970003422,179.06267859996296,,,,,,,,,,,,,,,,,,,,,,,,,,,,,,,,,,,,,,,,,,,,,,,,,,,,,,,,,,,,,,,,,,,,,,,,,,,,,A_9,001,2024-11-29_10h27.28.431,untitled,2024.1.5,None,2024-11-29 10h27.46.664573 +0530,
square.png,you,0,Z,,,,,,,,,5,2,22,2,,,,,,,,,179.07919970003422,,,,,,,,,,,,,,,,,,,,,,,,,,,,,,,,,,,,,,,,,,,,,,,,,,,,,,,,,,,,179.06303640000988,179.07919970003422,179.5628226000117,179.5628226000117,179.5628226000117,179.5628226000117,179.57939980004448,,,,179.63009290001355,m,0.06610459997318685,None,179.63053990004119,179.64579890004825,180.64672920003068,180.63033289997838,,,,,,,,,,,,,,,,,,,,,,,,,,,,,,,,,,,,,,,,,,,,,,,,,,,,,,,,,,,,,,,,,,,,,,,,,,,,,A_9,001,2024-11-29_10h27.28.431,untitled,2024.1.5,None,2024-11-29 10h27.46.664573 +0530,
triangle.png,you,1,M,,,,,,,,,5,3,23,1,,,,,,,,,180.64672920003068,,,,,,,,,,,,,,,,,,,,,,,,,,,,,,,,,,,,,,,,,,,,,,,,,,,,,,,,,,,,180.6306955999462,180.64672920003068,181.13020500005223,181.13020500005223,181.13020500005223,181.13020500005223,181.14685250003822,,,,181.29749509994872,z,0.15815679996740073,None,181.2979258999694,181.3136485000141,182.31407730001956,182.2978998000035,,,,,,,,,,,,,,,,,,,,,,,,,,,,,,,,,,,,,,,,,,,,,,,,,,,,,,,,,,,,,,,,,,,,,,,,,,,,,A_9,001,2024-11-29_10h27.28.431,untitled,2024.1.5,None,2024-11-29 10h27.46.664573 +0530,
triangle.png,you,1,M,,,,,,,,,6,0,24,1,,,,,,,,,182.31407730001956,,,,,,,,,,,,,,,,,,,,,,,,,,,,,,,,,,,,,,,,,,,,,,,,,,,,,,,,,,,,182.29826079995837,182.31407730001956,182.7980571000371,182.7980571000371,182.7980571000371,182.7980571000371,182.81465890002437,,,,182.88165849994402,z,0.07439710001926869,None,182.88212289998773,182.89757379994262,183.8980766000459,183.88189439999405,,,,,,,,,,,,,,,,,,,,,,,,,,,,,,,,,,,,,,,,,,,,,,,,,,,,,,,,,,,,,,,,,,,,,,,,,,,,,A_9,001,2024-11-29_10h27.28.431,untitled,2024.1.5,None,2024-11-29 10h27.46.664573 +0530,
square.png,you,0,Z,,,,,,,,,6,1,25,2,,,,,,,,,183.8980766000459,,,,,,,,,,,,,,,,,,,,,,,,,,,,,,,,,,,,,,,,,,,,,,,,,,,,,,,,,,,,183.8822635000106,183.8980766000459,184.38173859997187,184.38173859997187,184.38173859997187,184.38173859997187,184.39844789996278,,,,184.46585210005287,m,0.07480669999495149,None,184.46629530005157,184.4818871000316,185.48229479999281,185.46615490003023,,,,,,,,,,,,,,,,,,,,,,,,,,,,,,,,,,,,,,,,,,,,,,,,,,,,,,,,,,,,,,,,,,,,,,,,,,,,,A_9,001,2024-11-29_10h27.28.431,untitled,2024.1.5,None,2024-11-29 10h27.46.664573 +0530,
triangle.png,stranger,0,Z,,,,,,,,,6,2,26,3,,,,,,,,,185.48229479999281,,,,,,,,,,,,,,,,,,,,,,,,,,,,,,,,,,,,,,,,,,,,,,,,,,,,,,,,,,,,185.46651319996454,185.48229479999281,185.9659626999637,185.9659626999637,185.9659626999637,185.9659626999637,185.9827004999388,186.26610020000953,186.26610020000953,186.26610020000953,186.316879699938,z,0.3438199000665918,None,186.3173241999466,186.33267719997093,187.33316829998512,187.3170412000036,,,,,,,,,,,,,,,,,,,,,,,,,,,,,,,,,,,,,,,,,,,,,,,,,,,,,,,,,,,,,,,,,,,,,,,,,,,,,A_9,001,2024-11-29_10h27.28.431,untitled,2024.1.5,None,2024-11-29 10h27.46.664573 +0530,
square.png,stranger,1,M,,,,,,,,,6,3,27,0,,,,,,,,,187.33316829998512,,,,,,,,,,,,,,,,,,,,,,,,,,,,,,,,,,,,,,,,,,,,,,,,,,,,,,,,,,,,187.31740759999957,187.33316829998512,187.81709399993997,187.81709399993997,187.81709399993997,187.81709399993997,187.83361139998306,,,,187.9512332000304,m,0.12395549996290356,None,187.95166649995372,187.96679780003615,188.9673485000385,188.95124369999394,,,,,,,,,,,,,,,,,,,,,,,,,,,,,,,,,,,,,,,,,,,,,,,,,,,,,,,,,,,,,,,,,,,,,,,,,,,,,A_9,001,2024-11-29_10h27.28.431,untitled,2024.1.5,None,2024-11-29 10h27.46.664573 +0530,
square.png,stranger,1,M,,,,,,,,,7,0,28,0,,,,,,,,,188.9673485000385,,,,,,,,,,,,,,,,,,,,,,,,,,,,,,,,,,,,,,,,,,,,,,,,,,,,,,,,,,,,188.95160359994043,188.9673485000385,189.45124339999165,189.45124339999165,189.45124339999165,189.45124339999165,189.46792600001208,189.75124739995226,189.75124739995226,189.75124739995226,189.75202290003654,m,0.2986065000295639,None,189.75245230004657,189.76771489996463,190.7685494000325,190.7522428999655,,,,,,,,,,,,,,,,,,,,,,,,,,,,,,,,,,,,,,,,,,,,,,,,,,,,,,,,,,,,,,,,,,,,,,,,,,,,,A_9,001,2024-11-29_10h27.28.431,untitled,2024.1.5,None,2024-11-29 10h27.46.664573 +0530,
triangle.png,you,1,M,,,,,,,,,7,1,29,1,,,,,,,,,190.7685494000325,,,,,,,,,,,,,,,,,,,,,,,,,,,,,,,,,,,,,,,,,,,,,,,,,,,,,,,,,,,,190.75260370003525,190.7685494000325,191.25202360004187,191.25202360004187,191.25202360004187,191.25202360004187,191.26877610001247,,,,191.4361196999671,z,0.17797499999869615,None,191.43656399997417,191.45198050001636,192.4524214999983,192.43641339999158,,,,,,,,,,,,,,,,,,,,,,,,,,,,,,,,,,,,,,,,,,,,,,,,,,,,,,,,,,,,,,,,,,,,,,,,,,,,,A_9,001,2024-11-29_10h27.28.431,untitled,2024.1.5,None,2024-11-29 10h27.46.664573 +0530,
triangle.png,stranger,0,Z,,,,,,,,,7,2,30,3,,,,,,,,,192.4524214999983,,,,,,,,,,,,,,,,,,,,,,,,,,,,,,,,,,,,,,,,,,,,,,,,,,,,,,,,,,,,192.43678790004924,192.4524214999983,192.93628749996424,192.93628749996424,192.93628749996424,192.93628749996424,192.95300640002824,,,,193.10378949996084,m,0.1659251000965014,None,193.10425139998551,193.11971919995267,194.12024269998074,194.10458100005053,,,,,,,,,,,,,,,,,,,,,,,,,,,,,,,,,,,,,,,,,,,,,,,,,,,,,,,,,,,,,,,,,,,,,,,,,,,,,A_9,001,2024-11-29_10h27.28.431,untitled,2024.1.5,None,2024-11-29 10h27.46.664573 +0530,
square.png,you,0,Z,,,,,,,,,7,3,31,2,,,,,,,,,194.12024269998074,,,,,,,,,,,,,,,,,,,,,,,,,,,,,,,,,,,,,,,,,,,,,,,,,,,,,,,,,,,,194.10494939994533,194.12024269998074,194.6037071000319,194.6037071000319,194.6037071000319,194.6037071000319,194.6204904000042,194.90390739997383,194.90390739997383,194.90390739997383,194.90464189997874,m,0.29273230000399053,None,194.90507610002533,194.9207594000036,195.92092890001368,195.90486000000965,,,,,,,,,,,,,,,,,,,,,,,,,,,,,,,,,,,,,,,,,,,,,,,,,,,,,,,,,,,,,,,,,,,,,,,,,,,,,A_9,001,2024-11-29_10h27.28.431,untitled,2024.1.5,None,2024-11-29 10h27.46.664573 +0530,
triangle.png,you,1,M,,,,,,,,,8,0,32,1,,,,,,,,,195.92092890001368,,,,,,,,,,,,,,,,,,,,,,,,,,,,,,,,,,,,,,,,,,,,,,,,,,,,,,,,,,,,195.9052238999866,195.92092890001368,196.4049451999599,196.4049451999599,196.4049451999599,196.4049451999599,196.42107249994297,,,,196.6555967000313,m,0.24501639988739043,None,196.65604060003534,196.67144409997854,197.67188569996506,197.65565990004689,,,,,,,,,,,,,,,,,,,,,,,,,,,,,,,,,,,,,,,,,,,,,,,,,,,,,,,,,,,,,,,,,,,,,,,,,,,,,A_9,001,2024-11-29_10h27.28.431,untitled,2024.1.5,None,2024-11-29 10h27.46.664573 +0530,
square.png,stranger,1,M,,,,,,,,,8,1,33,0,,,,,,,,,197.67188569996506,,,,,,,,,,,,,,,,,,,,,,,,,,,,,,,,,,,,,,,,,,,,,,,,,,,,,,,,,,,,197.65604040003382,197.67188569996506,198.15574850002304,198.15574850002304,198.15574850002304,198.15574850002304,198.17234030005056,198.45563480001874,198.45563480001874,198.45563480001874,198.4897036999464,z,0.3181036999449134,None,198.49014450004324,198.50575060001574,199.5061375000514,199.4899947999511,,,,,,,,,,,,,,,,,,,,,,,,,,,,,,,,,,,,,,,,,,,,,,,,,,,,,,,,,,,,,,,,,,,,,,,,,,,,,A_9,001,2024-11-29_10h27.28.431,untitled,2024.1.5,None,2024-11-29 10h27.46.664573 +0530,
square.png,you,0,Z,,,,,,,,,8,2,34,2,,,,,,,,,199.5061375000514,,,,,,,,,,,,,,,,,,,,,,,,,,,,,,,,,,,,,,,,,,,,,,,,,,,,,,,,,,,,199.49037270003464,199.5061375000514,199.99005549994763,199.99005549994763,199.99005549994763,199.99005549994763,200.0064560000319,,,,200.09075440000743,m,0.09163449995685369,None,200.0911871000426,200.10648720001336,201.10689930000808,201.09096639999188,,,,,,,,,,,,,,,,,,,,,,,,,,,,,,,,,,,,,,,,,,,,,,,,,,,,,,,,,,,,,,,,,,,,,,,,,,,,,A_9,001,2024-11-29_10h27.28.431,untitled,2024.1.5,None,2024-11-29 10h27.46.664573 +0530,
triangle.png,stranger,0,Z,,,,,,,,,8,3,35,3,,,,,,,,,201.10689930000808,,,,,,,,,,,,,,,,,,,,,,,,,,,,,,,,,,,,,,,,,,,,,,,,,,,,,,,,,,,,201.09132759994827,201.10689930000808,201.59065519995056,201.59065519995056,201.59065519995056,201.59065519995056,201.60750659997575,,,,201.80831730004866,m,0.20713189989328384,None,201.8087520999834,201.8238943000324,202.82444520003628,202.808534199954,,,,,,,,,,,,,,,,,,,,,,,,,,,,,,,,,,,,,,,,,,,,,,,,,,,,,,,,,,,,,,,,,,,,,,,,,,,,,A_9,001,2024-11-29_10h27.28.431,untitled,2024.1.5,None,2024-11-29 10h27.46.664573 +0530,
triangle.png,stranger,0,Z,,,,,,,,,9,0,36,3,,,,,,,,,202.82444520003628,,,,,,,,,,,,,,,,,,,,,,,,,,,,,,,,,,,,,,,,,,,,,,,,,,,,,,,,,,,,202.8088926000055,202.82444520003628,203.30836030002683,203.30836030002683,203.30836030002683,203.30836030002683,203.32475889998022,,,,203.57578209997155,z,0.2608774999389425,None,203.57622599997558,203.5916224999819,204.59223079995718,204.57598279998638,,,,,,,,,,,,,,,,,,,,,,,,,,,,,,,,,,,,,,,,,,,,,,,,,,,,,,,,,,,,,,,,,,,,,,,,,,,,,A_9,001,2024-11-29_10h27.28.431,untitled,2024.1.5,None,2024-11-29 10h27.46.664573 +0530,
square.png,you,0,Z,,,,,,,,,9,1,37,2,,,,,,,,,204.59223079995718,,,,,,,,,,,,,,,,,,,,,,,,,,,,,,,,,,,,,,,,,,,,,,,,,,,,,,,,,,,,204.57634919998236,204.59223079995718,205.0758256999543,205.0758256999543,205.0758256999543,205.0758256999543,205.0923953000456,,,,205.29320740001276,m,0.2125063999556005,None,205.29364199994598,205.30921269999817,206.30980940000154,206.29346249997616,,,,,,,,,,,,,,,,,,,,,,,,,,,,,,,,,,,,,,,,,,,,,,,,,,,,,,,,,,,,,,,,,,,,,,,,,,,,,A_9,001,2024-11-29_10h27.28.431,untitled,2024.1.5,None,2024-11-29 10h27.46.664573 +0530,
triangle.png,you,1,M,,,,,,,,,9,2,38,1,,,,,,,,,206.30980940000154,,,,,,,,,,,,,,,,,,,,,,,,,,,,,,,,,,,,,,,,,,,,,,,,,,,,,,,,,,,,206.29383530002087,206.30980940000154,206.79333340004086,206.79333340004086,206.79333340004086,206.79333340004086,206.80989110004157,,,,207.02743779995944,z,0.21913630003109574,None,207.02788750000764,207.04333849996328,208.04417769995052,208.027632500045,,,,,,,,,,,,,,,,,,,,,,,,,,,,,,,,,,,,,,,,,,,,,,,,,,,,,,,,,,,,,,,,,,,,,,,,,,,,,A_9,001,2024-11-29_10h27.28.431,untitled,2024.1.5,None,2024-11-29 10h27.46.664573 +0530,
square.png,stranger,1,M,,,,,,,,,9,3,39,0,,,,,,,,,208.04417769995052,,,,,,,,,,,,,,,,,,,,,,,,,,,,,,,,,,,,,,,,,,,,,,,,,,,,,,,,,,,,208.02799039997626,208.04417769995052,208.52748539997265,208.52748539997265,208.52748539997265,208.52748539997265,208.54412490001414,,,,208.7952203999739,m,0.2576625000219792,None,208.7956528000068,208.81097180000506,209.81172400002833,209.7951635000063,,,,,,,,,,,,,,,,,,,,,,,,,,,,,,,,,,,,,,,,,,,,,,,,,,,,,,,,,,,,,,,,,,,,,,,,,,,,,A_9,001,2024-11-29_10h27.28.431,untitled,2024.1.5,None,2024-11-29 10h27.46.664573 +0530,
triangle.png,stranger,0,Z,,,,,,,,,10,0,40,3,,,,,,,,,209.81172400002833,,,,,,,,,,,,,,,,,,,,,,,,,,,,,,,,,,,,,,,,,,,,,,,,,,,,,,,,,,,,209.79553030000534,209.81172400002833,210.2952285000356,210.2952285000356,210.2952285000356,210.2952285000356,210.3118765000254,,,,210.54612009995617,z,0.23722349992021918,None,210.54655630001798,210.56186859996524,211.56248540000524,211.5460256000515,,,,,,,,,,,,,,,,,,,,,,,,,,,,,,,,,,,,,,,,,,,,,,,,,,,,,,,,,,,,,,,,,,,,,,,,,,,,,A_9,001,2024-11-29_10h27.28.431,untitled,2024.1.5,None,2024-11-29 10h27.46.664573 +0530,
square.png,stranger,1,M,,,,,,,,,10,1,41,0,,,,,,,,,211.56248540000524,,,,,,,,,,,,,,,,,,,,,,,,,,,,,,,,,,,,,,,,,,,,,,,,,,,,,,,,,,,,211.54638429998886,211.56248540000524,212.04618129995652,212.04618129995652,212.04618129995652,212.04618129995652,212.0627382999519,,,,212.26369519997388,z,0.2024809999857098,None,212.2641354999505,212.2792616999941,213.28003959998023,213.26359200000297,,,,,,,,,,,,,,,,,,,,,,,,,,,,,,,,,,,,,,,,,,,,,,,,,,,,,,,,,,,,,,,,,,,,,,,,,,,,,A_9,001,2024-11-29_10h27.28.431,untitled,2024.1.5,None,2024-11-29 10h27.46.664573 +0530,
triangle.png,you,1,M,,,,,,,,,10,2,42,1,,,,,,,,,213.28003959998023,,,,,,,,,,,,,,,,,,,,,,,,,,,,,,,,,,,,,,,,,,,,,,,,,,,,,,,,,,,,213.26395940000657,213.28003959998023,213.76358180004172,213.76358180004172,213.76358180004172,213.76358180004172,213.78040259995032,,,,214.01442000002135,m,0.24126029992476106,None,214.0148827000521,214.0302388999844,215.03046779998112,215.01415950001683,,,,,,,,,,,,,,,,,,,,,,,,,,,,,,,,,,,,,,,,,,,,,,,,,,,,,,,,,,,,,,,,,,,,,,,,,,,,,A_9,001,2024-11-29_10h27.28.431,untitled,2024.1.5,None,2024-11-29 10h27.46.664573 +0530,
square.png,you,0,Z,,,,,,,,,10,3,43,2,,,,,,,,,215.03046779998112,,,,,,,,,,,,,,,,,,,,,,,,,,,,,,,,,,,,,,,,,,,,,,,,,,,,,,,,,,,,215.0145094000036,215.03046779998112,215.5143364999676,215.5143364999676,215.5143364999676,215.5143364999676,215.53119480004534,,,,215.73187529994175,m,0.2150075000245124,None,215.73231570003554,215.7478724999819,216.7484028999461,216.73216769995634,,,,,,,,,,,,,,,,,,,,,,,,,,,,,,,,,,,,,,,,,,,,,,,,,,,,,,,,,,,,,,,,,,,,,,,,,,,,,A_9,001,2024-11-29_10h27.28.431,untitled,2024.1.5,None,2024-11-29 10h27.46.664573 +0530,
triangle.png,stranger,0,Z,,,,,,,,,11,0,44,3,,,,,,,,,216.7484028999461,,,,,,,,,,,,,,,,,,,,,,,,,,,,,,,,,,,,,,,,,,,,,,,,,,,,,,,,,,,,216.73254280001856,216.7484028999461,217.23229129996616,217.23229129996616,217.23229129996616,217.23229129996616,217.24866269994527,,,,217.49971250002272,z,0.2533693000441417,None,217.5001466999529,217.51533770002425,218.515983600053,218.4997787999455,,,,,,,,,,,,,,,,,,,,,,,,,,,,,,,,,,,,,,,,,,,,,,,,,,,,,,,,,,,,,,,,,,,,,,,,,,,,,A_9,001,2024-11-29_10h27.28.431,untitled,2024.1.5,None,2024-11-29 10h27.46.664573 +0530,
triangle.png,you,1,M,,,,,,,,,11,1,45,1,,,,,,,,,218.515983600053,,,,,,,,,,,,,,,,,,,,,,,,,,,,,,,,,,,,,,,,,,,,,,,,,,,,,,,,,,,,218.50014829996508,218.515983600053,218.99981880001724,218.99981880001724,218.99981880001724,218.99981880001724,219.016245399951,219.29967119998764,219.29967119998764,219.29967119998764,219.38377590000164,m,0.3817142000189051,None,219.38420890003908,219.39987429999746,220.40017319994513,220.38410959998146,,,,,,,,,,,,,,,,,,,,,,,,,,,,,,,,,,,,,,,,,,,,,,,,,,,,,,,,,,,,,,,,,,,,,,,,,,,,,A_9,001,2024-11-29_10h27.28.431,untitled,2024.1.5,None,2024-11-29 10h27.46.664573 +0530,
square.png,stranger,1,M,,,,,,,,,11,2,46,0,,,,,,,,,220.40017319994513,,,,,,,,,,,,,,,,,,,,,,,,,,,,,,,,,,,,,,,,,,,,,,,,,,,,,,,,,,,,220.38447409996297,220.40017319994513,220.88392159994692,220.88392159994692,220.88392159994692,220.88392159994692,220.90051720000338,221.1838883999735,221.1838883999735,221.1838883999735,221.30133469996508,z,0.4139472999377176,None,221.30176609999035,221.31745440000668,222.317959100008,222.30153810000047,,,,,,,,,,,,,,,,,,,,,,,,,,,,,,,,,,,,,,,,,,,,,,,,,,,,,,,,,,,,,,,,,,,,,,,,,,,,,A_9,001,2024-11-29_10h27.28.431,untitled,2024.1.5,None,2024-11-29 10h27.46.664573 +0530,
square.png,you,0,Z,,,,,,,,,11,3,47,2,,,,,,,,,222.317959100008,,,,,,,,,,,,,,,,,,,,,,,,,,,,,,,,,,,,,,,,,,,,,,,,,,,,,,,,,,,,222.30190940003376,222.317959100008,222.80176709999796,222.80176709999796,222.80176709999796,222.80176709999796,222.8183973999694,223.10157910000999,223.10157910000999,223.10157910000999,223.20256140001584,m,0.38761069998145103,None,223.2029933000449,223.21857909997925,224.21916310000233,224.2026491999859,,,,,,,,,,,,,,,,,,,,,,,,,,,,,,,,,,,,,,,,,,,,,,,,,,,,,,,,,,,,,,,,,,,,,,,,,,,,,A_9,001,2024-11-29_10h27.28.431,untitled,2024.1.5,None,2024-11-29 10h27.46.664573 +0530,
square.png,you,0,Z,,,,,,,,,12,0,48,2,,,,,,,,,224.21916310000233,,,,,,,,,,,,,,,,,,,,,,,,,,,,,,,,,,,,,,,,,,,,,,,,,,,,,,,,,,,,224.2030083000427,224.21916310000233,224.70255859999452,224.70255859999452,224.70255859999452,224.70255859999452,224.71917099994607,225.00278189999517,225.00278189999517,225.00278189999517,225.13682579994202,m,0.42329720000270754,None,225.13729740004055,225.15258989995345,226.15309709997382,226.13716229994316,,,,,,,,,,,,,,,,,,,,,,,,,,,,,,,,,,,,,,,,,,,,,,,,,,,,,,,,,,,,,,,,,,,,,,,,,,,,,A_9,001,2024-11-29_10h27.28.431,untitled,2024.1.5,None,2024-11-29 10h27.46.664573 +0530,
triangle.png,you,1,M,,,,,,,,,12,1,49,1,,,,,,,,,226.15309709997382,,,,,,,,,,,,,,,,,,,,,,,,,,,,,,,,,,,,,,,,,,,,,,,,,,,,,,,,,,,,226.1375247000251,226.15309709997382,226.63692269998137,226.63692269998137,226.63692269998137,226.63692269998137,226.65345230000094,,,,226.87110989994835,m,0.22337930009234697,None,226.87154570000712,226.88682909996714,227.88734250003472,227.87141779996455,,,,,,,,,,,,,,,,,,,,,,,,,,,,,,,,,,,,,,,,,,,,,,,,,,,,,,,,,,,,,,,,,,,,,,,,,,,,,A_9,001,2024-11-29_10h27.28.431,untitled,2024.1.5,None,2024-11-29 10h27.46.664573 +0530,
square.png,stranger,1,M,,,,,,,,,12,2,50,0,,,,,,,,,227.88734250003472,,,,,,,,,,,,,,,,,,,,,,,,,,,,,,,,,,,,,,,,,,,,,,,,,,,,,,,,,,,,227.87178489996586,227.88734250003472,228.3709952000063,228.3709952000063,228.3709952000063,228.3709952000063,228.38782379997429,228.67129590001423,228.67129590001423,228.67129590001423,228.73846310004592,m,0.362940700026229,None,228.7389014000073,228.7545624000486,229.7551696000155,229.73882009997033,,,,,,,,,,,,,,,,,,,,,,,,,,,,,,,,,,,,,,,,,,,,,,,,,,,,,,,,,,,,,,,,,,,,,,,,,,,,,A_9,001,2024-11-29_10h27.28.431,untitled,2024.1.5,None,2024-11-29 10h27.46.664573 +0530,
triangle.png,stranger,0,Z,,,,,,,,,12,3,51,3,,,,,,,,,229.7551696000155,,,,,,,,,,,,,,,,,,,,,,,,,,,,,,,,,,,,,,,,,,,,,,,,,,,,,,,,,,,,229.73918539995793,229.7551696000155,230.23892759997398,230.23892759997398,230.23892759997398,230.23892759997398,230.25560489995405,230.5387145000277,230.5387145000277,230.5387145000277,230.80648030003067,z,0.5514280000934377,None,230.8069122999441,230.8222945999587,231.8228051000042,231.80655249999836,,,,,,,,,,,,,,,,,,,,,,,,,,,,,,,,,,,,,,,,,,,,,,,,,,,,,,,,,,,,,,,,,,,,,,,,,,,,,A_9,001,2024-11-29_10h27.28.431,untitled,2024.1.5,None,2024-11-29 10h27.46.664573 +0530,
triangle.png,you,1,M,,,,,,,,,13,0,52,1,,,,,,,,,231.8228051000042,,,,,,,,,,,,,,,,,,,,,,,,,,,,,,,,,,,,,,,,,,,,,,,,,,,,,,,,,,,,231.80691839999054,231.8228051000042,232.3065445999382,232.3065445999382,232.3065445999382,232.3065445999382,232.32298249995802,,,,232.32376269996166,m,0.015668599982745945,None,232.32420699996874,232.33966429997236,233.3401549999835,233.323982300004,,,,,,,,,,,,,,,,,,,,,,,,,,,,,,,,,,,,,,,,,,,,,,,,,,,,,,,,,,,,,,,,,,,,,,,,,,,,,A_9,001,2024-11-29_10h27.28.431,untitled,2024.1.5,None,2024-11-29 10h27.46.664573 +0530,
square.png,stranger,1,M,,,,,,,,,13,1,53,0,,,,,,,,,233.3401549999835,,,,,,,,,,,,,,,,,,,,,,,,,,,,,,,,,,,,,,,,,,,,,,,,,,,,,,,,,,,,233.32434459996875,233.3401549999835,233.8239983000094,233.8239983000094,233.8239983000094,233.8239983000094,233.84067930001765,,,,233.9914671999868,z,0.15293119999114424,None,233.9918975000037,234.007208099938,235.0079243000364,234.99147769995034,,,,,,,,,,,,,,,,,,,,,,,,,,,,,,,,,,,,,,,,,,,,,,,,,,,,,,,,,,,,,,,,,,,,,,,,,,,,,A_9,001,2024-11-29_10h27.28.431,untitled,2024.1.5,None,2024-11-29 10h27.46.664573 +0530,
triangle.png,stranger,0,Z,,,,,,,,,13,2,54,3,,,,,,,,,235.0079243000364,,,,,,,,,,,,,,,,,,,,,,,,,,,,,,,,,,,,,,,,,,,,,,,,,,,,,,,,,,,,234.99183700000867,235.0079243000364,235.49140940001234,235.49140940001234,235.49140940001234,235.49140940001234,235.50806380005088,,,,235.64230379997753,m,0.14919739996548742,None,235.64274130004924,235.65832349995617,236.65847320004832,236.64247009996325,,,,,,,,,,,,,,,,,,,,,,,,,,,,,,,,,,,,,,,,,,,,,,,,,,,,,,,,,,,,,,,,,,,,,,,,,,,,,A_9,001,2024-11-29_10h27.28.431,untitled,2024.1.5,None,2024-11-29 10h27.46.664573 +0530,
square.png,you,0,Z,,,,,,,,,13,3,55,2,,,,,,,,,236.65847320004832,,,,,,,,,,,,,,,,,,,,,,,,,,,,,,,,,,,,,,,,,,,,,,,,,,,,,,,,,,,,236.64283439994324,236.65847320004832,237.1425604999531,237.1425604999531,237.1425604999531,237.1425604999531,237.15897550003137,237.44226229994092,237.44226229994092,237.44226229994092,238.2265740999719,None,,,238.22676550003234,238.24266730004456,239.24349719996098,239.2270875000395,238.24266730004456,,,,,,,,,,,,,,,,,,,,,,,,,,,,,,,,,,,,,,,,,,,,,,,,,,,,,,,,,,,,,,,,,,,,,,,,,,,,A_9,001,2024-11-29_10h27.28.431,untitled,2024.1.5,None,2024-11-29 10h27.46.664573 +0530,
triangle.png,stranger,0,Z,,,,,,,,,14,0,56,3,,,,,,,,,239.24349719996098,,,,,,,,,,,,,,,,,,,,,,,,,,,,,,,,,,,,,,,,,,,,,,,,,,,,,,,,,,,,239.22745220002253,239.24349719996098,239.74369489995297,239.74369489995297,239.74369489995297,239.74369489995297,239.74369489995297,240.0436562000541,240.0436562000541,240.0436562000541,240.02789599995594,m,0.2822378999553621,None,240.02833450003527,240.0436562000541,241.0441850000061,241.02817439998034,,,,,,,,,,,,,,,,,,,,,,,,,,,,,,,,,,,,,,,,,,,,,,,,,,,,,,,,,,,,,,,,,,,,,,,,,,,,,A_9,001,2024-11-29_10h27.28.431,untitled,2024.1.5,None,2024-11-29 10h27.46.664573 +0530,
square.png,stranger,1,M,,,,,,,,,14,1,57,0,,,,,,,,,241.0441850000061,,,,,,,,,,,,,,,,,,,,,,,,,,,,,,,,,,,,,,,,,,,,,,,,,,,,,,,,,,,,241.0285440000007,241.0441850000061,241.52790580003057,241.52790580003057,241.52790580003057,241.52790580003057,241.54461119999178,241.82797710003797,241.82797710003797,241.82797710003797,242.61196879995987,None,,,242.61215980001725,242.62843799998518,243.62897069996689,243.6127955999691,242.62843799998518,,,,,,,,,,,,,,,,,,,,,,,,,,,,,,,,,,,,,,,,,,,,,,,,,,,,,,,,,,,,,,,,,,,,,,,,,,,,A_9,001,2024-11-29_10h27.28.431,untitled,2024.1.5,None,2024-11-29 10h27.46.664573 +0530,
triangle.png,you,1,M,,,,,,,,,14,2,58,1,,,,,,,,,243.62897069996689,,,,,,,,,,,,,,,,,,,,,,,,,,,,,,,,,,,,,,,,,,,,,,,,,,,,,,,,,,,,243.6131666000001,243.62897069996689,244.1291184000438,244.1291184000438,244.1291184000438,244.1291184000438,244.1291184000438,244.42915720003657,244.42915720003657,244.42915720003657,244.81371639994904,m,0.6721180999884382,None,244.81415150000248,244.829687200021,245.8299327000277,245.81389989994932,,,,,,,,,,,,,,,,,,,,,,,,,,,,,,,,,,,,,,,,,,,,,,,,,,,,,,,,,,,,,,,,,,,,,,,,,,,,,A_9,001,2024-11-29_10h27.28.431,untitled,2024.1.5,None,2024-11-29 10h27.46.664573 +0530,
square.png,you,0,Z,,,,,,,,,14,3,59,2,,,,,,,,,245.8299327000277,,,,,,,,,,,,,,,,,,,,,,,,,,,,,,,,,,,,,,,,,,,,,,,,,,,,,,,,,,,,245.8142648000503,245.8299327000277,246.31354699993972,246.31354699993972,246.31354699993972,246.31354699993972,246.3305260000052,246.61365029995795,246.61365029995795,246.61365029995795,246.76461850001942,z,0.44805239990819246,None,246.76504850003403,246.780579400016,247.78116779995617,247.76494489994366,,,,,,,,,,,,,,,,,,,,,,,,,,,,,,,,,,,,,,,,,,,,,,,,,,,,,,,,,,,,,,,,,,,,,,,,,,,,,A_9,001,2024-11-29_10h27.28.431,untitled,2024.1.5,None,2024-11-29 10h27.46.664573 +0530,
square.png,stranger,1,M,,,,,,,,,15,0,60,0,,,,,,,,,247.78116779995617,,,,,,,,,,,,,,,,,,,,,,,,,,,,,,,,,,,,,,,,,,,,,,,,,,,,,,,,,,,,247.7653070000233,247.78116779995617,248.26494140003342,248.26494140003342,248.26494140003342,248.26494140003342,248.28148709994275,248.56487530004233,248.56487530004233,248.56487530004233,249.11580609995872,z,0.847579599940218,None,249.11623599997256,249.131910600001,250.1320018999977,250.1157934999792,,,,,,,,,,,,,,,,,,,,,,,,,,,,,,,,,,,,,,,,,,,,,,,,,,,,,,,,,,,,,,,,,,,,,,,,,,,,,A_9,001,2024-11-29_10h27.28.431,untitled,2024.1.5,None,2024-11-29 10h27.46.664573 +0530,
triangle.png,you,1,M,,,,,,,,,15,1,61,1,,,,,,,,,250.1320018999977,,,,,,,,,,,,,,,,,,,,,,,,,,,,,,,,,,,,,,,,,,,,,,,,,,,,,,,,,,,,250.11616480001248,250.1320018999977,250.6160661999602,250.6160661999602,250.6160661999602,250.6160661999602,250.6326693999581,250.91576769994572,250.91576769994572,250.91576769994572,251.05014649999794,m,0.4174421998905018,None,251.05057990003843,251.06614679994527,252.06666380004026,252.0502184999641,,,,,,,,,,,,,,,,,,,,,,,,,,,,,,,,,,,,,,,,,,,,,,,,,,,,,,,,,,,,,,,,,,,,,,,,,,,,,A_9,001,2024-11-29_10h27.28.431,untitled,2024.1.5,None,2024-11-29 10h27.46.664573 +0530,
square.png,you,0,Z,,,,,,,,,15,2,62,2,,,,,,,,,252.06666380004026,,,,,,,,,,,,,,,,,,,,,,,,,,,,,,,,,,,,,,,,,,,,,,,,,,,,,,,,,,,,252.05058060004376,252.06666380004026,252.5501721999608,252.5501721999608,252.5501721999608,252.5501721999608,252.56690860004164,252.8500826000236,252.8500826000236,252.8500826000236,253.1845244000433,m,0.6181837999029085,None,253.18496119999327,253.20036679995246,254.20105969998986,254.18475240003318,,,,,,,,,,,,,,,,,,,,,,,,,,,,,,,,,,,,,,,,,,,,,,,,,,,,,,,,,,,,,,,,,,,,,,,,,,,,,A_9,001,2024-11-29_10h27.28.431,untitled,2024.1.5,None,2024-11-29 10h27.46.664573 +0530,
triangle.png,stranger,0,Z,,,,,,,,,15,3,63,3,,,,,,,,,254.20105969998986,,,,,,,,,,,,,,,,,,,,,,,,,,,,,,,,,,,,,,,,,,,,,,,,,,,,,,,,,,,,254.18511630001012,254.20105969998986,254.6845979000209,254.6845979000209,254.6845979000209,254.6845979000209,254.70142549998127,254.98477390001062,254.98477390001062,254.98477390001062,255.0686955000274,z,0.3806213999632746,None,255.069125500042,255.08488820004277,256.0851967999479,256.06903480004985,,,,,,,,,,,,,,,,,,,,,,,,,,,,,,,,,,,,,,,,,,,,,,,,,,,,,,,,,,,,,,,,,,,,,,,,,,,,,A_9,001,2024-11-29_10h27.28.431,untitled,2024.1.5,None,2024-11-29 10h27.46.664573 +0530,
square.png,stranger,1,M,,,,,,,,,16,0,64,0,,,,,,,,,256.0851967999479,,,,,,,,,,,,,,,,,,,,,,,,,,,,,,,,,,,,,,,,,,,,,,,,,,,,,,,,,,,,256.0694000000367,256.0851967999479,256.568935599993,256.568935599993,256.568935599993,256.568935599993,256.5857269000262,256.8691441999981,256.8691441999981,256.8691441999981,257.5200061999494,z,0.9401767000090331,None,257.5204479000531,257.5358215000015,258.5363667999627,258.52028119994793,,,,,,,,,,,,,,,,,,,,,,,,,,,,,,,,,,,,,,,,,,,,,,,,,,,,,,,,,,,,,,,,,,,,,,,,,,,,,A_9,001,2024-11-29_10h27.28.431,untitled,2024.1.5,None,2024-11-29 10h27.46.664573 +0530,
square.png,you,0,Z,,,,,,,,,16,1,65,2,,,,,,,,,258.5363667999627,,,,,,,,,,,,,,,,,,,,,,,,,,,,,,,,,,,,,,,,,,,,,,,,,,,,,,,,,,,,258.52065169997513,258.5363667999627,259.0203952000011,259.0203952000011,259.0203952000011,259.0203952000011,259.03689170000143,259.3203469000291,259.3203469000291,259.3203469000291,259.9546803999692,m,0.9211726000066847,None,259.9551128000021,259.970787200029,260.97100799996406,260.95503479999024,,,,,,,,,,,,,,,,,,,,,,,,,,,,,,,,,,,,,,,,,,,,,,,,,,,,,,,,,,,,,,,,,,,,,,,,,,,,,A_9,001,2024-11-29_10h27.28.431,untitled,2024.1.5,None,2024-11-29 10h27.46.664573 +0530,
triangle.png,you,1,M,,,,,,,,,16,2,66,1,,,,,,,,,260.97100799996406,,,,,,,,,,,,,,,,,,,,,,,,,,,,,,,,,,,,,,,,,,,,,,,,,,,,,,,,,,,,260.95539699995425,260.97100799996406,261.45463119994383,261.45463119994383,261.45463119994383,261.45463119994383,261.4714513999643,261.7550119999796,261.7550119999796,261.7550119999796,261.92245289997663,z,0.45527450006920844,None,261.9228834999958,261.9383687999798,262.93881189997774,262.9225903999759,,,,,,,,,,,,,,,,,,,,,,,,,,,,,,,,,,,,,,,,,,,,,,,,,,,,,,,,,,,,,,,,,,,,,,,,,,,,,A_9,001,2024-11-29_10h27.28.431,untitled,2024.1.5,None,2024-11-29 10h27.46.664573 +0530,
triangle.png,stranger,0,Z,,,,,,,,,16,3,67,3,,,,,,,,,262.93881189997774,,,,,,,,,,,,,,,,,,,,,,,,,,,,,,,,,,,,,,,,,,,,,,,,,,,,,,,,,,,,262.9229482000228,262.93881189997774,263.42238560004625,263.42238560004625,263.42238560004625,263.42238560004625,263.43919579999056,263.72255700000096,263.72255700000096,263.72255700000096,263.9234817000106,m,0.49077529995702207,None,263.92391310003586,263.939412000007,264.93976109998766,264.9235916000325,,,,,,,,,,,,,,,,,,,,,,,,,,,,,,,,,,,,,,,,,,,,,,,,,,,,,,,,,,,,,,,,,,,,,,,,,,,,,A_9,001,2024-11-29_10h27.28.431,untitled,2024.1.5,None,2024-11-29 10h27.46.664573 +0530,
square.png,stranger,1,M,,,,,,,,,17,0,68,0,,,,,,,,,264.93976109998766,,,,,,,,,,,,,,,,,,,,,,,,,,,,,,,,,,,,,,,,,,,,,,,,,,,,,,,,,,,,264.92395840003155,264.93976109998766,265.4234859000426,265.4234859000426,265.4234859000426,265.4234859000426,265.44043620000593,265.72373339999467,265.72373339999467,265.72373339999467,266.1076837000437,z,0.6821597999660298,None,266.1081172999693,266.12372329994105,267.12446139997337,267.1081681000069,,,,,,,,,,,,,,,,,,,,,,,,,,,,,,,,,,,,,,,,,,,,,,,,,,,,,,,,,,,,,,,,,,,,,,,,,,,,,A_9,001,2024-11-29_10h27.28.431,untitled,2024.1.5,None,2024-11-29 10h27.46.664573 +0530,
triangle.png,you,1,M,,,,,,,,,17,1,69,1,,,,,,,,,267.12446139997337,,,,,,,,,,,,,,,,,,,,,,,,,,,,,,,,,,,,,,,,,,,,,,,,,,,,,,,,,,,,267.10852909996174,267.12446139997337,267.60809959995095,267.60809959995095,267.60809959995095,267.60809959995095,267.62448829994537,267.90814119996503,267.90814119996503,267.90814119996503,268.4429315000307,m,0.8179279000032693,None,268.4433629999403,268.4584898999892,269.45888539997395,269.4424081000034,,,,,,,,,,,,,,,,,,,,,,,,,,,,,,,,,,,,,,,,,,,,,,,,,,,,,,,,,,,,,,,,,,,,,,,,,,,,,A_9,001,2024-11-29_10h27.28.431,untitled,2024.1.5,None,2024-11-29 10h27.46.664573 +0530,
triangle.png,stranger,0,Z,,,,,,,,,17,2,70,3,,,,,,,,,269.45888539997395,,,,,,,,,,,,,,,,,,,,,,,,,,,,,,,,,,,,,,,,,,,,,,,,,,,,,,,,,,,,269.4427772000199,269.45888539997395,269.94267899997067,269.94267899997067,269.94267899997067,269.94267899997067,269.95934930001386,270.2425044999691,270.2425044999691,270.2425044999691,270.76033439999446,z,0.8136336000170559,None,270.76076830003876,270.77622260001954,271.7768709999509,271.7606493999483,,,,,,,,,,,,,,,,,,,,,,,,,,,,,,,,,,,,,,,,,,,,,,,,,,,,,,,,,,,,,,,,,,,,,,,,,,,,,A_9,001,2024-11-29_10h27.28.431,untitled,2024.1.5,None,2024-11-29 10h27.46.664573 +0530,
square.png,you,0,Z,,,,,,,,,17,3,71,2,,,,,,,,,271.7768709999509,,,,,,,,,,,,,,,,,,,,,,,,,,,,,,,,,,,,,,,,,,,,,,,,,,,,,,,,,,,,271.7610080000013,271.7768709999509,272.26044910005294,272.26044910005294,272.26044910005294,272.26044910005294,272.2773789999774,272.5602729000384,272.5602729000384,272.5602729000384,273.3445172000211,None,,,273.3447100999765,273.36082159995567,274.3612087999936,274.34522100002505,273.36082159995567,,,,,,,,,,,,,,,,,,,,,,,,,,,,,,,,,,,,,,,,,,,,,,,,,,,,,,,,,,,,,,,,,,,,,,,,,,,,A_9,001,2024-11-29_10h27.28.431,untitled,2024.1.5,None,2024-11-29 10h27.46.664573 +0530,
triangle.png,you,1,M,,,,,,,,,18,0,72,1,,,,,,,,,274.3612087999936,,,,,,,,,,,,,,,,,,,,,,,,,,,,,,,,,,,,,,,,,,,,,,,,,,,,,,,,,,,,274.3455893000355,274.3612087999936,274.861797700054,274.861797700054,274.861797700054,274.861797700054,274.861797700054,275.16184950002935,275.16184950002935,275.16184950002935,275.64633060002234,m,0.7713139000115916,None,275.6467905000318,275.6621544000227,276.6621552000288,276.6458532999968,,,,,,,,,,,,,,,,,,,,,,,,,,,,,,,,,,,,,,,,,,,,,,,,,,,,,,,,,,,,,,,,,,,,,,,,,,,,,A_9,001,2024-11-29_10h27.28.431,untitled,2024.1.5,None,2024-11-29 10h27.46.664573 +0530,
triangle.png,stranger,0,Z,,,,,,,,,18,1,73,3,,,,,,,,,276.6621552000288,,,,,,,,,,,,,,,,,,,,,,,,,,,,,,,,,,,,,,,,,,,,,,,,,,,,,,,,,,,,276.6462054000003,276.6621552000288,277.1462399000302,277.1462399000302,277.1462399000302,277.1462399000302,277.1627871999517,277.4459369999822,277.4459369999822,277.4459369999822,278.113835999975,z,0.9540910000214353,None,278.11429429997224,278.12993399996776,279.13036299997475,279.1142861000262,,,,,,,,,,,,,,,,,,,,,,,,,,,,,,,,,,,,,,,,,,,,,,,,,,,,,,,,,,,,,,,,,,,,,,,,,,,,,A_9,001,2024-11-29_10h27.28.431,untitled,2024.1.5,None,2024-11-29 10h27.46.664573 +0530,
square.png,stranger,1,M,,,,,,,,,18,2,74,0,,,,,,,,,279.13036299997475,,,,,,,,,,,,,,,,,,,,,,,,,,,,,,,,,,,,,,,,,,,,,,,,,,,,,,,,,,,,279.11466640001163,279.13036299997475,279.6142659999896,279.6142659999896,279.6142659999896,279.6142659999896,279.6306248999899,279.9140074000461,279.9140074000461,279.9140074000461,280.38172309997026,m,0.75893360003829,None,280.38216249994,280.39793420000933,281.39841250004247,281.38220770005137,,,,,,,,,,,,,,,,,,,,,,,,,,,,,,,,,,,,,,,,,,,,,,,,,,,,,,,,,,,,,,,,,,,,,,,,,,,,,A_9,001,2024-11-29_10h27.28.431,untitled,2024.1.5,None,2024-11-29 10h27.46.664573 +0530,
square.png,you,0,Z,,,,,,,,,18,3,75,2,,,,,,,,,281.39841250004247,,,,,,,,,,,,,,,,,,,,,,,,,,,,,,,,,,,,,,,,,,,,,,,,,,,,,,,,,,,,281.3825717000291,281.39841250004247,281.882093799999,281.882093799999,281.882093799999,281.882093799999,281.89884409995284,282.18222630000673,282.18222630000673,282.18222630000673,282.96626869996544,None,,,282.9664579000091,282.98239040002227,283.98306340002455,283.96666839998215,282.98239040002227,,,,,,,,,,,,,,,,,,,,,,,,,,,,,,,,,,,,,,,,,,,,,,,,,,,,,,,,,,,,,,,,,,,,,,,,,,,,A_9,001,2024-11-29_10h27.28.431,untitled,2024.1.5,None,2024-11-29 10h27.46.664573 +0530,
square.png,you,0,Z,,,,,,,,,19,0,76,2,,,,,,,,,283.98306340002455,,,,,,,,,,,,,,,,,,,,,,,,,,,,,,,,,,,,,,,,,,,,,,,,,,,,,,,,,,,,283.96703449997585,283.98306340002455,284.48348799999803,284.48348799999803,284.48348799999803,284.48348799999803,284.48348799999803,284.78336959995795,284.78336959995795,284.78336959995795,285.33452569996007,m,0.8489105000626296,None,285.3349671999458,285.3502027000068,286.35085709998384,286.33448980003595,,,,,,,,,,,,,,,,,,,,,,,,,,,,,,,,,,,,,,,,,,,,,,,,,,,,,,,,,,,,,,,,,,,,,,,,,,,,,A_9,001,2024-11-29_10h27.28.431,untitled,2024.1.5,None,2024-11-29 10h27.46.664573 +0530,
triangle.png,stranger,0,Z,,,,,,,,,19,1,77,3,,,,,,,,,286.35085709998384,,,,,,,,,,,,,,,,,,,,,,,,,,,,,,,,,,,,,,,,,,,,,,,,,,,,,,,,,,,,286.3348513999954,286.35085709998384,286.83467859996017,286.83467859996017,286.83467859996017,286.83467859996017,286.8513732999563,287.1347378999926,287.1347378999926,287.1347378999926,287.70247989997733,z,0.8657691999105737,None,287.7029223999707,287.7181114000268,288.71896179998294,288.7025615000166,,,,,,,,,,,,,,,,,,,,,,,,,,,,,,,,,,,,,,,,,,,,,,,,,,,,,,,,,,,,,,,,,,,,,,,,,,,,,A_9,001,2024-11-29_10h27.28.431,untitled,2024.1.5,None,2024-11-29 10h27.46.664573 +0530,
square.png,stranger,1,M,,,,,,,,,19,2,78,0,,,,,,,,,288.71896179998294,,,,,,,,,,,,,,,,,,,,,,,,,,,,,,,,,,,,,,,,,,,,,,,,,,,,,,,,,,,,288.7029857999878,288.71896179998294,289.20232130005024,289.20232130005024,289.20232130005024,289.20232130005024,289.2189910999732,289.50235349999275,289.50235349999275,289.50235349999275,289.9533568000188,z,0.7357880999334157,None,289.9537992000114,289.96937259996776,290.97009810002055,290.9537324999692,,,,,,,,,,,,,,,,,,,,,,,,,,,,,,,,,,,,,,,,,,,,,,,,,,,,,,,,,,,,,,,,,,,,,,,,,,,,,A_9,001,2024-11-29_10h27.28.431,untitled,2024.1.5,None,2024-11-29 10h27.46.664573 +0530,
triangle.png,you,1,M,,,,,,,,,19,3,79,1,,,,,,,,,290.97009810002055,,,,,,,,,,,,,,,,,,,,,,,,,,,,,,,,,,,,,,,,,,,,,,,,,,,,,,,,,,,,290.95409769995604,290.97009810002055,291.45375720004085,291.45375720004085,291.45375720004085,291.45375720004085,291.47030249994714,291.75372499995865,291.75372499995865,291.75372499995865,292.1211263999576,m,0.6547646999824792,None,292.1215580999851,292.1372871999629,293.1375478999689,293.12162170000374,,,,,,,,,,,,,,,,,,,,,,,,,,,,,,,,,,,,,,,,,,,,,,,,,,,,,,,,,,,,,,,,,,,,,,,,,,,,,A_9,001,2024-11-29_10h27.28.431,untitled,2024.1.5,None,2024-11-29 10h27.46.664573 +0530,
square.png,you,0,Z,,,,,,,,,20,0,80,2,,,,,,,,,293.1375478999689,,,,,,,,,,,,,,,,,,,,,,,,,,,,,,,,,,,,,,,,,,,,,,,,,,,,,,,,,,,,293.1219875999959,293.1375478999689,293.6212915000506,293.6212915000506,293.6212915000506,293.6212915000506,293.6380908000283,293.9214262999594,293.9214262999594,293.9214262999594,294.2890208000317,z,0.6516208000248298,None,294.28945799998473,294.3050809999695,295.3053504000418,295.289130799938,,,,,,,,,,,,,,,,,,,,,,,,,,,,,,,,,,,,,,,,,,,,,,,,,,,,,,,,,,,,,,,,,,,,,,,,,,,,,A_9,001,2024-11-29_10h27.28.431,untitled,2024.1.5,None,2024-11-29 10h27.46.664573 +0530,
triangle.png,you,1,M,,,,,,,,,20,1,81,1,,,,,,,,,295.3053504000418,,,,,,,,,,,,,,,,,,,,,,,,,,,,,,,,,,,,,,,,,,,,,,,,,,,,,,,,,,,,295.2894927000161,295.3053504000418,295.7891082999995,295.7891082999995,295.7891082999995,295.7891082999995,295.8059042999521,296.0893393999431,296.0893393999431,296.0893393999431,296.4066297999816,m,0.6048357000108808,None,296.4070721999742,296.4229058000492,297.42300710000563,297.4069253000198,,,,,,,,,,,,,,,,,,,,,,,,,,,,,,,,,,,,,,,,,,,,,,,,,,,,,,,,,,,,,,,,,,,,,,,,,,,,,A_9,001,2024-11-29_10h27.28.431,untitled,2024.1.5,None,2024-11-29 10h27.46.664573 +0530,
triangle.png,stranger,0,Z,,,,,,,,,20,2,82,3,,,,,,,,,297.42300710000563,,,,,,,,,,,,,,,,,,,,,,,,,,,,,,,,,,,,,,,,,,,,,,,,,,,,,,,,,,,,297.4072953000432,297.42300710000563,297.90699010004755,297.90699010004755,297.90699010004755,297.90699010004755,297.92348080000374,298.2069013,298.2069013,298.2069013,298.7747515999945,z,0.8587755999760702,None,298.7751865000464,298.7905486000236,299.7912936999928,299.7749587999424,,,,,,,,,,,,,,,,,,,,,,,,,,,,,,,,,,,,,,,,,,,,,,,,,,,,,,,,,,,,,,,,,,,,,,,,,,,,,A_9,001,2024-11-29_10h27.28.431,untitled,2024.1.5,None,2024-11-29 10h27.46.664573 +0530,
square.png,stranger,1,M,,,,,,,,,20,3,83,0,,,,,,,,,299.7912936999928,,,,,,,,,,,,,,,,,,,,,,,,,,,,,,,,,,,,,,,,,,,,,,,,,,,,,,,,,,,,299.7753358000191,299.7912936999928,300.274928299943,300.274928299943,300.274928299943,300.274928299943,300.29129910003394,300.57487060001586,300.57487060001586,300.57487060001586,300.8589747999795,m,0.5774307999527082,None,300.8594089000253,300.8749944999581,301.8754161000252,301.8592189999763,,,,,,,,,,,,,,,,,,,,,,,,,,,,,,,,,,,,,,,,,,,,,,,,,,,,,,,,,,,,,,,,,,,,,,,,,,,,,A_9,001,2024-11-29_10h27.28.431,untitled,2024.1.5,None,2024-11-29 10h27.46.664573 +0530,
square.png,you,0,Z,,,,,,,,,21,0,84,2,,,,,,,,,301.8754161000252,,,,,,,,,,,,,,,,,,,,,,,,,,,,,,,,,,,,,,,,,,,,,,,,,,,,,,,,,,,,301.8595791000407,301.8754161000252,302.35928330000024,302.35928330000024,302.35928330000024,302.35928330000024,302.37592430005316,302.6593060999876,302.6593060999876,302.6593060999876,303.06014419998974,z,0.685300900018774,None,303.0605751000112,303.0762148000067,304.0767573999474,304.06028129998595,,,,,,,,,,,,,,,,,,,,,,,,,,,,,,,,,,,,,,,,,,,,,,,,,,,,,,,,,,,,,,,,,,,,,,,,,,,,,A_9,001,2024-11-29_10h27.28.431,untitled,2024.1.5,None,2024-11-29 10h27.46.664573 +0530,
triangle.png,stranger,0,Z,,,,,,,,,21,1,85,3,,,,,,,,,304.0767573999474,,,,,,,,,,,,,,,,,,,,,,,,,,,,,,,,,,,,,,,,,,,,,,,,,,,,,,,,,,,,304.0606428999454,304.0767573999474,304.560581299942,304.560581299942,304.560581299942,304.560581299942,304.5770773999393,304.86040979996324,304.86040979996324,304.86040979996324,305.3112101999577,z,0.7359522999031469,None,305.31163599994034,305.3274044999853,306.3278882999439,306.31155810004566,,,,,,,,,,,,,,,,,,,,,,,,,,,,,,,,,,,,,,,,,,,,,,,,,,,,,,,,,,,,,,,,,,,,,,,,,,,,,A_9,001,2024-11-29_10h27.28.431,untitled,2024.1.5,None,2024-11-29 10h27.46.664573 +0530,
triangle.png,you,1,M,,,,,,,,,21,2,86,1,,,,,,,,,306.3278882999439,,,,,,,,,,,,,,,,,,,,,,,,,,,,,,,,,,,,,,,,,,,,,,,,,,,,,,,,,,,,306.3119350000052,306.3278882999439,306.81161870004144,306.81161870004144,306.81161870004144,306.81161870004144,306.82803199999034,307.1113688000478,307.1113688000478,307.1113688000478,307.612531999941,m,0.7858959999866784,None,307.6129690000089,307.6284083999926,308.6288831999991,308.6127139000455,,,,,,,,,,,,,,,,,,,,,,,,,,,,,,,,,,,,,,,,,,,,,,,,,,,,,,,,,,,,,,,,,,,,,,,,,,,,,A_9,001,2024-11-29_10h27.28.431,untitled,2024.1.5,None,2024-11-29 10h27.46.664573 +0530,
square.png,stranger,1,M,,,,,,,,,21,3,87,0,,,,,,,,,308.6288831999991,,,,,,,,,,,,,,,,,,,,,,,,,,,,,,,,,,,,,,,,,,,,,,,,,,,,,,,,,,,,308.6130768000148,308.6288831999991,309.1125942999497,309.1125942999497,309.1125942999497,309.1125942999497,309.129221900017,309.4125900999643,309.4125900999643,309.4125900999643,309.7804265000159,z,0.6597871999256313,None,309.7808603999438,309.79640400002245,310.7968321000226,310.780556099955,,,,,,,,,,,,,,,,,,,,,,,,,,,,,,,,,,,,,,,,,,,,,,,,,,,,,,,,,,,,,,,,,,,,,,,,,,,,,A_9,001,2024-11-29_10h27.28.431,untitled,2024.1.5,None,2024-11-29 10h27.46.664573 +0530,
triangle.png,stranger,0,Z,,,,,,,,,22,0,88,3,,,,,,,,,310.7968321000226,,,,,,,,,,,,,,,,,,,,,,,,,,,,,,,,,,,,,,,,,,,,,,,,,,,,,,,,,,,,310.7809285999974,310.7968321000226,311.28057149995584,311.28057149995584,311.28057149995584,311.28057149995584,311.2969641999807,311.5803683999693,311.5803683999693,311.5803683999693,311.9813660000218,m,0.6847006999887526,None,311.98180519999005,311.9973060999764,312.9979190999875,312.9815538999392,,,,,,,,,,,,,,,,,,,,,,,,,,,,,,,,,,,,,,,,,,,,,,,,,,,,,,,,,,,,,,,,,,,,,,,,,,,,,A_9,001,2024-11-29_10h27.28.431,untitled,2024.1.5,None,2024-11-29 10h27.46.664573 +0530,
triangle.png,you,1,M,,,,,,,,,22,1,89,1,,,,,,,,,312.9979190999875,,,,,,,,,,,,,,,,,,,,,,,,,,,,,,,,,,,,,,,,,,,,,,,,,,,,,,,,,,,,312.9819200000493,312.9979190999875,313.48162670002785,313.48162670002785,313.48162670002785,313.48162670002785,313.49811839999165,313.78168200002983,313.78168200002983,313.78168200002983,314.21606090001296,m,0.7282119999872521,None,314.21649220003746,314.2320066000102,315.2324372000294,315.21623300004285,,,,,,,,,,,,,,,,,,,,,,,,,,,,,,,,,,,,,,,,,,,,,,,,,,,,,,,,,,,,,,,,,,,,,,,,,,,,,A_9,001,2024-11-29_10h27.28.431,untitled,2024.1.5,None,2024-11-29 10h27.46.664573 +0530,
square.png,stranger,1,M,,,,,,,,,22,2,90,0,,,,,,,,,315.2324372000294,,,,,,,,,,,,,,,,,,,,,,,,,,,,,,,,,,,,,,,,,,,,,,,,,,,,,,,,,,,,315.2165943,315.2324372000294,315.7159728000406,315.7159728000406,315.7159728000406,315.7159728000406,315.73280680004973,316.01593889994547,316.01593889994547,316.01593889994547,316.33367459999863,z,0.6021612000185996,None,316.33410640002694,316.349723399966,317.35026750003453,317.33377879997715,,,,,,,,,,,,,,,,,,,,,,,,,,,,,,,,,,,,,,,,,,,,,,,,,,,,,,,,,,,,,,,,,,,,,,,,,,,,,A_9,001,2024-11-29_10h27.28.431,untitled,2024.1.5,None,2024-11-29 10h27.46.664573 +0530,
square.png,you,0,Z,,,,,,,,,22,3,91,2,,,,,,,,,317.35026750003453,,,,,,,,,,,,,,,,,,,,,,,,,,,,,,,,,,,,,,,,,,,,,,,,,,,,,,,,,,,,317.33414229995105,317.35026750003453,317.83408589998726,317.83408589998726,317.83408589998726,317.83408589998726,317.85030209994875,318.1338149999501,318.1338149999501,318.1338149999501,318.6851203000406,z,0.8502438000869006,None,318.6855540999677,318.70079739997163,319.7014828999527,319.6851889999816,,,,,,,,,,,,,,,,,,,,,,,,,,,,,,,,,,,,,,,,,,,,,,,,,,,,,,,,,,,,,,,,,,,,,,,,,,,,,A_9,001,2024-11-29_10h27.28.431,untitled,2024.1.5,None,2024-11-29 10h27.46.664573 +0530,
triangle.png,you,1,M,,,,,,,,,23,0,92,1,,,,,,,,,319.7014828999527,,,,,,,,,,,,,,,,,,,,,,,,,,,,,,,,,,,,,,,,,,,,,,,,,,,,,,,,,,,,319.68555399996694,319.7014828999527,320.1853398999665,320.1853398999665,320.1853398999665,320.1853398999665,320.20153630001005,320.485155900009,320.485155900009,320.485155900009,320.8862320999615,m,0.6997067000484094,None,320.88666189997457,320.901913800044,321.90262790001,321.8862399000209,,,,,,,,,,,,,,,,,,,,,,,,,,,,,,,,,,,,,,,,,,,,,,,,,,,,,,,,,,,,,,,,,,,,,,,,,,,,,A_9,001,2024-11-29_10h27.28.431,untitled,2024.1.5,None,2024-11-29 10h27.46.664573 +0530,
square.png,stranger,1,M,,,,,,,,,23,1,93,0,,,,,,,,,321.90262790001,,,,,,,,,,,,,,,,,,,,,,,,,,,,,,,,,,,,,,,,,,,,,,,,,,,,,,,,,,,,321.88660189998336,321.90262790001,322.3864353999961,322.3864353999961,322.3864353999961,322.3864353999961,322.4026635000482,322.68670399999246,322.68670399999246,322.68670399999246,323.22037440002896,z,0.8223696000641212,None,323.2208146000048,323.23648169997614,324.23664749995805,324.22046470001806,,,,,,,,,,,,,,,,,,,,,,,,,,,,,,,,,,,,,,,,,,,,,,,,,,,,,,,,,,,,,,,,,,,,,,,,,,,,,A_9,001,2024-11-29_10h27.28.431,untitled,2024.1.5,None,2024-11-29 10h27.46.664573 +0530,
square.png,you,0,Z,,,,,,,,,23,2,94,2,,,,,,,,,324.23664749995805,,,,,,,,,,,,,,,,,,,,,,,,,,,,,,,,,,,,,,,,,,,,,,,,,,,,,,,,,,,,324.22084239998367,324.23664749995805,324.72067920002155,324.72067920002155,324.72067920002155,324.72067920002155,324.73734740004875,325.0206066999817,325.0206066999817,325.0206066999817,325.52214300003834,z,0.8002559000160545,None,325.5225763999624,325.5376487999456,326.5379963000305,326.5218067000387,,,,,,,,,,,,,,,,,,,,,,,,,,,,,,,,,,,,,,,,,,,,,,,,,,,,,,,,,,,,,,,,,,,,,,,,,,,,,A_9,001,2024-11-29_10h27.28.431,untitled,2024.1.5,None,2024-11-29 10h27.46.664573 +0530,
triangle.png,stranger,0,Z,,,,,,,,,23,3,95,3,,,,,,,,,326.5379963000305,,,,,,,,,,,,,,,,,,,,,,,,,,,,,,,,,,,,,,,,,,,,,,,,,,,,,,,,,,,,326.5221742000431,326.5379963000305,327.0218042000197,327.0218042000197,327.0218042000197,327.0218042000197,327.03864709998015,327.32186190003995,327.32186190003995,327.32186190003995,327.9561402000254,z,0.9238339000148699,None,327.9565831000218,327.97223209997173,328.9728166999994,328.9564660999458,,,,,,,,,,,,,,,,,,,,,,,,,,,,,,,,,,,,,,,,,,,,,,,,,,,,,,,,,,,,,,,,,,,,,,,,,,,,,A_9,001,2024-11-29_10h27.28.431,untitled,2024.1.5,None,2024-11-29 10h27.46.664573 +0530,
triangle.png,stranger,0,Z,,,,,,,,,24,0,96,3,,,,,,,,,328.9728166999994,,,,,,,,,,,,,,,,,,,,,,,,,,,,,,,,,,,,,,,,,,,,,,,,,,,,,,,,,,,,328.9568268000148,328.9728166999994,329.4567408999428,329.4567408999428,329.4567408999428,329.4567408999428,329.4732650000369,329.7563698999584,329.7563698999584,329.7563698999584,330.54052289994434,None,,,330.54071460000705,330.55695310002193,331.55730390001554,331.5412468999857,330.55695310002193,,,,,,,,,,,,,,,,,,,,,,,,,,,,,,,,,,,,,,,,,,,,,,,,,,,,,,,,,,,,,,,,,,,,,,,,,,,,A_9,001,2024-11-29_10h27.28.431,untitled,2024.1.5,None,2024-11-29 10h27.46.664573 +0530,
triangle.png,you,1,M,,,,,,,,,24,1,97,1,,,,,,,,,331.55730390001554,,,,,,,,,,,,,,,,,,,,,,,,,,,,,,,,,,,,,,,,,,,,,,,,,,,,,,,,,,,,331.54160899994895,331.55730390001554,332.05798969999887,332.05798969999887,332.05798969999887,332.05798969999887,332.05798969999887,332.3579295000527,332.3579295000527,332.3579295000527,332.758872800041,m,0.6874055999796838,None,332.75931480003055,332.7746475000167,333.77507850003894,333.75905760005116,,,,,,,,,,,,,,,,,,,,,,,,,,,,,,,,,,,,,,,,,,,,,,,,,,,,,,,,,,,,,,,,,,,,,,,,,,,,,A_9,001,2024-11-29_10h27.28.431,untitled,2024.1.5,None,2024-11-29 10h27.46.664573 +0530,
square.png,you,0,Z,,,,,,,,,24,2,98,2,,,,,,,,,333.77507850003894,,,,,,,,,,,,,,,,,,,,,,,,,,,,,,,,,,,,,,,,,,,,,,,,,,,,,,,,,,,,333.7594378000358,333.77507850003894,334.2591236999724,334.2591236999724,334.2591236999724,334.2591236999724,334.2754108000081,334.5589107000269,334.5589107000269,334.5589107000269,335.15978099999484,z,0.8860096000134945,None,335.16022129997145,335.1759408999933,336.1764153999975,336.16028650000226,,,,,,,,,,,,,,,,,,,,,,,,,,,,,,,,,,,,,,,,,,,,,,,,,,,,,,,,,,,,,,,,,,,,,,,,,,,,,A_9,001,2024-11-29_10h27.28.431,untitled,2024.1.5,None,2024-11-29 10h27.46.664573 +0530,
square.png,stranger,1,M,,,,,,,,,24,3,99,0,,,,,,,,,336.1764153999975,,,,,,,,,,,,,,,,,,,,,,,,,,,,,,,,,,,,,,,,,,,,,,,,,,,,,,,,,,,,336.1606503999792,336.1764153999975,336.66022099996917,336.66022099996917,336.66022099996917,336.66022099996917,336.67691120004747,336.96020700002555,336.96020700002555,336.96020700002555,337.59471159998793,z,0.9179406000766903,None,337.59514360001776,337.61054709996097,338.610725000035,338.5945360000478,,,,,,,,,,,,,,,,,,,,,,,,,,,,,,,,,,,,,,,,,,,,,,,,,,,,,,,,,,,,,,,,,,,,,,,,,,,,,A_9,001,2024-11-29_10h27.28.431,untitled,2024.1.5,None,2024-11-29 10h27.46.664573 +0530,
square.png,you,0,Z,,,,,,,,,25,0,100,2,,,,,,,,,338.610725000035,,,,,,,,,,,,,,,,,,,,,,,,,,,,,,,,,,,,,,,,,,,,,,,,,,,,,,,,,,,,338.5949093999807,338.610725000035,339.0947427999927,339.0947427999927,339.0947427999927,339.0947427999927,339.1112080999883,339.3947764999466,339.3947764999466,339.3947764999466,339.84558159997687,z,0.739322500070557,None,339.8460256999824,339.86174199997913,340.86201339995023,340.8458304000087,,,,,,,,,,,,,,,,,,,,,,,,,,,,,,,,,,,,,,,,,,,,,,,,,,,,,,,,,,,,,,,,,,,,,,,,,,,,,A_9,001,2024-11-29_10h27.28.431,untitled,2024.1.5,None,2024-11-29 10h27.46.664573 +0530,
square.png,stranger,1,M,,,,,,,,,25,1,101,0,,,,,,,,,340.86201339995023,,,,,,,,,,,,,,,,,,,,,,,,,,,,,,,,,,,,,,,,,,,,,,,,,,,,,,,,,,,,340.84620030003134,340.86201339995023,341.3458570999792,341.3458570999792,341.3458570999792,341.3458570999792,341.3626036000205,341.64595050003845,341.64595050003845,341.64595050003845,342.2970092999749,m,0.9464633000316098,None,342.2974485999439,342.3130384000251,343.3134048000211,343.29736199998297,,,,,,,,,,,,,,,,,,,,,,,,,,,,,,,,,,,,,,,,,,,,,,,,,,,,,,,,,,,,,,,,,,,,,,,,,,,,,A_9,001,2024-11-29_10h27.28.431,untitled,2024.1.5,None,2024-11-29 10h27.46.664573 +0530,
triangle.png,you,1,M,,,,,,,,,25,2,102,1,,,,,,,,,343.3134048000211,,,,,,,,,,,,,,,,,,,,,,,,,,,,,,,,,,,,,,,,,,,,,,,,,,,,,,,,,,,,343.29778819996864,343.3134048000211,343.79715510003734,343.79715510003734,343.79715510003734,343.79715510003734,343.8138890999835,344.0970527000027,344.0970527000027,344.0970527000027,344.3815076999599,m,0.5678825000068173,None,344.38194330001716,344.3972085999558,345.39776129997335,345.38168620003853,,,,,,,,,,,,,,,,,,,,,,,,,,,,,,,,,,,,,,,,,,,,,,,,,,,,,,,,,,,,,,,,,,,,,,,,,,,,,A_9,001,2024-11-29_10h27.28.431,untitled,2024.1.5,None,2024-11-29 10h27.46.664573 +0530,
triangle.png,stranger,0,Z,,,,,,,,,25,3,103,3,,,,,,,,,345.39776129997335,,,,,,,,,,,,,,,,,,,,,,,,,,,,,,,,,,,,,,,,,,,,,,,,,,,,,,,,,,,,345.3820476999972,345.39776129997335,345.88163880002685,345.88163880002685,345.88163880002685,345.88163880002685,345.8981147999875,346.18159030005336,346.18159030005336,346.18159030005336,346.68261050002184,z,0.78667449997738,None,346.68304869998246,346.69865230005234,347.6990628000349,347.68277009995654,,,,,,,,,,,,,,,,,,,,,,,,,,,,,,,,,,,,,,,,,,,,,,,,,,,,,,,,,,,,,,,,,,,,,,,,,,,,,A_9,001,2024-11-29_10h27.28.431,untitled,2024.1.5,None,2024-11-29 10h27.46.664573 +0530,
triangle.png,you,1,M,,,,,,,,,26,0,104,1,,,,,,,,,347.6990628000349,,,,,,,,,,,,,,,,,,,,,,,,,,,,,,,,,,,,,,,,,,,,,,,,,,,,,,,,,,,,347.6831324000377,347.6990628000349,348.18297550000716,348.18297550000716,348.18297550000716,348.18297550000716,348.19921580003574,348.4826010999968,348.4826010999968,348.4826010999968,348.9335883000167,m,0.7470633999910206,None,348.93402960000094,348.9496288000373,349.95035419997294,349.93402719998267,,,,,,,,,,,,,,,,,,,,,,,,,,,,,,,,,,,,,,,,,,,,,,,,,,,,,,,,,,,,,,,,,,,,,,,,,,,,,A_9,001,2024-11-29_10h27.28.431,untitled,2024.1.5,None,2024-11-29 10h27.46.664573 +0530,
square.png,stranger,1,M,,,,,,,,,26,1,105,0,,,,,,,,,349.95035419997294,,,,,,,,,,,,,,,,,,,,,,,,,,,,,,,,,,,,,,,,,,,,,,,,,,,,,,,,,,,,349.9343892999459,349.95035419997294,350.4338491000235,350.4338491000235,350.4338491000235,350.4338491000235,350.450665100012,350.7337970000226,350.7337970000226,350.7337970000226,351.1183089000406,z,0.6760082000400871,None,351.1187467999989,351.1342791999923,352.13476319995243,352.1184846999822,,,,,,,,,,,,,,,,,,,,,,,,,,,,,,,,,,,,,,,,,,,,,,,,,,,,,,,,,,,,,,,,,,,,,,,,,,,,,A_9,001,2024-11-29_10h27.28.431,untitled,2024.1.5,None,2024-11-29 10h27.46.664573 +0530,
square.png,you,0,Z,,,,,,,,,26,2,106,2,,,,,,,,,352.13476319995243,,,,,,,,,,,,,,,,,,,,,,,,,,,,,,,,,,,,,,,,,,,,,,,,,,,,,,,,,,,,352.1188487999607,352.13476319995243,352.6183431999525,352.6183431999525,352.6183431999525,352.6183431999525,352.63514449994545,352.9183610000182,352.9183610000182,352.9183610000182,353.4026836999692,z,0.7828177999472246,None,353.4031157999998,353.41877790004946,354.4193448999431,354.40318170003593,,,,,,,,,,,,,,,,,,,,,,,,,,,,,,,,,,,,,,,,,,,,,,,,,,,,,,,,,,,,,,,,,,,,,,,,,,,,,A_9,001,2024-11-29_10h27.28.431,untitled,2024.1.5,None,2024-11-29 10h27.46.664573 +0530,
triangle.png,stranger,0,Z,,,,,,,,,26,3,107,3,,,,,,,,,354.4193448999431,,,,,,,,,,,,,,,,,,,,,,,,,,,,,,,,,,,,,,,,,,,,,,,,,,,,,,,,,,,,354.4035589999985,354.4193448999431,354.9028036999516,354.9028036999516,354.9028036999516,354.9028036999516,354.9192919000052,355.2028300999664,355.2028300999664,355.2028300999664,355.7374146999791,z,0.8302069999044761,None,355.73786150000524,355.7530511999503,356.7536090000067,356.73736939998344,,,,,,,,,,,,,,,,,,,,,,,,,,,,,,,,,,,,,,,,,,,,,,,,,,,,,,,,,,,,,,,,,,,,,,,,,,,,,A_9,001,2024-11-29_10h27.28.431,untitled,2024.1.5,None,2024-11-29 10h27.46.664573 +0530,
triangle.png,you,1,M,,,,,,,,,27,0,108,1,,,,,,,,,356.7536090000067,,,,,,,,,,,,,,,,,,,,,,,,,,,,,,,,,,,,,,,,,,,,,,,,,,,,,,,,,,,,356.73773569997866,356.7536090000067,357.2373497999506,357.2373497999506,357.2373497999506,357.2373497999506,357.25411860004533,357.5375758999726,357.5375758999726,357.5375758999726,357.97181190003175,m,0.7238385999808088,None,357.9722448999528,357.98758459999226,358.98823200003244,358.971754899947,,,,,,,,,,,,,,,,,,,,,,,,,,,,,,,,,,,,,,,,,,,,,,,,,,,,,,,,,,,,,,,,,,,,,,,,,,,,,A_9,001,2024-11-29_10h27.28.431,untitled,2024.1.5,None,2024-11-29 10h27.46.664573 +0530,
square.png,you,0,Z,,,,,,,,,27,1,109,2,,,,,,,,,358.98823200003244,,,,,,,,,,,,,,,,,,,,,,,,,,,,,,,,,,,,,,,,,,,,,,,,,,,,,,,,,,,,358.97212239995133,358.98823200003244,359.47190320002846,359.47190320002846,359.47190320002846,359.47190320002846,359.4884588000132,359.7720034000231,359.7720034000231,359.7720034000231,360.2395169000374,z,0.7658044999698177,None,360.23997110000346,360.25552520004567,361.2561136999866,361.23988989996724,,,,,,,,,,,,,,,,,,,,,,,,,,,,,,,,,,,,,,,,,,,,,,,,,,,,,,,,,,,,,,,,,,,,,,,,,,,,,A_9,001,2024-11-29_10h27.28.431,untitled,2024.1.5,None,2024-11-29 10h27.46.664573 +0530,
square.png,stranger,1,M,,,,,,,,,27,2,110,0,,,,,,,,,361.2561136999866,,,,,,,,,,,,,,,,,,,,,,,,,,,,,,,,,,,,,,,,,,,,,,,,,,,,,,,,,,,,361.2402512000408,361.2561136999866,361.73995980003383,361.73995980003383,361.73995980003383,361.73995980003383,361.7562865000218,362.0397425999399,362.0397425999399,362.0397425999399,362.6074259999441,z,0.8572905999608338,None,362.6078949000221,362.6235372000374,363.62408009998035,363.60779369995,,,,,,,,,,,,,,,,,,,,,,,,,,,,,,,,,,,,,,,,,,,,,,,,,,,,,,,,,,,,,,,,,,,,,,,,,,,,,A_9,001,2024-11-29_10h27.28.431,untitled,2024.1.5,None,2024-11-29 10h27.46.664573 +0530,
triangle.png,stranger,0,Z,,,,,,,,,27,3,111,3,,,,,,,,,363.62408009998035,,,,,,,,,,,,,,,,,,,,,,,,,,,,,,,,,,,,,,,,,,,,,,,,,,,,,,,,,,,,363.608166799997,363.62408009998035,364.1079404000193,364.1079404000193,364.1079404000193,364.1079404000193,364.12445480003953,364.40752520004753,364.40752520004753,364.40752520004753,364.95857310004067,z,0.8451544999843463,None,364.9590083999792,364.97450520005077,365.97499839996453,365.9589157999726,,,,,,,,,,,,,,,,,,,,,,,,,,,,,,,,,,,,,,,,,,,,,,,,,,,,,,,,,,,,,,,,,,,,,,,,,,,,,A_9,001,2024-11-29_10h27.28.431,untitled,2024.1.5,None,2024-11-29 10h27.46.664573 +0530,
triangle.png,you,1,M,,,,,,,,,28,0,112,1,,,,,,,,,365.97499839996453,,,,,,,,,,,,,,,,,,,,,,,,,,,,,,,,,,,,,,,,,,,,,,,,,,,,,,,,,,,,365.95928129996173,365.97499839996453,366.4587788999779,366.4587788999779,366.4587788999779,366.4587788999779,366.47532900003716,366.75862239999697,366.75862239999697,366.75862239999697,367.10971250000875,m,0.639108500094153,None,367.1101534999907,367.12582309998106,368.12606839998625,368.10995810001623,,,,,,,,,,,,,,,,,,,,,,,,,,,,,,,,,,,,,,,,,,,,,,,,,,,,,,,,,,,,,,,,,,,,,,,,,,,,,A_9,001,2024-11-29_10h27.28.431,untitled,2024.1.5,None,2024-11-29 10h27.46.664573 +0530,
square.png,you,0,Z,,,,,,,,,28,1,113,2,,,,,,,,,368.12606839998625,,,,,,,,,,,,,,,,,,,,,,,,,,,,,,,,,,,,,,,,,,,,,,,,,,,,,,,,,,,,368.1103276000358,368.12606839998625,368.60978339996655,368.60978339996655,368.60978339996655,368.60978339996655,368.6265706999693,368.91006449994165,368.91006449994165,368.91006449994165,369.29437070002314,z,0.6759546000976115,None,369.29480100004,369.3102895000484,370.3108845000388,370.2945415000431,,,,,,,,,,,,,,,,,,,,,,,,,,,,,,,,,,,,,,,,,,,,,,,,,,,,,,,,,,,,,,,,,,,,,,,,,,,,,A_9,001,2024-11-29_10h27.28.431,untitled,2024.1.5,None,2024-11-29 10h27.46.664573 +0530,
triangle.png,stranger,0,Z,,,,,,,,,28,2,114,3,,,,,,,,,370.3108845000388,,,,,,,,,,,,,,,,,,,,,,,,,,,,,,,,,,,,,,,,,,,,,,,,,,,,,,,,,,,,370.2948990999721,370.3108845000388,370.7943608999485,370.7943608999485,370.7943608999485,370.7943608999485,370.8110061000334,371.09432859998196,371.09432859998196,371.09432859998196,371.745643000002,z,0.946127999923192,None,371.7460730000166,371.76137349999044,372.7618835000321,372.74604500003625,,,,,,,,,,,,,,,,,,,,,,,,,,,,,,,,,,,,,,,,,,,,,,,,,,,,,,,,,,,,,,,,,,,,,,,,,,,,,A_9,001,2024-11-29_10h27.28.431,untitled,2024.1.5,None,2024-11-29 10h27.46.664573 +0530,
square.png,stranger,1,M,,,,,,,,,28,3,115,0,,,,,,,,,372.7618835000321,,,,,,,,,,,,,,,,,,,,,,,,,,,,,,,,,,,,,,,,,,,,,,,,,,,,,,,,,,,,372.74640619999263,372.7618835000321,373.24555959994905,373.24555959994905,373.24555959994905,373.24555959994905,373.2621688999934,373.5456025999738,373.5456025999738,373.5456025999738,374.1801252999576,m,0.9276365999830887,None,374.18055279995315,374.1961685999995,375.19640569994226,375.18022420001216,,,,,,,,,,,,,,,,,,,,,,,,,,,,,,,,,,,,,,,,,,,,,,,,,,,,,,,,,,,,,,,,,,,,,,,,,,,,,A_9,001,2024-11-29_10h27.28.431,untitled,2024.1.5,None,2024-11-29 10h27.46.664573 +0530,
square.png,you,0,Z,,,,,,,,,29,0,116,2,,,,,,,,,375.19640569994226,,,,,,,,,,,,,,,,,,,,,,,,,,,,,,,,,,,,,,,,,,,,,,,,,,,,,,,,,,,,375.1805828999495,375.19640569994226,375.6801685000537,375.6801685000537,375.6801685000537,375.6801685000537,375.6967489999952,375.98030870000366,375.98030870000366,375.98030870000366,376.46441030001733,z,0.7771660999860615,None,376.46487000002526,376.4806315000169,377.4809210000094,377.46456210000906,,,,,,,,,,,,,,,,,,,,,,,,,,,,,,,,,,,,,,,,,,,,,,,,,,,,,,,,,,,,,,,,,,,,,,,,,,,,,A_9,001,2024-11-29_10h27.28.431,untitled,2024.1.5,None,2024-11-29 10h27.46.664573 +0530,
triangle.png,you,1,M,,,,,,,,,29,1,117,1,,,,,,,,,377.4809210000094,,,,,,,,,,,,,,,,,,,,,,,,,,,,,,,,,,,,,,,,,,,,,,,,,,,,,,,,,,,,377.4649304000195,377.4809210000094,377.96483149996493,377.96483149996493,377.96483149996493,377.96483149996493,377.9815134999808,378.26482799998485,378.26482799998485,378.26482799998485,378.4656978000421,m,0.48546200001146644,None,378.4661297999555,378.4817490000278,379.48198919999413,379.46583869995084,,,,,,,,,,,,,,,,,,,,,,,,,,,,,,,,,,,,,,,,,,,,,,,,,,,,,,,,,,,,,,,,,,,,,,,,,,,,,A_9,001,2024-11-29_10h27.28.431,untitled,2024.1.5,None,2024-11-29 10h27.46.664573 +0530,
square.png,stranger,1,M,,,,,,,,,29,2,118,0,,,,,,,,,379.48198919999413,,,,,,,,,,,,,,,,,,,,,,,,,,,,,,,,,,,,,,,,,,,,,,,,,,,,,,,,,,,,379.46620759996586,379.48198919999413,379.96564539999235,379.96564539999235,379.96564539999235,379.96564539999235,379.9823064999655,380.2656411000062,380.2656411000062,380.2656411000062,380.65000859997235,z,0.6685065000783652,None,380.65044250001665,380.66614119999576,381.66666410001926,381.6501316999784,,,,,,,,,,,,,,,,,,,,,,,,,,,,,,,,,,,,,,,,,,,,,,,,,,,,,,,,,,,,,,,,,,,,,,,,,,,,,A_9,001,2024-11-29_10h27.28.431,untitled,2024.1.5,None,2024-11-29 10h27.46.664573 +0530,
triangle.png,stranger,0,Z,,,,,,,,,29,3,119,3,,,,,,,,,381.66666410001926,,,,,,,,,,,,,,,,,,,,,,,,,,,,,,,,,,,,,,,,,,,,,,,,,,,,,,,,,,,,381.65049729996826,381.66666410001926,382.14993620000314,382.14993620000314,382.14993620000314,382.14993620000314,382.16653419996146,382.4503160000313,382.4503160000313,382.4503160000313,382.83455889998004,z,0.6833721000002697,None,382.8349894999992,382.8503828999819,383.8510511999484,383.8348195999861,,,,,,,,,,,,,,,,,,,,,,,,,,,,,,,,,,,,,,,,,,,,,,,,,,,,,,,,,,,,,,,,,,,,,,,,,,,,,A_9,001,2024-11-29_10h27.28.431,untitled,2024.1.5,None,2024-11-29 10h27.46.664573 +0530,
triangle.png,stranger,0,Z,,,,,,,,,30,0,120,3,,,,,,,,,383.8510511999484,,,,,,,,,,,,,,,,,,,,,,,,,,,,,,,,,,,,,,,,,,,,,,,,,,,,,,,,,,,,383.83517910004593,383.8510511999484,384.33454149996396,384.33454149996396,384.33454149996396,384.33454149996396,384.3513789999997,384.6346903999802,384.6346903999802,384.6346903999802,385.26913090003654,m,0.9183399999747053,None,385.2695571000222,385.28499800001737,386.2854498999659,386.2693345999578,,,,,,,,,,,,,,,,,,,,,,,,,,,,,,,,,,,,,,,,,,,,,,,,,,,,,,,,,,,,,,,,,,,,,,,,,,,,,A_9,001,2024-11-29_10h27.28.431,untitled,2024.1.5,None,2024-11-29 10h27.46.664573 +0530,
square.png,stranger,1,M,,,,,,,,,30,1,121,0,,,,,,,,,386.2854498999659,,,,,,,,,,,,,,,,,,,,,,,,,,,,,,,,,,,,,,,,,,,,,,,,,,,,,,,,,,,,386.2697014999576,386.2854498999659,386.7693002000451,386.7693002000451,386.7693002000451,386.7693002000451,386.78579290001653,387.0693274999503,387.0693274999503,387.0693274999503,387.4535340999719,z,0.672171099926345,None,387.4539827000117,387.46931469999254,388.47015059995465,388.45385779999197,,,,,,,,,,,,,,,,,,,,,,,,,,,,,,,,,,,,,,,,,,,,,,,,,,,,,,,,,,,,,,,,,,,,,,,,,,,,,A_9,001,2024-11-29_10h27.28.431,untitled,2024.1.5,None,2024-11-29 10h27.46.664573 +0530,
triangle.png,you,1,M,,,,,,,,,30,2,122,1,,,,,,,,,388.47015059995465,,,,,,,,,,,,,,,,,,,,,,,,,,,,,,,,,,,,,,,,,,,,,,,,,,,,,,,,,,,,388.45421819994226,388.47015059995465,388.95348399993964,388.95348399993964,388.95348399993964,388.95348399993964,388.97032650001347,389.2535902999807,389.2535902999807,389.2535902999807,389.63795330002904,m,0.6680672999937087,None,389.6383839000482,389.65402919996995,390.65457510005217,390.63857730000746,,,,,,,,,,,,,,,,,,,,,,,,,,,,,,,,,,,,,,,,,,,,,,,,,,,,,,,,,,,,,,,,,,,,,,,,,,,,,A_9,001,2024-11-29_10h27.28.431,untitled,2024.1.5,None,2024-11-29 10h27.46.664573 +0530,
square.png,you,0,Z,,,,,,,,,30,3,123,2,,,,,,,,,390.65457510005217,,,,,,,,,,,,,,,,,,,,,,,,,,,,,,,,,,,,,,,,,,,,,,,,,,,,,,,,,,,,390.63894059997983,390.65457510005217,391.1382002000464,391.1382002000464,391.1382002000464,391.1382002000464,391.15478189999703,391.4382692000363,391.4382692000363,391.4382692000363,392.17271860002074,z,1.026228899951093,None,392.1731528999517,392.18843129999004,393.18916810001247,393.17284330003895,,,,,,,,,,,,,,,,,,,,,,,,,,,,,,,,,,,,,,,,,,,,,,,,,,,,,,,,,,,,,,,,,,,,,,,,,,,,,A_9,001,2024-11-29_10h27.28.431,untitled,2024.1.5,None,2024-11-29 10h27.46.664573 +0530,
triangle.png,you,1,M,,,,,,,,,31,0,124,1,,,,,,,,,393.18916810001247,,,,,,,,,,,,,,,,,,,,,,,,,,,,,,,,,,,,,,,,,,,,,,,,,,,,,,,,,,,,393.17321759997867,393.18916810001247,393.67269319994375,393.67269319994375,393.67269319994375,393.67269319994375,393.6894756000256,393.9727329999441,393.9727329999441,393.9727329999441,394.2403328999644,m,0.5517512999940664,None,394.24076830002014,394.2563173000235,395.25695289997384,395.2405405000318,,,,,,,,,,,,,,,,,,,,,,,,,,,,,,,,,,,,,,,,,,,,,,,,,,,,,,,,,,,,,,,,,,,,,,,,,,,,,A_9,001,2024-11-29_10h27.28.431,untitled,2024.1.5,None,2024-11-29 10h27.46.664573 +0530,
triangle.png,stranger,0,Z,,,,,,,,,31,1,125,3,,,,,,,,,395.25695289997384,,,,,,,,,,,,,,,,,,,,,,,,,,,,,,,,,,,,,,,,,,,,,,,,,,,,,,,,,,,,395.2409053000156,395.25695289997384,395.74064480001107,395.74064480001107,395.74064480001107,395.74064480001107,395.7573122000322,396.0404858000111,396.0404858000111,396.0404858000111,396.4747023000382,z,0.7326734999660403,None,396.4751348999562,396.49080989998765,397.4913958000252,397.47492519998923,,,,,,,,,,,,,,,,,,,,,,,,,,,,,,,,,,,,,,,,,,,,,,,,,,,,,,,,,,,,,,,,,,,,,,,,,,,,,A_9,001,2024-11-29_10h27.28.431,untitled,2024.1.5,None,2024-11-29 10h27.46.664573 +0530,
square.png,you,0,Z,,,,,,,,,31,2,126,2,,,,,,,,,397.4913958000252,,,,,,,,,,,,,,,,,,,,,,,,,,,,,,,,,,,,,,,,,,,,,,,,,,,,,,,,,,,,397.4752945000073,397.4913958000252,397.9751089999918,397.9751089999918,397.9751089999918,397.9751089999918,397.9917432999937,398.27494240005035,398.27494240005035,398.27494240005035,399.05922559998,None,,,399.05941999994684,399.0755170000484,400.0759221999906,400.05970049998723,399.0755170000484,,,,,,,,,,,,,,,,,,,,,,,,,,,,,,,,,,,,,,,,,,,,,,,,,,,,,,,,,,,,,,,,,,,,,,,,,,,,A_9,001,2024-11-29_10h27.28.431,untitled,2024.1.5,None,2024-11-29 10h27.46.664573 +0530,
square.png,stranger,1,M,,,,,,,,,31,3,127,0,,,,,,,,,400.0759221999906,,,,,,,,,,,,,,,,,,,,,,,,,,,,,,,,,,,,,,,,,,,,,,,,,,,,,,,,,,,,400.06008049997035,400.0759221999906,400.5761311999522,400.5761311999522,400.5761311999522,400.5761311999522,400.5761311999522,400.8762919999426,400.8762919999426,400.8762919999426,401.66050879994873,None,,,401.66070440004114,401.6765903000487,402.67720619996544,402.6610591999488,401.6765903000487,,,,,,,,,,,,,,,,,,,,,,,,,,,,,,,,,,,,,,,,,,,,,,,,,,,,,,,,,,,,,,,,,,,,,,,,,,,,A_9,001,2024-11-29_10h27.28.431,untitled,2024.1.5,None,2024-11-29 10h27.46.664573 +0530,
triangle.png,stranger,0,Z,,,,,,,,,32,0,128,3,,,,,,,,,402.67720619996544,,,,,,,,,,,,,,,,,,,,,,,,,,,,,,,,,,,,,,,,,,,,,,,,,,,,,,,,,,,,402.66143089998513,402.67720619996544,403.1777907999931,403.1777907999931,403.1777907999931,403.1777907999931,403.1777907999931,403.47771160001867,403.47771160001867,403.47771160001867,404.26174029998947,None,,,404.26193329994567,404.2782420000294,405.27853629994206,405.2624136999948,404.2782420000294,,,,,,,,,,,,,,,,,,,,,,,,,,,,,,,,,,,,,,,,,,,,,,,,,,,,,,,,,,,,,,,,,,,,,,,,,,,,A_9,001,2024-11-29_10h27.28.431,untitled,2024.1.5,None,2024-11-29 10h27.46.664573 +0530,
square.png,stranger,1,M,,,,,,,,,32,1,129,0,,,,,,,,,405.27853629994206,,,,,,,,,,,,,,,,,,,,,,,,,,,,,,,,,,,,,,,,,,,,,,,,,,,,,,,,,,,,405.2627844000235,405.27853629994206,405.7791302000405,405.7791302000405,405.7791302000405,405.7791302000405,405.7791302000405,406.07899389998056,406.07899389998056,406.07899389998056,406.5131453999784,z,0.7268860000185668,None,406.51357650000136,406.52927089994773,407.53004939993843,407.51352809998207,,,,,,,,,,,,,,,,,,,,,,,,,,,,,,,,,,,,,,,,,,,,,,,,,,,,,,,,,,,,,,,,,,,,,,,,,,,,,A_9,001,2024-11-29_10h27.28.431,untitled,2024.1.5,None,2024-11-29 10h27.46.664573 +0530,
triangle.png,you,1,M,,,,,,,,,32,2,130,1,,,,,,,,,407.53004939993843,,,,,,,,,,,,,,,,,,,,,,,,,,,,,,,,,,,,,,,,,,,,,,,,,,,,,,,,,,,,407.51389009994455,407.53004939993843,408.01359410001896,408.01359410001896,408.01359410001896,408.01359410001896,408.0302654999541,408.3136061000405,408.3136061000405,408.3136061000405,408.6645694000181,m,0.6434982999926433,None,408.6650023999391,408.68027829995845,409.6808941999916,409.6648548999801,,,,,,,,,,,,,,,,,,,,,,,,,,,,,,,,,,,,,,,,,,,,,,,,,,,,,,,,,,,,,,,,,,,,,,,,,,,,,A_9,001,2024-11-29_10h27.28.431,untitled,2024.1.5,None,2024-11-29 10h27.46.664573 +0530,
square.png,you,0,Z,,,,,,,,,32,3,131,2,,,,,,,,,409.6808941999916,,,,,,,,,,,,,,,,,,,,,,,,,,,,,,,,,,,,,,,,,,,,,,,,,,,,,,,,,,,,409.6652241999982,409.6808941999916,410.16454509994946,410.16454509994946,410.16454509994946,410.16454509994946,410.18139619997237,410.46459210000467,410.46459210000467,410.46459210000467,410.99913180002477,z,0.8292243999894708,None,410.9995596000226,411.0148221999407,412.01521660003345,411.99912539997604,,,,,,,,,,,,,,,,,,,,,,,,,,,,,,,,,,,,,,,,,,,,,,,,,,,,,,,,,,,,,,,,,,,,,,,,,,,,,A_9,001,2024-11-29_10h27.28.431,untitled,2024.1.5,None,2024-11-29 10h27.46.664573 +0530,
square.png,stranger,1,M,,,,,,,,,33,0,132,0,,,,,,,,,412.01521660003345,,,,,,,,,,,,,,,,,,,,,,,,,,,,,,,,,,,,,,,,,,,,,,,,,,,,,,,,,,,,411.9994949999964,412.01521660003345,412.49924080003984,412.49924080003984,412.49924080003984,412.49924080003984,412.5157134999754,412.79904820001684,412.79904820001684,412.79904820001684,413.3668167999713,z,0.8587047000182793,None,413.3672524000285,413.3828180000419,414.3833311999915,414.36719669995364,,,,,,,,,,,,,,,,,,,,,,,,,,,,,,,,,,,,,,,,,,,,,,,,,,,,,,,,,,,,,,,,,,,,,,,,,,,,,A_9,001,2024-11-29_10h27.28.431,untitled,2024.1.5,None,2024-11-29 10h27.46.664573 +0530,
triangle.png,stranger,0,Z,,,,,,,,,33,1,133,3,,,,,,,,,414.3833311999915,,,,,,,,,,,,,,,,,,,,,,,,,,,,,,,,,,,,,,,,,,,,,,,,,,,,,,,,,,,,414.3675572000211,414.3833311999915,414.8668996000197,414.8668996000197,414.8668996000197,414.8668996000197,414.8837431999855,415.16679219994694,415.16679219994694,415.16679219994694,415.4180026999675,m,0.5390336000127718,None,415.41851770004723,415.43395610002335,416.434417600045,416.4181749999989,,,,,,,,,,,,,,,,,,,,,,,,,,,,,,,,,,,,,,,,,,,,,,,,,,,,,,,,,,,,,,,,,,,,,,,,,,,,,A_9,001,2024-11-29_10h27.28.431,untitled,2024.1.5,None,2024-11-29 10h27.46.664573 +0530,
square.png,you,0,Z,,,,,,,,,33,2,134,2,,,,,,,,,416.434417600045,,,,,,,,,,,,,,,,,,,,,,,,,,,,,,,,,,,,,,,,,,,,,,,,,,,,,,,,,,,,416.4185476000421,416.434417600045,416.91833859996404,416.91833859996404,416.91833859996404,416.91833859996404,416.93475939997006,417.21789480000734,417.21789480000734,417.21789480000734,417.4689815000165,z,0.54760500008706,None,417.46941350004636,417.48491789994296,418.4854683999438,418.4692513999762,,,,,,,,,,,,,,,,,,,,,,,,,,,,,,,,,,,,,,,,,,,,,,,,,,,,,,,,,,,,,,,,,,,,,,,,,,,,,A_9,001,2024-11-29_10h27.28.431,untitled,2024.1.5,None,2024-11-29 10h27.46.664573 +0530,
triangle.png,you,1,M,,,,,,,,,33,3,135,1,,,,,,,,,418.4854683999438,,,,,,,,,,,,,,,,,,,,,,,,,,,,,,,,,,,,,,,,,,,,,,,,,,,,,,,,,,,,418.4696321999654,418.4854683999438,418.9690019999398,418.9690019999398,418.9690019999398,418.9690019999398,418.9858596000122,419.26911720004864,419.26911720004864,419.26911720004864,419.5867390000494,m,0.6081425999291241,None,419.5871760000009,419.60272770002484,420.6033268000465,420.58697149995714,,,,,,,,,,,,,,,,,,,,,,,,,,,,,,,,,,,,,,,,,,,,,,,,,,,,,,,,,,,,,,,,,,,,,,,,,,,,,A_9,001,2024-11-29_10h27.28.431,untitled,2024.1.5,None,2024-11-29 10h27.46.664573 +0530,
triangle.png,you,1,M,,,,,,,,,34,0,136,1,,,,,,,,,420.6033268000465,,,,,,,,,,,,,,,,,,,,,,,,,,,,,,,,,,,,,,,,,,,,,,,,,,,,,,,,,,,,420.5873452000087,420.6033268000465,421.08688970003277,421.08688970003277,421.08688970003277,421.08688970003277,421.10345389996655,421.3868833000306,421.3868833000306,421.3868833000306,421.6377091000322,m,0.5462353000184521,None,421.63813460001256,421.65383259998634,422.6543030999601,422.6380263000028,,,,,,,,,,,,,,,,,,,,,,,,,,,,,,,,,,,,,,,,,,,,,,,,,,,,,,,,,,,,,,,,,,,,,,,,,,,,,A_9,001,2024-11-29_10h27.28.431,untitled,2024.1.5,None,2024-11-29 10h27.46.664573 +0530,
square.png,you,0,Z,,,,,,,,,34,1,137,2,,,,,,,,,422.6543030999601,,,,,,,,,,,,,,,,,,,,,,,,,,,,,,,,,,,,,,,,,,,,,,,,,,,,,,,,,,,,422.6384047999745,422.6543030999601,423.13794189994223,423.13794189994223,423.13794189994223,423.13794189994223,423.15442070004065,423.43790969997644,423.43790969997644,423.43790969997644,423.8556229999522,z,0.7103939999360591,None,423.85605409997515,423.8717284000013,424.87204699998256,424.85579069994856,,,,,,,,,,,,,,,,,,,,,,,,,,,,,,,,,,,,,,,,,,,,,,,,,,,,,,,,,,,,,,,,,,,,,,,,,,,,,A_9,001,2024-11-29_10h27.28.431,untitled,2024.1.5,None,2024-11-29 10h27.46.664573 +0530,
square.png,stranger,1,M,,,,,,,,,34,2,138,0,,,,,,,,,424.87204699998256,,,,,,,,,,,,,,,,,,,,,,,,,,,,,,,,,,,,,,,,,,,,,,,,,,,,,,,,,,,,424.85614849999547,424.87204699998256,425.35560699994676,425.35560699994676,425.35560699994676,425.35560699994676,425.3723460000474,425.65573939995375,425.65573939995375,425.65573939995375,426.02330769994296,m,0.658029199927114,None,426.0237401999766,426.0394236999564,427.04006979998667,427.0235811000457,,,,,,,,,,,,,,,,,,,,,,,,,,,,,,,,,,,,,,,,,,,,,,,,,,,,,,,,,,,,,,,,,,,,,,,,,,,,,A_9,001,2024-11-29_10h27.28.431,untitled,2024.1.5,None,2024-11-29 10h27.46.664573 +0530,
triangle.png,stranger,0,Z,,,,,,,,,34,3,139,3,,,,,,,,,427.04006979998667,,,,,,,,,,,,,,,,,,,,,,,,,,,,,,,,,,,,,,,,,,,,,,,,,,,,,,,,,,,,427.02394089999143,427.04006979998667,427.52368520002346,427.52368520002346,427.52368520002346,427.52368520002346,427.5403086999431,427.8235508999787,427.8235508999787,427.8235508999787,428.09102940000594,z,0.5658007999882102,None,428.0914740000153,428.1069535999559,429.10750949999783,429.0914147000294,,,,,,,,,,,,,,,,,,,,,,,,,,,,,,,,,,,,,,,,,,,,,,,,,,,,,,,,,,,,,,,,,,,,,,,,,,,,,A_9,001,2024-11-29_10h27.28.431,untitled,2024.1.5,None,2024-11-29 10h27.46.664573 +0530,
triangle.png,you,1,M,,,,,,,,,35,0,140,1,,,,,,,,,429.10750949999783,,,,,,,,,,,,,,,,,,,,,,,,,,,,,,,,,,,,,,,,,,,,,,,,,,,,,,,,,,,,429.091847899952,429.10750949999783,429.59142489999067,429.59142489999067,429.59142489999067,429.59142489999067,429.60779399995226,429.89139659993816,429.89139659993816,429.89139659993816,430.1589968999615,m,0.5656407000496984,None,430.1594288999913,430.17490430001635,431.1752129000379,431.1590703999391,,,,,,,,,,,,,,,,,,,,,,,,,,,,,,,,,,,,,,,,,,,,,,,,,,,,,,,,,,,,,,,,,,,,,,,,,,,,,A_9,001,2024-11-29_10h27.28.431,untitled,2024.1.5,None,2024-11-29 10h27.46.664573 +0530,
triangle.png,stranger,0,Z,,,,,,,,,35,1,141,3,,,,,,,,,431.1752129000379,,,,,,,,,,,,,,,,,,,,,,,,,,,,,,,,,,,,,,,,,,,,,,,,,,,,,,,,,,,,431.1594371999381,431.1752129000379,431.659240399953,431.659240399953,431.659240399953,431.659240399953,431.6755527999485,431.95908509998117,431.95908509998117,431.95908509998117,432.45983049995266,m,0.78999809990637,None,432.4602698000381,432.4759514000034,433.4762713999953,433.46018970001023,,,,,,,,,,,,,,,,,,,,,,,,,,,,,,,,,,,,,,,,,,,,,,,,,,,,,,,,,,,,,,,,,,,,,,,,,,,,,A_9,001,2024-11-29_10h27.28.431,untitled,2024.1.5,None,2024-11-29 10h27.46.664573 +0530,
square.png,stranger,1,M,,,,,,,,,35,2,142,0,,,,,,,,,433.4762713999953,,,,,,,,,,,,,,,,,,,,,,,,,,,,,,,,,,,,,,,,,,,,,,,,,,,,,,,,,,,,433.4605619000504,433.4762713999953,433.9600745999487,433.9600745999487,433.9600745999487,433.9600745999487,433.9767216000473,434.26010600000154,434.26010600000154,434.26010600000154,434.49450140004046,z,0.5215632999315858,None,434.49493090005126,434.5103039999958,435.5109270999674,435.49472029996105,,,,,,,,,,,,,,,,,,,,,,,,,,,,,,,,,,,,,,,,,,,,,,,,,,,,,,,,,,,,,,,,,,,,,,,,,,,,,A_9,001,2024-11-29_10h27.28.431,untitled,2024.1.5,None,2024-11-29 10h27.46.664573 +0530,
