stimulus_b,label_b,is_match_b,shouldpress_b,stimulus_2b,label_2b,is_match_2b,shouldpress_2b,p_trials.thisRepN,p_trials.thisTrialN,p_trials.thisN,p_trials.thisIndex,trials.thisRepN,trials.thisTrialN,trials.thisN,trials.thisIndex,p_trials_2.thisRepN,p_trials_2.thisTrialN,p_trials_2.thisN,p_trials_2.thisIndex,trials_2.thisRepN,trials_2.thisTrialN,trials_2.thisN,trials_2.thisIndex,thisRow.t,notes,Intruduction.started,text_3.started,key_resp_2.started,Intruduction.stopped,key_resp_2.keys,key_resp_2.rt,key_resp_2.duration,self_other_instructions.started,text_4.started,key_resp_3.started,self_other_instructions.stopped,key_resp_3.keys,key_resp_3.rt,key_resp_3.duration,self_other_info.started,square_image.started,triangle_image.started,self_label.started,other_label.started,key_resp_4.started,text_5.started,self_other_info.stopped,key_resp_4.keys,key_resp_4.rt,key_resp_4.duration,self_other_starting_2.started,text_6.started,key_resp_5.started,self_other_starting_2.stopped,key_resp_5.keys,key_resp_5.rt,key_resp_5.duration,b1.started,p_fication.started,p_fication.stopped,p_fixation_3.started,p_text.started,key_resp_p.started,p_image.started,p_fixation_3.stopped,p_text.stopped,p_image.stopped,key_resp_p.stopped,b1.stopped,key_resp_p.keys,b_feedback.started,text_15.started,text_15.stopped,b_feedback.stopped,key_resp_p.rt,key_resp_p.duration,start2.started,start_2.started,key_resp_11.started,start2.stopped,key_resp_11.keys,key_resp_11.rt,key_resp_11.duration,break_3.started,text_13.started,text_14.started,key_resp_10.started,text_13.stopped,break_3.stopped,key_resp_10.keys,key_resp_10.rt,key_resp_10.duration,self_instructions_2.started,text_10.started,key_resp_7.started,self_instructions_2.stopped,key_resp_7.keys,key_resp_7.rt,key_resp_7.duration,self_intro_2.started,circle_image.started,diamond_image.started,Disgusting_self_lable.started,Desirable_self_lable.started,key_resp_8.started,text_11.started,self_intro_2.stopped,key_resp_8.keys,key_resp_8.rt,key_resp_8.duration,self_starting_3.started,text_12.started,key_resp_9.started,self_starting_3.stopped,key_resp_9.keys,key_resp_9.rt,key_resp_9.duration,practice2.started,p_fixation_2.started,p_fixation_2.stopped,p_fixation_4.started,p_text_8.started,key_resp_6_p.started,p_image_2.started,p_fixation_4.stopped,p_text_8.stopped,p_image_2.stopped,practice2.stopped,key_resp_6_p.keys,key_resp_6_p.rt,key_resp_6_p.duration,feedback_2_p.started,text_16.started,text_16.stopped,feedback_2_p.stopped,key_resp_6_p.stopped,trial_2.started,fixation_2.started,fixation_4.started,text_8.started,key_resp_6.started,image_2.started,fixation_2.stopped,fixation_4.stopped,text_8.stopped,image_2.stopped,trial_2.stopped,key_resp_6.keys,key_resp_6.rt,key_resp_6.duration,feedback_2.started,text_9.started,text_9.stopped,feedback_2.stopped,key_resp_6.stopped,Thank_you.started,text_7.started,Thank_you.stopped,participant,session,date,expName,psychopyVersion,frameRate,expStart,
,,,,,,,,,,,,,,,,,,,,,,,,,,0.002547800075262785,0.006250500096939504,0.006250500096939504,4.765009100083262,space,4.75547249999363,None,,,,,,,,,,,,,,,,,,,,,,,,,,,,,,,,,,,,,,,,,,,,,,,,,,,,,,,,,,,,,,,,,,,,,,,,,,,,,,,,,,,,,,,,,,,,,,,,,,,,,,,,,,,,,,,,,,,,,,,,,,,,,,,B_10,001,2024-11-29_12h59.27.841,untitled,2024.1.5,None,2024-11-29 12h59.38.727398 +0530,
,,,,,,,,,,,,,,,,,,,,,,,,,,,,,,,,,4.765034300042316,4.779127900023013,4.779127900023013,23.222807200043462,space,18.44285230000969,None,,,,,,,,,,,,,,,,,,,,,,,,,,,,,,,,,,,,,,,,,,,,,,,,,,,,,,,,,,,,,,,,,,,,,,,,,,,,,,,,,,,,,,,,,,,,,,,,,,,,,,,,,,,,,,,,,,,,,,,,B_10,001,2024-11-29_12h59.27.841,untitled,2024.1.5,None,2024-11-29 12h59.38.727398 +0530,
,,,,,,,,,,,,,,,,,,,,,,,,,,,,,,,,,,,,,,,,23.222835000022314,23.25631510000676,23.25631510000676,23.25631510000676,23.25631510000676,23.25631510000676,23.25631510000676,99.8776574000949,space,76.60508889995981,None,,,,,,,,,,,,,,,,,,,,,,,,,,,,,,,,,,,,,,,,,,,,,,,,,,,,,,,,,,,,,,,,,,,,,,,,,,,,,,,,,,,,,,,,,,,,,,,,,,,,,,,,,,,,,B_10,001,2024-11-29_12h59.27.841,untitled,2024.1.5,None,2024-11-29 12h59.38.727398 +0530,
,,,,,,,,,,,,,,,,,,,,,,,,,,,,,,,,,,,,,,,,,,,,,,,,,,,99.87768700008746,99.89359290001448,99.89359290001448,108.56571200001054,space,8.656376299913973,None,,,,,,,,,,,,,,,,,,,,,,,,,,,,,,,,,,,,,,,,,,,,,,,,,,,,,,,,,,,,,,,,,,,,,,,,,,,,,,,,,,,,,,,,,,,,,,,,,,,,,,B_10,001,2024-11-29_12h59.27.841,untitled,2024.1.5,None,2024-11-29 12h59.38.727398 +0530,
square.png,stranger,0,Z,,,,,0,0,0,2,,,,,,,,,,,,,108.5820253000129,,,,,,,,,,,,,,,,,,,,,,,,,,,,,,,,,,108.57197839999571,108.5820253000129,109.08133320009802,109.08133320009802,109.08133320009802,109.08133320009802,109.08133320009802,109.3815155000193,109.3815155000193,109.3815155000193,110.18177140003536,110.16566490009427,None,110.16587720008101,110.18177140003536,111.1825563000748,111.16612490010448,,,,,,,,,,,,,,,,,,,,,,,,,,,,,,,,,,,,,,,,,,,,,,,,,,,,,,,,,,,,,,,,,,,,,,,,,,,,,,,,,,,,,B_10,001,2024-11-29_12h59.27.841,untitled,2024.1.5,None,2024-11-29 12h59.38.727398 +0530,
square.png,you,1,M,,,,,0,1,1,0,,,,,,,,,,,,,111.1825563000748,,,,,,,,,,,,,,,,,,,,,,,,,,,,,,,,,,111.16636140004266,111.1825563000748,111.68270850006957,111.66619020001963,111.66619020001963,111.66619020001963,111.66619020001963,111.96617250004783,111.96617250004783,111.96617250004783,112.76662600005511,112.75032510003075,None,112.75047990004532,112.76662600005511,113.76729079999495,113.75086700008251,,,,,,,,,,,,,,,,,,,,,,,,,,,,,,,,,,,,,,,,,,,,,,,,,,,,,,,,,,,,,,,,,,,,,,,,,,,,,,,,,,,,,B_10,001,2024-11-29_12h59.27.841,untitled,2024.1.5,None,2024-11-29 12h59.38.727398 +0530,
triangle.png,stranger,1,M,,,,,0,2,2,1,,,,,,,,,,,,,113.76729079999495,,,,,,,,,,,,,,,,,,,,,,,,,,,,,,,,,,113.75110510003287,113.76729079999495,114.2673256000271,114.2673256000271,114.2673256000271,114.2673256000271,114.2673256000271,114.56750620005187,114.56750620005187,114.56750620005187,115.36802420008462,115.35149140004069,None,115.35162450000644,115.36802420008462,116.36851380008738,116.35227450006641,,,,,,,,,,,,,,,,,,,,,,,,,,,,,,,,,,,,,,,,,,,,,,,,,,,,,,,,,,,,,,,,,,,,,,,,,,,,,,,,,,,,,B_10,001,2024-11-29_12h59.27.841,untitled,2024.1.5,None,2024-11-29 12h59.38.727398 +0530,
triangle.png,you,0,Z,,,,,0,3,3,3,,,,,,,,,,,,,116.36851380008738,,,,,,,,,,,,,,,,,,,,,,,,,,,,,,,,,,116.352516700048,116.36851380008738,116.86902510002255,116.86902510002255,116.86902510002255,116.86902510002255,116.86902510002255,117.16868300002534,117.16868300002534,117.16868300002534,117.96900690009352,117.95274269999936,None,117.95287930010818,117.96900690009352,118.96968500001822,118.95374210004229,,,,,,,,,,,,,,,,,,,,,,,,,,,,,,,,,,,,,,,,,,,,,,,,,,,,,,,,,,,,,,,,,,,,,,,,,,,,,,,,,,,,,B_10,001,2024-11-29_12h59.27.841,untitled,2024.1.5,None,2024-11-29 12h59.38.727398 +0530,
triangle.png,stranger,1,M,,,,,1,0,4,1,,,,,,,,,,,,,118.96968500001822,,,,,,,,,,,,,,,,,,,,,,,,,,,,,,,,,,118.9539765000809,118.96968500001822,119.4701029000571,119.4701029000571,119.4701029000571,119.4701029000571,119.4701029000571,119.77021440002136,119.77021440002136,119.77021440002136,,120.1877321000211,z,120.18807090003975,120.20368020003662,121.20429480005987,121.1879665000597,0.7033995999954641,None,,,,,,,,,,,,,,,,,,,,,,,,,,,,,,,,,,,,,,,,,,,,,,,,,,,,,,,,,,,,,,,,,,,,,,,,,,,,,,,,,,,B_10,001,2024-11-29_12h59.27.841,untitled,2024.1.5,None,2024-11-29 12h59.38.727398 +0530,
square.png,you,1,M,,,,,1,1,5,0,,,,,,,,,,,,,121.20429480005987,,,,,,,,,,,,,,,,,,,,,,,,,,,,,,,,,,121.18820550001692,121.20429480005987,121.70439260010608,121.68807150004432,121.68807150004432,121.68807150004432,121.68807150004432,121.98786240001209,121.98786240001209,121.98786240001209,,122.2725555000361,m,122.2728228000924,122.28800699999556,123.28870690008625,123.27227650000714,0.5727662000572309,None,,,,,,,,,,,,,,,,,,,,,,,,,,,,,,,,,,,,,,,,,,,,,,,,,,,,,,,,,,,,,,,,,,,,,,,,,,,,,,,,,,,B_10,001,2024-11-29_12h59.27.841,untitled,2024.1.5,None,2024-11-29 12h59.38.727398 +0530,
triangle.png,you,0,Z,,,,,1,2,6,3,,,,,,,,,,,,,123.28870690008625,,,,,,,,,,,,,,,,,,,,,,,,,,,,,,,,,,123.27251480007544,123.28870690008625,123.78894930006936,123.77272090001497,123.77272090001497,123.77272090001497,123.77272090001497,124.07229590008501,124.07229590008501,124.07229590008501,,124.172995800036,z,124.17325120000169,124.18917610007338,125.18981410004199,125.17328340001404,0.38462340005207807,None,,,,,,,,,,,,,,,,,,,,,,,,,,,,,,,,,,,,,,,,,,,,,,,,,,,,,,,,,,,,,,,,,,,,,,,,,,,,,,,,,,,B_10,001,2024-11-29_12h59.27.841,untitled,2024.1.5,None,2024-11-29 12h59.38.727398 +0530,
square.png,stranger,0,Z,,,,,1,3,7,2,,,,,,,,,,,,,125.18981410004199,,,,,,,,,,,,,,,,,,,,,,,,,,,,,,,,,,125.1735280000139,125.18981410004199,125.69000600010622,125.67350180004723,125.67350180004723,125.67350180004723,125.67350180004723,125.97332710004412,125.97332710004412,125.97332710004412,,126.02419470006134,m,126.0244481000118,126.04011780000292,127.04054920002818,127.02458770002704,0.3406723999651149,None,,,,,,,,,,,,,,,,,,,,,,,,,,,,,,,,,,,,,,,,,,,,,,,,,,,,,,,,,,,,,,,,,,,,,,,,,,,,,,,,,,,B_10,001,2024-11-29_12h59.27.841,untitled,2024.1.5,None,2024-11-29 12h59.38.727398 +0530,
square.png,stranger,0,Z,,,,,2,0,8,2,,,,,,,,,,,,,127.04054920002818,,,,,,,,,,,,,,,,,,,,,,,,,,,,,,,,,,127.02482290007174,127.04054920002818,127.54109020007309,127.52427680010442,127.52427680010442,127.52427680010442,127.52427680010442,,,,,127.79189730004873,z,127.79215059999842,127.80756420001853,128.80814610002562,128.79177300003357,0.2662774999625981,None,,,,,,,,,,,,,,,,,,,,,,,,,,,,,,,,,,,,,,,,,,,,,,,,,,,,,,,,,,,,,,,,,,,,,,,,,,,,,,,,,,,B_10,001,2024-11-29_12h59.27.841,untitled,2024.1.5,None,2024-11-29 12h59.38.727398 +0530,
triangle.png,stranger,1,M,,,,,2,1,9,1,,,,,,,,,,,,,128.80814610002562,,,,,,,,,,,,,,,,,,,,,,,,,,,,,,,,,,128.79201160010416,128.80814610002562,129.30871060001664,129.2920438000001,129.2920438000001,129.2920438000001,129.2920438000001,129.59174010006245,129.59174010006245,129.59174010006245,,129.85930090001784,z,129.85955340007786,129.87537530006375,130.8759213000303,130.85963000007905,0.557787699974142,None,,,,,,,,,,,,,,,,,,,,,,,,,,,,,,,,,,,,,,,,,,,,,,,,,,,,,,,,,,,,,,,,,,,,,,,,,,,,,,,,,,,B_10,001,2024-11-29_12h59.27.841,untitled,2024.1.5,None,2024-11-29 12h59.38.727398 +0530,
triangle.png,you,0,Z,,,,,2,2,10,3,,,,,,,,,,,,,130.8759213000303,,,,,,,,,,,,,,,,,,,,,,,,,,,,,,,,,,130.85986940003932,130.8759213000303,131.37616260000505,131.3595447000116,131.3595447000116,131.3595447000116,131.3595447000116,,,,,131.61046390002593,m,131.6107163000852,131.62629380007274,132.6267588000046,132.61061670002528,0.23855090001598,None,,,,,,,,,,,,,,,,,,,,,,,,,,,,,,,,,,,,,,,,,,,,,,,,,,,,,,,,,,,,,,,,,,,,,,,,,,,,,,,,,,,B_10,001,2024-11-29_12h59.27.841,untitled,2024.1.5,None,2024-11-29 12h59.38.727398 +0530,
square.png,you,1,M,,,,,2,3,11,0,,,,,,,,,,,,,132.6267588000046,,,,,,,,,,,,,,,,,,,,,,,,,,,,,,,,,,132.6108490000479,132.6267588000046,133.12774240004364,133.1106314000208,133.1106314000208,133.1106314000208,133.1106314000208,133.41038300003856,133.41038300003856,133.41038300003856,,133.49461910000537,m,133.49487060005777,133.51073440001346,134.5112471000757,134.49497300002258,0.37173260003328323,None,,,,,,,,,,,,,,,,,,,,,,,,,,,,,,,,,,,,,,,,,,,,,,,,,,,,,,,,,,,,,,,,,,,,,,,,,,,,,,,,,,,B_10,001,2024-11-29_12h59.27.841,untitled,2024.1.5,None,2024-11-29 12h59.38.727398 +0530,
triangle.png,you,0,Z,,,,,3,0,12,3,,,,,,,,,,,,,134.5112471000757,,,,,,,,,,,,,,,,,,,,,,,,,,,,,,,,,,134.49520620005205,134.5112471000757,135.01140040007886,134.9949237999972,134.9949237999972,134.9949237999972,134.9949237999972,,,,,135.24563110002782,z,135.24588659999426,135.2614877000451,136.26181340008043,136.24577420006972,0.24626789998728782,None,,,,,,,,,,,,,,,,,,,,,,,,,,,,,,,,,,,,,,,,,,,,,,,,,,,,,,,,,,,,,,,,,,,,,,,,,,,,,,,,,,,B_10,001,2024-11-29_12h59.27.841,untitled,2024.1.5,None,2024-11-29 12h59.38.727398 +0530,
triangle.png,stranger,1,M,,,,,3,1,13,1,,,,,,,,,,,,,136.26181340008043,,,,,,,,,,,,,,,,,,,,,,,,,,,,,,,,,,136.24600899999496,136.26181340008043,136.76220160000958,136.7458074000897,136.7458074000897,136.7458074000897,136.7458074000897,137.04586090007797,137.04586090007797,137.04586090007797,,137.14653470006306,z,137.14678410009947,137.16260560008232,138.16286240005866,138.1467268000124,0.3885152000002563,None,,,,,,,,,,,,,,,,,,,,,,,,,,,,,,,,,,,,,,,,,,,,,,,,,,,,,,,,,,,,,,,,,,,,,,,,,,,,,,,,,,,B_10,001,2024-11-29_12h59.27.841,untitled,2024.1.5,None,2024-11-29 12h59.38.727398 +0530,
square.png,stranger,0,Z,,,,,3,2,14,2,,,,,,,,,,,,,138.16286240005866,,,,,,,,,,,,,,,,,,,,,,,,,,,,,,,,,,138.14696490007918,138.16286240005866,138.66349390009418,138.64702520007268,138.64702520007268,138.64702520007268,138.64702520007268,,,,,138.8976000000257,m,138.89784800005145,138.91339210001752,139.9137593000196,139.89775400003418,0.2388844999950379,None,,,,,,,,,,,,,,,,,,,,,,,,,,,,,,,,,,,,,,,,,,,,,,,,,,,,,,,,,,,,,,,,,,,,,,,,,,,,,,,,,,,B_10,001,2024-11-29_12h59.27.841,untitled,2024.1.5,None,2024-11-29 12h59.38.727398 +0530,
square.png,you,1,M,,,,,3,3,15,0,,,,,,,,,,,,,139.9137593000196,,,,,,,,,,,,,,,,,,,,,,,,,,,,,,,,,,139.89798590005375,139.9137593000196,140.41417650005314,140.39745260006748,140.39745260006748,140.39745260006748,140.39745260006748,140.69755290006287,140.69755290006287,140.69755290006287,,140.8151253000833,m,140.81537170009688,140.831232800032,141.83152590005193,141.81517210009042,0.41237909998744726,None,,,,,,,,,,,,,,,,,,,,,,,,,,,,,,,,,,,,,,,,,,,,,,,,,,,,,,,,,,,,,,,,,,,,,,,,,,,,,,,,,,,B_10,001,2024-11-29_12h59.27.841,untitled,2024.1.5,None,2024-11-29 12h59.38.727398 +0530,
square.png,stranger,0,Z,,,,,4,0,16,2,,,,,,,,,,,,,141.83152590005193,,,,,,,,,,,,,,,,,,,,,,,,,,,,,,,,,,141.81540700001642,141.83152590005193,142.33179940003902,142.31517489999533,142.31517489999533,142.31517489999533,142.31517489999533,142.61528630007524,142.61528630007524,142.61528630007524,,142.68276670004707,m,142.6830124000553,142.69866910006385,143.6992408001097,143.6830251000356,0.3660204999614507,None,,,,,,,,,,,,,,,,,,,,,,,,,,,,,,,,,,,,,,,,,,,,,,,,,,,,,,,,,,,,,,,,,,,,,,,,,,,,,,,,,,,B_10,001,2024-11-29_12h59.27.841,untitled,2024.1.5,None,2024-11-29 12h59.38.727398 +0530,
square.png,you,1,M,,,,,4,1,17,0,,,,,,,,,,,,,143.6992408001097,,,,,,,,,,,,,,,,,,,,,,,,,,,,,,,,,,143.6832590000704,143.6992408001097,144.19941650005057,144.18291240010876,144.18291240010876,144.18291240010876,144.18291240010876,,,,,144.4168900999939,m,144.4171460000798,144.43290050001815,145.43354130000807,145.4171364000067,0.22340739995706826,None,,,,,,,,,,,,,,,,,,,,,,,,,,,,,,,,,,,,,,,,,,,,,,,,,,,,,,,,,,,,,,,,,,,,,,,,,,,,,,,,,,,B_10,001,2024-11-29_12h59.27.841,untitled,2024.1.5,None,2024-11-29 12h59.38.727398 +0530,
triangle.png,you,0,Z,,,,,4,2,18,3,,,,,,,,,,,,,145.43354130000807,,,,,,,,,,,,,,,,,,,,,,,,,,,,,,,,,,145.4173758000834,145.43354130000807,145.93371230002958,145.91710580000654,145.91710580000654,145.91710580000654,145.91710580000654,146.2170194000937,146.2170194000937,146.2170194000937,,146.20163850008976,z,146.20188840001356,146.2170194000937,147.21767350006849,147.201686500106,0.26792799995746464,None,,,,,,,,,,,,,,,,,,,,,,,,,,,,,,,,,,,,,,,,,,,,,,,,,,,,,,,,,,,,,,,,,,,,,,,,,,,,,,,,,,,B_10,001,2024-11-29_12h59.27.841,untitled,2024.1.5,None,2024-11-29 12h59.38.727398 +0530,
triangle.png,stranger,1,M,,,,,4,3,19,1,,,,,,,,,,,,,147.21767350006849,,,,,,,,,,,,,,,,,,,,,,,,,,,,,,,,,,147.20192640007008,147.21767350006849,147.71818090009037,147.70170080009848,147.70170080009848,147.70170080009848,147.70170080009848,148.00119580002502,148.00119580002502,148.00119580002502,,148.08558480010834,m,148.08583200001158,148.10162570001557,149.10194090008736,149.08574460004456,0.3722842999268323,None,,,,,,,,,,,,,,,,,,,,,,,,,,,,,,,,,,,,,,,,,,,,,,,,,,,,,,,,,,,,,,,,,,,,,,,,,,,,,,,,,,,B_10,001,2024-11-29_12h59.27.841,untitled,2024.1.5,None,2024-11-29 12h59.38.727398 +0530,
,,,,,,,,,,,,,,,,,,,,,,,,,,,,,,,,,,,,,,,,,,,,,,,,,,,,,,,,,,,,,,,,,,,,,,,,,,,,,149.08579380006995,149.10194090008736,149.10194090008736,151.00369080004748,space,1.9003118999535218,None,,,,,,,,,,,,,,,,,,,,,,,,,,,,,,,,,,,,,,,,,,,,,,,,,,,,,,,,,,,,,,,,,,,,,,,,,,,,B_10,001,2024-11-29_12h59.27.841,untitled,2024.1.5,None,2024-11-29 12h59.38.727398 +0530,
square.png,stranger,0,Z,,,,,,,,,0,0,0,2,,,,,,,,,151.01971580006648,,,,,,,,,,,,,,,,,,,,,,,,,,,,,,,,,,151.00909570010845,151.01971580006648,151.51998980005737,151.50339230010286,151.50339230010286,151.50339230010286,151.50339230010286,151.80327400006354,151.80327400006354,151.80327400006354,,151.8879252000479,m,151.88891420001164,151.90315430006012,152.90389570000116,152.88746090000495,0.3790022999746725,None,,,,,,,,,,,,,,,,,,,,,,,,,,,,,,,,,,,,,,,,,,,,,,,,,,,,,,,,,,,,,,,,,,,,,,,,,,,,,,,,,,,B_10,001,2024-11-29_12h59.27.841,untitled,2024.1.5,None,2024-11-29 12h59.38.727398 +0530,
triangle.png,stranger,1,M,,,,,,,,,0,1,1,1,,,,,,,,,152.90389570000116,,,,,,,,,,,,,,,,,,,,,,,,,,,,,,,,,,152.88784040010069,152.90389570000116,153.4040948000038,153.4040948000038,153.4040948000038,153.4040948000038,153.4040948000038,153.7041726000607,153.7041726000607,153.7041726000607,,153.68843340000603,m,153.68887559999712,153.7041726000607,154.70486970001366,154.68873610009905,0.28108349989634007,None,,,,,,,,,,,,,,,,,,,,,,,,,,,,,,,,,,,,,,,,,,,,,,,,,,,,,,,,,,,,,,,,,,,,,,,,,,,,,,,,,,,B_10,001,2024-11-29_12h59.27.841,untitled,2024.1.5,None,2024-11-29 12h59.38.727398 +0530,
square.png,you,1,M,,,,,,,,,0,2,2,0,,,,,,,,,154.70486970001366,,,,,,,,,,,,,,,,,,,,,,,,,,,,,,,,,,154.6890922000166,154.70486970001366,155.20511340000667,155.18840560002718,155.18840560002718,155.18840560002718,155.18840560002718,155.48867520003114,155.48867520003114,155.48867520003114,,155.50591110007372,z,155.5063414000906,155.52205280005,156.52264229999855,156.5063709000824,0.30196329997852445,None,,,,,,,,,,,,,,,,,,,,,,,,,,,,,,,,,,,,,,,,,,,,,,,,,,,,,,,,,,,,,,,,,,,,,,,,,,,,,,,,,,,B_10,001,2024-11-29_12h59.27.841,untitled,2024.1.5,None,2024-11-29 12h59.38.727398 +0530,
triangle.png,you,0,Z,,,,,,,,,0,3,3,3,,,,,,,,,156.52264229999855,,,,,,,,,,,,,,,,,,,,,,,,,,,,,,,,,,156.50672629999463,156.52264229999855,157.02270370000042,157.00622670003213,157.00622670003213,157.00622670003213,157.00622670003213,157.30618330009747,157.30618330009747,157.30618330009747,,157.47365450009238,m,157.4740914000431,157.48951630003285,158.49018350010738,158.47393030009698,0.45551380002871156,None,,,,,,,,,,,,,,,,,,,,,,,,,,,,,,,,,,,,,,,,,,,,,,,,,,,,,,,,,,,,,,,,,,,,,,,,,,,,,,,,,,,B_10,001,2024-11-29_12h59.27.841,untitled,2024.1.5,None,2024-11-29 12h59.38.727398 +0530,
square.png,stranger,0,Z,,,,,,,,,1,0,4,2,,,,,,,,,158.49018350010738,,,,,,,,,,,,,,,,,,,,,,,,,,,,,,,,,,158.47428670001682,158.49018350010738,158.9904626000207,158.97398910007905,158.97398910007905,158.97398910007905,158.97398910007905,159.27404000004753,159.27404000004753,159.27404000004753,,159.27523770008702,m,159.27574910002295,159.29058680008166,160.29095400008373,160.27493380010128,0.2988023000070825,None,,,,,,,,,,,,,,,,,,,,,,,,,,,,,,,,,,,,,,,,,,,,,,,,,,,,,,,,,,,,,,,,,,,,,,,,,,,,,,,,,,,B_10,001,2024-11-29_12h59.27.841,untitled,2024.1.5,None,2024-11-29 12h59.38.727398 +0530,
square.png,you,1,M,,,,,,,,,1,1,5,0,,,,,,,,,160.29095400008373,,,,,,,,,,,,,,,,,,,,,,,,,,,,,,,,,,160.27540190005675,160.29095400008373,160.79165890009608,160.79165890009608,160.79165890009608,160.79165890009608,160.79165890009608,161.09144730004482,161.09144730004482,161.09144730004482,161.89169810002204,161.87549630005378,None,161.87569250003435,161.89169810002204,,162.8759873000672,,,,,,,,,,,,,,,,,,,,,,,,,,,,,,,,,,,,,,,,,,,,,,,,,,,,,,,,,,,,,,,,,,,,,,,,,,,,,,,,,,,,,B_10,001,2024-11-29_12h59.27.841,untitled,2024.1.5,None,2024-11-29 12h59.38.727398 +0530,
triangle.png,you,0,Z,,,,,,,,,1,2,6,3,,,,,,,,,162.8925016000867,,,,,,,,,,,,,,,,,,,,,,,,,,,,,,,,,,162.8763537000632,162.8925016000867,163.39273280010093,163.37617860001046,163.37617860001046,163.37617860001046,163.37617860001046,163.6760211000219,163.6760211000219,163.6760211000219,,163.7768654000247,z,163.77729500003625,163.7927232000511,164.79336270003114,164.77736980002373,0.39252699993085116,None,,,,,,,,,,,,,,,,,,,,,,,,,,,,,,,,,,,,,,,,,,,,,,,,,,,,,,,,,,,,,,,,,,,,,,,,,,,,,,,,,,,B_10,001,2024-11-29_12h59.27.841,untitled,2024.1.5,None,2024-11-29 12h59.38.727398 +0530,
triangle.png,stranger,1,M,,,,,,,,,1,3,7,1,,,,,,,,,164.79336270003114,,,,,,,,,,,,,,,,,,,,,,,,,,,,,,,,,,164.77773000008892,164.79336270003114,165.2936091000447,165.27718860004097,165.27718860004097,165.27718860004097,165.27718860004097,165.57702610001434,165.57702610001434,165.57702610001434,166.37731810007244,166.36121270002332,None,166.36140759999398,166.37731810007244,167.37786430004053,167.3618350001052,,,,,,,,,,,,,,,,,,,,,,,,,,,,,,,,,,,,,,,,,,,,,,,,,,,,,,,,,,,,,,,,,,,,,,,,,,,,,,,,,,,,,B_10,001,2024-11-29_12h59.27.841,untitled,2024.1.5,None,2024-11-29 12h59.38.727398 +0530,
square.png,you,1,M,,,,,,,,,2,0,8,0,,,,,,,,,167.37786430004053,,,,,,,,,,,,,,,,,,,,,,,,,,,,,,,,,,167.36220210010651,167.37786430004053,167.87860340008046,167.87860340008046,167.87860340008046,167.87860340008046,167.87860340008046,168.17856990010478,168.17856990010478,168.17856990010478,,168.29578380007297,m,168.2962238000473,168.3118007000303,169.31237860000692,169.29605570004787,0.4077943000011146,None,,,,,,,,,,,,,,,,,,,,,,,,,,,,,,,,,,,,,,,,,,,,,,,,,,,,,,,,,,,,,,,,,,,,,,,,,,,,,,,,,,,B_10,001,2024-11-29_12h59.27.841,untitled,2024.1.5,None,2024-11-29 12h59.38.727398 +0530,
triangle.png,you,0,Z,,,,,,,,,2,1,9,3,,,,,,,,,169.31237860000692,,,,,,,,,,,,,,,,,,,,,,,,,,,,,,,,,,169.2964194000233,169.31237860000692,169.81251200009137,169.79609630000778,169.79609630000778,169.79609630000778,169.79609630000778,170.09602540009655,170.09602540009655,170.09602540009655,,170.3467344000237,m,170.34717260010075,170.36290390009526,171.36342130007688,171.346987200086,0.5375343000050634,None,,,,,,,,,,,,,,,,,,,,,,,,,,,,,,,,,,,,,,,,,,,,,,,,,,,,,,,,,,,,,,,,,,,,,,,,,,,,,,,,,,,B_10,001,2024-11-29_12h59.27.841,untitled,2024.1.5,None,2024-11-29 12h59.38.727398 +0530,
square.png,stranger,0,Z,,,,,,,,,2,2,10,2,,,,,,,,,171.36342130007688,,,,,,,,,,,,,,,,,,,,,,,,,,,,,,,,,,171.3473468000302,171.36342130007688,171.8638489000732,171.84714640001766,171.84714640001766,171.84714640001766,171.84714640001766,172.14695260010194,172.14695260010194,172.14695260010194,,172.28120720002335,m,172.28164699999616,172.29704590002075,173.29767340002581,173.28126590000466,0.42321300006005913,None,,,,,,,,,,,,,,,,,,,,,,,,,,,,,,,,,,,,,,,,,,,,,,,,,,,,,,,,,,,,,,,,,,,,,,,,,,,,,,,,,,,B_10,001,2024-11-29_12h59.27.841,untitled,2024.1.5,None,2024-11-29 12h59.38.727398 +0530,
triangle.png,stranger,1,M,,,,,,,,,2,3,11,1,,,,,,,,,173.29767340002581,,,,,,,,,,,,,,,,,,,,,,,,,,,,,,,,,,173.2816254000645,173.29767340002581,173.79807660006918,173.78123980003875,173.78123980003875,173.78123980003875,173.78123980003875,174.08149010001216,174.08149010001216,174.08149010001216,,174.13247160008177,z,174.13292100001127,174.14831499999855,175.148573600105,175.13253110006917,0.3491815000306815,None,,,,,,,,,,,,,,,,,,,,,,,,,,,,,,,,,,,,,,,,,,,,,,,,,,,,,,,,,,,,,,,,,,,,,,,,,,,,,,,,,,,B_10,001,2024-11-29_12h59.27.841,untitled,2024.1.5,None,2024-11-29 12h59.38.727398 +0530,
triangle.png,you,0,Z,,,,,,,,,3,0,12,3,,,,,,,,,175.148573600105,,,,,,,,,,,,,,,,,,,,,,,,,,,,,,,,,,175.13288530008867,175.148573600105,175.64915690000635,175.63251650007442,175.63251650007442,175.63251650007442,175.63251650007442,175.9324453000445,175.9324453000445,175.9324453000445,,176.11662300000899,m,176.11706040007994,176.13242090004496,177.13331870001275,177.11701970000286,0.4816217999905348,None,,,,,,,,,,,,,,,,,,,,,,,,,,,,,,,,,,,,,,,,,,,,,,,,,,,,,,,,,,,,,,,,,,,,,,,,,,,,,,,,,,,B_10,001,2024-11-29_12h59.27.841,untitled,2024.1.5,None,2024-11-29 12h59.38.727398 +0530,
square.png,you,1,M,,,,,,,,,3,1,13,0,,,,,,,,,177.13331870001275,,,,,,,,,,,,,,,,,,,,,,,,,,,,,,,,,,177.11737530003302,177.13331870001275,177.63344930007588,177.61663480009884,177.61663480009884,177.61663480009884,177.61663480009884,177.9167502000928,177.9167502000928,177.9167502000928,,178.0507567001041,m,178.05119000002742,178.06691420008428,179.067676100065,179.0511241001077,0.42489859997294843,None,,,,,,,,,,,,,,,,,,,,,,,,,,,,,,,,,,,,,,,,,,,,,,,,,,,,,,,,,,,,,,,,,,,,,,,,,,,,,,,,,,,B_10,001,2024-11-29_12h59.27.841,untitled,2024.1.5,None,2024-11-29 12h59.38.727398 +0530,
square.png,stranger,0,Z,,,,,,,,,3,2,14,2,,,,,,,,,179.067676100065,,,,,,,,,,,,,,,,,,,,,,,,,,,,,,,,,,179.05157230002806,179.067676100065,179.56764990009833,179.55098170007113,179.55098170007113,179.55098170007113,179.55098170007113,179.8511245000409,179.8511245000409,179.8511245000409,,179.98516340006609,m,179.98559350008145,180.00127540004905,181.00164120004047,180.98552230000496,0.4311829999787733,None,,,,,,,,,,,,,,,,,,,,,,,,,,,,,,,,,,,,,,,,,,,,,,,,,,,,,,,,,,,,,,,,,,,,,,,,,,,,,,,,,,,B_10,001,2024-11-29_12h59.27.841,untitled,2024.1.5,None,2024-11-29 12h59.38.727398 +0530,
triangle.png,stranger,1,M,,,,,,,,,3,3,15,1,,,,,,,,,181.00164120004047,,,,,,,,,,,,,,,,,,,,,,,,,,,,,,,,,,180.9858769000275,181.00164120004047,181.50203259999398,181.48549380002078,181.48549380002078,181.48549380002078,181.48549380002078,181.78549760009628,181.78549760009628,181.78549760009628,,181.91950860002544,m,181.9199390000431,181.93553570006043,182.93627480010036,182.9197703000391,0.42322990007232875,None,,,,,,,,,,,,,,,,,,,,,,,,,,,,,,,,,,,,,,,,,,,,,,,,,,,,,,,,,,,,,,,,,,,,,,,,,,,,,,,,,,,B_10,001,2024-11-29_12h59.27.841,untitled,2024.1.5,None,2024-11-29 12h59.38.727398 +0530,
square.png,stranger,0,Z,,,,,,,,,4,0,16,2,,,,,,,,,182.93627480010036,,,,,,,,,,,,,,,,,,,,,,,,,,,,,,,,,,182.92012230004184,182.93627480010036,183.43637500004843,183.4197315000929,183.4197315000929,183.4197315000929,183.4197315000929,183.71990070003085,183.71990070003085,183.71990070003085,,183.82077270001173,m,183.8212054000469,183.83641990006436,184.83715190005023,184.8207045000745,0.393832299974747,None,,,,,,,,,,,,,,,,,,,,,,,,,,,,,,,,,,,,,,,,,,,,,,,,,,,,,,,,,,,,,,,,,,,,,,,,,,,,,,,,,,,B_10,001,2024-11-29_12h59.27.841,untitled,2024.1.5,None,2024-11-29 12h59.38.727398 +0530,
triangle.png,stranger,1,M,,,,,,,,,4,1,17,1,,,,,,,,,184.83715190005023,,,,,,,,,,,,,,,,,,,,,,,,,,,,,,,,,,184.82106070010923,184.83715190005023,185.33720790001098,185.32057880004868,185.32057880004868,185.32057880004868,185.32057880004868,185.62066670006607,185.62066670006607,185.62066670006607,,185.70463950000703,z,185.70507420005742,185.72083370003384,186.7212159000337,186.70501540007535,0.3809174000052735,None,,,,,,,,,,,,,,,,,,,,,,,,,,,,,,,,,,,,,,,,,,,,,,,,,,,,,,,,,,,,,,,,,,,,,,,,,,,,,,,,,,,B_10,001,2024-11-29_12h59.27.841,untitled,2024.1.5,None,2024-11-29 12h59.38.727398 +0530,
triangle.png,you,0,Z,,,,,,,,,4,2,18,3,,,,,,,,,186.7212159000337,,,,,,,,,,,,,,,,,,,,,,,,,,,,,,,,,,186.70537760003936,186.7212159000337,187.2216144000413,187.2050000000745,187.2050000000745,187.2050000000745,187.2050000000745,187.50501380010974,187.50501380010974,187.50501380010974,,187.6225965000922,m,187.6230267001083,187.63843740010634,188.63911129999906,188.6229087000247,0.40524450002703816,None,,,,,,,,,,,,,,,,,,,,,,,,,,,,,,,,,,,,,,,,,,,,,,,,,,,,,,,,,,,,,,,,,,,,,,,,,,,,,,,,,,,B_10,001,2024-11-29_12h59.27.841,untitled,2024.1.5,None,2024-11-29 12h59.38.727398 +0530,
square.png,you,1,M,,,,,,,,,4,3,19,0,,,,,,,,,188.63911129999906,,,,,,,,,,,,,,,,,,,,,,,,,,,,,,,,,,188.6232611000305,188.63911129999906,189.13915300008375,189.1228645000374,189.1228645000374,189.1228645000374,189.1228645000374,189.42259600001853,189.42259600001853,189.42259600001853,,189.5234792000847,m,189.52391670004,189.53936300007626,190.53984219999984,190.52392380009405,0.39853520004544407,None,,,,,,,,,,,,,,,,,,,,,,,,,,,,,,,,,,,,,,,,,,,,,,,,,,,,,,,,,,,,,,,,,,,,,,,,,,,,,,,,,,,B_10,001,2024-11-29_12h59.27.841,untitled,2024.1.5,None,2024-11-29 12h59.38.727398 +0530,
square.png,stranger,0,Z,,,,,,,,,5,0,20,2,,,,,,,,,190.53984219999984,,,,,,,,,,,,,,,,,,,,,,,,,,,,,,,,,,190.52427880000323,190.53984219999984,191.0404141000472,191.02377510000952,191.02377510000952,191.02377510000952,191.02377510000952,191.32348230003845,191.32348230003845,191.32348230003845,,191.42440700007137,m,191.42484800005332,191.4403230000753,192.44093630008865,192.42466960009187,0.3943809000775218,None,,,,,,,,,,,,,,,,,,,,,,,,,,,,,,,,,,,,,,,,,,,,,,,,,,,,,,,,,,,,,,,,,,,,,,,,,,,,,,,,,,,B_10,001,2024-11-29_12h59.27.841,untitled,2024.1.5,None,2024-11-29 12h59.38.727398 +0530,
square.png,you,1,M,,,,,,,,,5,1,21,0,,,,,,,,,192.44093630008865,,,,,,,,,,,,,,,,,,,,,,,,,,,,,,,,,,192.4250431000255,192.44093630008865,192.9411457000533,192.92450540000573,192.92450540000573,192.92450540000573,192.92450540000573,193.22462760005146,193.22462760005146,193.22462760005146,,193.37554500007536,m,193.37601790006738,193.39129729999695,194.3920071000466,194.37572360003833,0.4492621999233961,None,,,,,,,,,,,,,,,,,,,,,,,,,,,,,,,,,,,,,,,,,,,,,,,,,,,,,,,,,,,,,,,,,,,,,,,,,,,,,,,,,,,B_10,001,2024-11-29_12h59.27.841,untitled,2024.1.5,None,2024-11-29 12h59.38.727398 +0530,
triangle.png,stranger,1,M,,,,,,,,,5,2,22,1,,,,,,,,,194.3920071000466,,,,,,,,,,,,,,,,,,,,,,,,,,,,,,,,,,194.3760908000404,194.3920071000466,194.89215359999798,194.87580790009815,194.87580790009815,194.87580790009815,194.87580790009815,195.17560760001652,195.17560760001652,195.17560760001652,,195.17639660008717,z,195.1768395000836,195.1923876000801,196.19283710001037,196.17667330009863,0.2941698000067845,None,,,,,,,,,,,,,,,,,,,,,,,,,,,,,,,,,,,,,,,,,,,,,,,,,,,,,,,,,,,,,,,,,,,,,,,,,,,,,,,,,,,B_10,001,2024-11-29_12h59.27.841,untitled,2024.1.5,None,2024-11-29 12h59.38.727398 +0530,
triangle.png,you,0,Z,,,,,,,,,5,3,23,3,,,,,,,,,196.19283710001037,,,,,,,,,,,,,,,,,,,,,,,,,,,,,,,,,,196.1770314000314,196.19283710001037,196.69311390002258,196.67665790009778,196.67665790009778,196.67665790009778,196.67665790009778,196.9765053000301,196.9765053000301,196.9765053000301,,197.02731000003405,m,197.02774910000153,197.04327060002834,198.04382380004972,198.02770550001878,0.3487078999169171,None,,,,,,,,,,,,,,,,,,,,,,,,,,,,,,,,,,,,,,,,,,,,,,,,,,,,,,,,,,,,,,,,,,,,,,,,,,,,,,,,,,,B_10,001,2024-11-29_12h59.27.841,untitled,2024.1.5,None,2024-11-29 12h59.38.727398 +0530,
square.png,stranger,0,Z,,,,,,,,,6,0,24,2,,,,,,,,,198.04382380004972,,,,,,,,,,,,,,,,,,,,,,,,,,,,,,,,,,198.028071800014,198.04382380004972,198.544021800044,198.52744820003863,198.52744820003863,198.52744820003863,198.52744820003863,198.8275936000282,198.8275936000282,198.8275936000282,,198.89478800003417,m,198.8952319000382,198.9109392000828,199.91135710000526,199.89510940003674,0.3547982000745833,None,,,,,,,,,,,,,,,,,,,,,,,,,,,,,,,,,,,,,,,,,,,,,,,,,,,,,,,,,,,,,,,,,,,,,,,,,,,,,,,,,,,B_10,001,2024-11-29_12h59.27.841,untitled,2024.1.5,None,2024-11-29 12h59.38.727398 +0530,
triangle.png,stranger,1,M,,,,,,,,,6,1,25,1,,,,,,,,,199.91135710000526,,,,,,,,,,,,,,,,,,,,,,,,,,,,,,,,,,199.89546080003493,199.91135710000526,200.41178040008526,200.39516940002795,200.39516940002795,200.39516940002795,200.39516940002795,200.6949927000096,200.6949927000096,200.6949927000096,201.49552400002722,201.47905520000495,None,201.47925160010345,201.49552400002722,202.49618800007738,202.47991059999913,,,,,,,,,,,,,,,,,,,,,,,,,,,,,,,,,,,,,,,,,,,,,,,,,,,,,,,,,,,,,,,,,,,,,,,,,,,,,,,,,,,,,B_10,001,2024-11-29_12h59.27.841,untitled,2024.1.5,None,2024-11-29 12h59.38.727398 +0530,
square.png,you,1,M,,,,,,,,,6,2,26,0,,,,,,,,,202.49618800007738,,,,,,,,,,,,,,,,,,,,,,,,,,,,,,,,,,202.48027210007422,202.49618800007738,202.99638940009754,202.99638940009754,202.99638940009754,202.99638940009754,202.99638940009754,203.29634520004038,203.29634520004038,203.29634520004038,,203.48052169999573,m,203.4809485001024,203.49655020004138,204.49711480003316,204.48067690001335,0.4805177999660373,None,,,,,,,,,,,,,,,,,,,,,,,,,,,,,,,,,,,,,,,,,,,,,,,,,,,,,,,,,,,,,,,,,,,,,,,,,,,,,,,,,,,B_10,001,2024-11-29_12h59.27.841,untitled,2024.1.5,None,2024-11-29 12h59.38.727398 +0530,
triangle.png,you,0,Z,,,,,,,,,6,3,27,3,,,,,,,,,204.49711480003316,,,,,,,,,,,,,,,,,,,,,,,,,,,,,,,,,,204.4810372000793,204.49711480003316,204.9974166000029,204.98092890006956,204.98092890006956,204.98092890006956,204.98092890006956,205.28080420009792,205.28080420009792,205.28080420009792,,205.46498150005937,m,205.46542160003446,205.48088000004645,206.48153970006388,206.46499240002595,0.47754989995155483,None,,,,,,,,,,,,,,,,,,,,,,,,,,,,,,,,,,,,,,,,,,,,,,,,,,,,,,,,,,,,,,,,,,,,,,,,,,,,,,,,,,,B_10,001,2024-11-29_12h59.27.841,untitled,2024.1.5,None,2024-11-29 12h59.38.727398 +0530,
triangle.png,you,0,Z,,,,,,,,,7,0,28,3,,,,,,,,,206.48153970006388,,,,,,,,,,,,,,,,,,,,,,,,,,,,,,,,,,206.46535160008352,206.48153970006388,206.98170890007168,206.9654021000024,206.9654021000024,206.9654021000024,206.9654021000024,207.26514410006348,207.26514410006348,207.26514410006348,,207.39915220008697,m,207.3995899000438,207.41528970003128,208.41563500009943,208.39956510008778,0.4242105999728665,None,,,,,,,,,,,,,,,,,,,,,,,,,,,,,,,,,,,,,,,,,,,,,,,,,,,,,,,,,,,,,,,,,,,,,,,,,,,,,,,,,,,B_10,001,2024-11-29_12h59.27.841,untitled,2024.1.5,None,2024-11-29 12h59.38.727398 +0530,
square.png,stranger,0,Z,,,,,,,,,7,1,29,2,,,,,,,,,208.41563500009943,,,,,,,,,,,,,,,,,,,,,,,,,,,,,,,,,,208.39992640004493,208.41563500009943,208.91605670005083,208.89962490007747,208.89962490007747,208.89962490007747,208.89962490007747,209.19943989999592,209.19943989999592,209.19943989999592,,209.25018230010755,m,209.25062320008874,209.2662210999988,210.26659050001763,210.25042930000927,0.34601259999908507,None,,,,,,,,,,,,,,,,,,,,,,,,,,,,,,,,,,,,,,,,,,,,,,,,,,,,,,,,,,,,,,,,,,,,,,,,,,,,,,,,,,,B_10,001,2024-11-29_12h59.27.841,untitled,2024.1.5,None,2024-11-29 12h59.38.727398 +0530,
square.png,you,1,M,,,,,,,,,7,2,30,0,,,,,,,,,210.26659050001763,,,,,,,,,,,,,,,,,,,,,,,,,,,,,,,,,,210.2507816000143,210.26659050001763,210.76707729999907,210.75034170004074,210.75034170004074,210.75034170004074,210.75034170004074,211.05036840005778,211.05036840005778,211.05036840005778,,211.084488100023,m,211.08493100001942,211.1004834000487,212.10089310002513,212.0846092000138,0.32811110001057386,None,,,,,,,,,,,,,,,,,,,,,,,,,,,,,,,,,,,,,,,,,,,,,,,,,,,,,,,,,,,,,,,,,,,,,,,,,,,,,,,,,,,B_10,001,2024-11-29_12h59.27.841,untitled,2024.1.5,None,2024-11-29 12h59.38.727398 +0530,
triangle.png,stranger,1,M,,,,,,,,,7,3,31,1,,,,,,,,,212.10089310002513,,,,,,,,,,,,,,,,,,,,,,,,,,,,,,,,,,212.08496330003254,212.10089310002513,212.60126180003863,212.58471050008666,212.58471050008666,212.58471050008666,212.58471050008666,212.88470030005556,212.88470030005556,212.88470030005556,,213.03541530005168,m,213.0358530000085,213.051588500035,214.05211780010723,214.03586290008388,0.4455318000400439,None,,,,,,,,,,,,,,,,,,,,,,,,,,,,,,,,,,,,,,,,,,,,,,,,,,,,,,,,,,,,,,,,,,,,,,,,,,,,,,,,,,,B_10,001,2024-11-29_12h59.27.841,untitled,2024.1.5,None,2024-11-29 12h59.38.727398 +0530,
triangle.png,stranger,1,M,,,,,,,,,8,0,32,1,,,,,,,,,214.05211780010723,,,,,,,,,,,,,,,,,,,,,,,,,,,,,,,,,,214.03622240002733,214.05211780010723,214.55224530003034,214.5357503000414,214.5357503000414,214.5357503000414,214.5357503000414,214.83555260009598,214.83555260009598,214.83555260009598,,214.95314630004577,z,214.95358610001858,214.9689844000386,215.9694142000517,215.9534852000652,0.40122980007436126,None,,,,,,,,,,,,,,,,,,,,,,,,,,,,,,,,,,,,,,,,,,,,,,,,,,,,,,,,,,,,,,,,,,,,,,,,,,,,,,,,,,,B_10,001,2024-11-29_12h59.27.841,untitled,2024.1.5,None,2024-11-29 12h59.38.727398 +0530,
square.png,you,1,M,,,,,,,,,8,1,33,0,,,,,,,,,215.9694142000517,,,,,,,,,,,,,,,,,,,,,,,,,,,,,,,,,,215.9538541000802,215.9694142000517,216.46999930008315,216.45338380010799,216.45338380010799,216.45338380010799,216.45338380010799,216.75337620009668,216.75337620009668,216.75337620009668,,216.83737570000812,m,216.83781290007755,216.85353860002942,217.85409810009878,217.83772890002,0.38048269995488226,None,,,,,,,,,,,,,,,,,,,,,,,,,,,,,,,,,,,,,,,,,,,,,,,,,,,,,,,,,,,,,,,,,,,,,,,,,,,,,,,,,,,B_10,001,2024-11-29_12h59.27.841,untitled,2024.1.5,None,2024-11-29 12h59.38.727398 +0530,
square.png,stranger,0,Z,,,,,,,,,8,2,34,2,,,,,,,,,217.85409810009878,,,,,,,,,,,,,,,,,,,,,,,,,,,,,,,,,,217.83808580006007,217.85409810009878,218.35435480007436,218.33762450003996,218.33762450003996,218.33762450003996,218.33762450003996,218.6375480000861,218.6375480000861,218.6375480000861,,218.93879110005219,z,218.93922500009649,218.95465930004138,219.95508290000726,219.93872360000387,0.5849969000555575,None,,,,,,,,,,,,,,,,,,,,,,,,,,,,,,,,,,,,,,,,,,,,,,,,,,,,,,,,,,,,,,,,,,,,,,,,,,,,,,,,,,,B_10,001,2024-11-29_12h59.27.841,untitled,2024.1.5,None,2024-11-29 12h59.38.727398 +0530,
triangle.png,you,0,Z,,,,,,,,,8,3,35,3,,,,,,,,,219.95508290000726,,,,,,,,,,,,,,,,,,,,,,,,,,,,,,,,,,219.93908560008276,219.95508290000726,220.45530060003512,220.43878090009093,220.43878090009093,220.43878090009093,220.43878090009093,220.738830300048,220.738830300048,220.738830300048,,221.00638730009086,z,221.00681700010318,221.02228480007034,222.02277810010128,222.00643240008503,0.5555570999858901,None,,,,,,,,,,,,,,,,,,,,,,,,,,,,,,,,,,,,,,,,,,,,,,,,,,,,,,,,,,,,,,,,,,,,,,,,,,,,,,,,,,,B_10,001,2024-11-29_12h59.27.841,untitled,2024.1.5,None,2024-11-29 12h59.38.727398 +0530,
triangle.png,stranger,1,M,,,,,,,,,9,0,36,1,,,,,,,,,222.02277810010128,,,,,,,,,,,,,,,,,,,,,,,,,,,,,,,,,,222.00679010001477,222.02277810010128,222.5230709000025,222.50664240005426,222.50664240005426,222.50664240005426,222.50664240005426,222.80647700000554,222.80647700000554,222.80647700000554,,223.05753420002293,z,223.05797320010606,223.0733055000892,224.07392240001354,224.05775200005155,0.534576200065203,None,,,,,,,,,,,,,,,,,,,,,,,,,,,,,,,,,,,,,,,,,,,,,,,,,,,,,,,,,,,,,,,,,,,,,,,,,,,,,,,,,,,B_10,001,2024-11-29_12h59.27.841,untitled,2024.1.5,None,2024-11-29 12h59.38.727398 +0530,
square.png,you,1,M,,,,,,,,,9,1,37,0,,,,,,,,,224.07392240001354,,,,,,,,,,,,,,,,,,,,,,,,,,,,,,,,,,224.05811209999956,224.07392240001354,224.57404760003556,224.55770950007718,224.55770950007718,224.55770950007718,224.55770950007718,224.8576581000816,224.8576581000816,224.8576581000816,,224.89147040003445,m,224.8919140000362,224.90764160000253,225.9079711000668,225.89201470010448,0.33246629999484867,None,,,,,,,,,,,,,,,,,,,,,,,,,,,,,,,,,,,,,,,,,,,,,,,,,,,,,,,,,,,,,,,,,,,,,,,,,,,,,,,,,,,B_10,001,2024-11-29_12h59.27.841,untitled,2024.1.5,None,2024-11-29 12h59.38.727398 +0530,
triangle.png,you,0,Z,,,,,,,,,9,2,38,3,,,,,,,,,225.9079711000668,,,,,,,,,,,,,,,,,,,,,,,,,,,,,,,,,,225.892368300003,225.9079711000668,226.40842570003588,226.39184940000996,226.39184940000996,226.39184940000996,226.39184940000996,226.69164460001048,226.69164460001048,226.69164460001048,,226.8592868000269,m,226.8597225000849,226.8753736000508,227.87569540005643,227.85947350005154,0.4569124000845477,None,,,,,,,,,,,,,,,,,,,,,,,,,,,,,,,,,,,,,,,,,,,,,,,,,,,,,,,,,,,,,,,,,,,,,,,,,,,,,,,,,,,B_10,001,2024-11-29_12h59.27.841,untitled,2024.1.5,None,2024-11-29 12h59.38.727398 +0530,
square.png,stranger,0,Z,,,,,,,,,9,3,39,2,,,,,,,,,227.87569540005643,,,,,,,,,,,,,,,,,,,,,,,,,,,,,,,,,,227.8598296000855,227.87569540005643,228.3761032000184,228.35937030008063,228.35937030008063,228.35937030008063,228.35937030008063,228.65959490009118,228.65959490009118,228.65959490009118,,228.82707060000394,z,228.82750470004976,228.84291920007672,229.84358300000895,229.82708360010292,0.4614816999528557,None,,,,,,,,,,,,,,,,,,,,,,,,,,,,,,,,,,,,,,,,,,,,,,,,,,,,,,,,,,,,,,,,,,,,,,,,,,,,,,,,,,,B_10,001,2024-11-29_12h59.27.841,untitled,2024.1.5,None,2024-11-29 12h59.38.727398 +0530,
square.png,you,1,M,,,,,,,,,10,0,40,0,,,,,,,,,229.84358300000895,,,,,,,,,,,,,,,,,,,,,,,,,,,,,,,,,,229.8274386000121,229.84358300000895,230.3438429000089,230.32703919999767,230.32703919999767,230.32703919999767,230.32703919999767,230.6270745000802,230.6270745000802,230.6270745000802,,230.71130070008803,z,230.7117295000935,230.72714770003222,231.72777210001368,231.71132360002957,0.3706165999174118,None,,,,,,,,,,,,,,,,,,,,,,,,,,,,,,,,,,,,,,,,,,,,,,,,,,,,,,,,,,,,,,,,,,,,,,,,,,,,,,,,,,,B_10,001,2024-11-29_12h59.27.841,untitled,2024.1.5,None,2024-11-29 12h59.38.727398 +0530,
triangle.png,you,0,Z,,,,,,,,,10,1,41,3,,,,,,,,,231.72777210001368,,,,,,,,,,,,,,,,,,,,,,,,,,,,,,,,,,231.71169190004002,231.72777210001368,232.228212700109,232.21144780004397,232.21144780004397,232.21144780004397,232.21144780004397,232.5113162000198,232.5113162000198,232.5113162000198,,232.64572240004782,z,232.64617459999863,232.6615539001068,233.66190300008748,233.64566230005585,0.4215125000337139,None,,,,,,,,,,,,,,,,,,,,,,,,,,,,,,,,,,,,,,,,,,,,,,,,,,,,,,,,,,,,,,,,,,,,,,,,,,,,,,,,,,,B_10,001,2024-11-29_12h59.27.841,untitled,2024.1.5,None,2024-11-29 12h59.38.727398 +0530,
triangle.png,stranger,1,M,,,,,,,,,10,2,42,1,,,,,,,,,233.66190300008748,,,,,,,,,,,,,,,,,,,,,,,,,,,,,,,,,,233.64602630003355,233.66190300008748,234.1622072000755,234.14561150001828,234.14561150001828,234.14561150001828,234.14561150001828,234.44579930009786,234.44579930009786,234.44579930009786,,234.66326910001226,z,234.6637052000733,234.6793261000421,235.67968450009357,235.6634002000792,0.5128219000762329,None,,,,,,,,,,,,,,,,,,,,,,,,,,,,,,,,,,,,,,,,,,,,,,,,,,,,,,,,,,,,,,,,,,,,,,,,,,,,,,,,,,,B_10,001,2024-11-29_12h59.27.841,untitled,2024.1.5,None,2024-11-29 12h59.38.727398 +0530,
square.png,stranger,0,Z,,,,,,,,,10,3,43,2,,,,,,,,,235.67968450009357,,,,,,,,,,,,,,,,,,,,,,,,,,,,,,,,,,235.6637645000592,235.67968450009357,236.1800232999958,236.16340620000847,236.16340620000847,236.16340620000847,236.16340620000847,236.46359270007815,236.46359270007815,236.46359270007815,,236.53107210004237,m,236.5315323000541,236.54696470010094,237.5474230000982,237.53107560006902,0.3653772999532521,None,,,,,,,,,,,,,,,,,,,,,,,,,,,,,,,,,,,,,,,,,,,,,,,,,,,,,,,,,,,,,,,,,,,,,,,,,,,,,,,,,,,B_10,001,2024-11-29_12h59.27.841,untitled,2024.1.5,None,2024-11-29 12h59.38.727398 +0530,
triangle.png,you,0,Z,,,,,,,,,11,0,44,3,,,,,,,,,237.5474230000982,,,,,,,,,,,,,,,,,,,,,,,,,,,,,,,,,,237.53143150010146,237.5474230000982,238.04763320006896,238.03104930010159,238.03104930010159,238.03104930010159,238.03104930010159,238.33108740008902,238.33108740008902,238.33108740008902,,238.38186690001749,m,238.38231080002151,238.39783510006964,239.39845680003054,239.38212389999535,0.3388693999731913,None,,,,,,,,,,,,,,,,,,,,,,,,,,,,,,,,,,,,,,,,,,,,,,,,,,,,,,,,,,,,,,,,,,,,,,,,,,,,,,,,,,,B_10,001,2024-11-29_12h59.27.841,untitled,2024.1.5,None,2024-11-29 12h59.38.727398 +0530,
square.png,stranger,0,Z,,,,,,,,,11,1,45,2,,,,,,,,,239.39845680003054,,,,,,,,,,,,,,,,,,,,,,,,,,,,,,,,,,239.3824940000195,239.39845680003054,239.89884410006925,239.88219240005128,239.88219240005128,239.88219240005128,239.88219240005128,240.18214370007627,240.18214370007627,240.18214370007627,240.98248040000908,240.96631220006384,None,240.96651090006344,240.98248040000908,241.98303180001676,241.96665620000567,,,,,,,,,,,,,,,,,,,,,,,,,,,,,,,,,,,,,,,,,,,,,,,,,,,,,,,,,,,,,,,,,,,,,,,,,,,,,,,,,,,,,B_10,001,2024-11-29_12h59.27.841,untitled,2024.1.5,None,2024-11-29 12h59.38.727398 +0530,
triangle.png,stranger,1,M,,,,,,,,,11,2,46,1,,,,,,,,,241.98303180001676,,,,,,,,,,,,,,,,,,,,,,,,,,,,,,,,,,241.96701960009523,241.98303180001676,242.48342950001825,242.48342950001825,242.48342950001825,242.48342950001825,242.48342950001825,242.78325010009576,242.78325010009576,242.78325010009576,,243.11788999999408,z,243.11832110001706,243.133804500103,244.1341315000318,244.11779410007875,0.6269752000225708,None,,,,,,,,,,,,,,,,,,,,,,,,,,,,,,,,,,,,,,,,,,,,,,,,,,,,,,,,,,,,,,,,,,,,,,,,,,,,,,,,,,,B_10,001,2024-11-29_12h59.27.841,untitled,2024.1.5,None,2024-11-29 12h59.38.727398 +0530,
square.png,you,1,M,,,,,,,,,11,3,47,0,,,,,,,,,244.1341315000318,,,,,,,,,,,,,,,,,,,,,,,,,,,,,,,,,,244.11815350002144,244.1341315000318,244.6345201000804,244.61767140007578,244.61767140007578,244.61767140007578,244.61767140007578,244.91776730003767,244.91776730003767,244.91776730003767,,244.95173970004544,m,244.95219350000843,244.9677870000014,245.96839190006722,245.95216270000674,0.3193629999877885,None,,,,,,,,,,,,,,,,,,,,,,,,,,,,,,,,,,,,,,,,,,,,,,,,,,,,,,,,,,,,,,,,,,,,,,,,,,,,,,,,,,,B_10,001,2024-11-29_12h59.27.841,untitled,2024.1.5,None,2024-11-29 12h59.38.727398 +0530,
triangle.png,stranger,1,M,,,,,,,,,12,0,48,1,,,,,,,,,245.96839190006722,,,,,,,,,,,,,,,,,,,,,,,,,,,,,,,,,,245.95253000000957,245.96839190006722,246.46856420009863,246.4522598000476,246.4522598000476,246.4522598000476,246.4522598000476,246.75222990009934,246.75222990009934,246.75222990009934,,246.9695676000556,m,246.97000880003907,246.98560300003737,247.9860350000672,247.96969960001297,0.5057524000294507,None,,,,,,,,,,,,,,,,,,,,,,,,,,,,,,,,,,,,,,,,,,,,,,,,,,,,,,,,,,,,,,,,,,,,,,,,,,,,,,,,,,,B_10,001,2024-11-29_12h59.27.841,untitled,2024.1.5,None,2024-11-29 12h59.38.727398 +0530,
square.png,stranger,0,Z,,,,,,,,,12,1,49,2,,,,,,,,,247.9860350000672,,,,,,,,,,,,,,,,,,,,,,,,,,,,,,,,,,247.97006090008654,247.9860350000672,248.48646590008866,248.4696892000502,248.4696892000502,248.4696892000502,248.4696892000502,248.76980330003425,248.76980330003425,248.76980330003425,,248.87061810004525,z,248.8710648000706,248.8863969000522,249.88722340005916,249.87075940007344,0.39663049997761846,None,,,,,,,,,,,,,,,,,,,,,,,,,,,,,,,,,,,,,,,,,,,,,,,,,,,,,,,,,,,,,,,,,,,,,,,,,,,,,,,,,,,B_10,001,2024-11-29_12h59.27.841,untitled,2024.1.5,None,2024-11-29 12h59.38.727398 +0530,
triangle.png,you,0,Z,,,,,,,,,12,2,50,3,,,,,,,,,249.88722340005916,,,,,,,,,,,,,,,,,,,,,,,,,,,,,,,,,,249.8711178000085,249.88722340005916,250.38754300004803,250.37087450001854,250.37087450001854,250.37087450001854,250.37087450001854,250.67096500005573,250.67096500005573,250.67096500005573,,250.7382567001041,z,250.73868680000305,250.7542944001034,251.75458460010123,251.7384233000921,0.3547590000089258,None,,,,,,,,,,,,,,,,,,,,,,,,,,,,,,,,,,,,,,,,,,,,,,,,,,,,,,,,,,,,,,,,,,,,,,,,,,,,,,,,,,,B_10,001,2024-11-29_12h59.27.841,untitled,2024.1.5,None,2024-11-29 12h59.38.727398 +0530,
square.png,you,1,M,,,,,,,,,12,3,51,0,,,,,,,,,251.75458460010123,,,,,,,,,,,,,,,,,,,,,,,,,,,,,,,,,,251.7387855000561,251.75458460010123,252.25506340002175,252.23861160001252,252.23861160001252,252.23861160001252,252.23861160001252,252.53831490001176,252.53831490001176,252.53831490001176,,252.60580440005288,m,252.6062462000409,252.62165270000696,253.62224830000196,253.60622870002408,0.3586908000288531,None,,,,,,,,,,,,,,,,,,,,,,,,,,,,,,,,,,,,,,,,,,,,,,,,,,,,,,,,,,,,,,,,,,,,,,,,,,,,,,,,,,,B_10,001,2024-11-29_12h59.27.841,untitled,2024.1.5,None,2024-11-29 12h59.38.727398 +0530,
triangle.png,you,0,Z,,,,,,,,,13,0,52,3,,,,,,,,,253.62224830000196,,,,,,,,,,,,,,,,,,,,,,,,,,,,,,,,,,253.60658820008393,253.62224830000196,254.12285610008985,254.10625510010868,254.10625510010868,254.10625510010868,254.10625510010868,254.40597830002662,254.40597830002662,254.40597830002662,,254.50667370005976,m,254.50710640009493,254.52281820005737,255.52316290000454,255.50694170000497,0.3946599999908358,None,,,,,,,,,,,,,,,,,,,,,,,,,,,,,,,,,,,,,,,,,,,,,,,,,,,,,,,,,,,,,,,,,,,,,,,,,,,,,,,,,,,B_10,001,2024-11-29_12h59.27.841,untitled,2024.1.5,None,2024-11-29 12h59.38.727398 +0530,
square.png,stranger,0,Z,,,,,,,,,13,1,53,2,,,,,,,,,255.52316290000454,,,,,,,,,,,,,,,,,,,,,,,,,,,,,,,,,,255.50730550009757,255.52316290000454,256.0237803000491,256.00721910002176,256.00721910002176,256.00721910002176,256.00721910002176,256.3068821000634,256.3068821000634,256.3068821000634,,256.3909497000277,m,256.39139070000965,256.4071328000864,257.407612400013,257.39139040000737,0.3824824000475928,None,,,,,,,,,,,,,,,,,,,,,,,,,,,,,,,,,,,,,,,,,,,,,,,,,,,,,,,,,,,,,,,,,,,,,,,,,,,,,,,,,,,B_10,001,2024-11-29_12h59.27.841,untitled,2024.1.5,None,2024-11-29 12h59.38.727398 +0530,
square.png,you,1,M,,,,,,,,,13,2,54,0,,,,,,,,,257.407612400013,,,,,,,,,,,,,,,,,,,,,,,,,,,,,,,,,,257.39174930006266,257.407612400013,257.9078197000781,257.89148750004824,257.89148750004824,257.89148750004824,257.89148750004824,258.19141309999395,258.19141309999395,258.19141309999395,,258.45923890010454,z,258.45966730010696,258.47481730009895,259.4753049000865,259.45923890010454,0.5658210000256076,None,,,,,,,,,,,,,,,,,,,,,,,,,,,,,,,,,,,,,,,,,,,,,,,,,,,,,,,,,,,,,,,,,,,,,,,,,,,,,,,,,,,B_10,001,2024-11-29_12h59.27.841,untitled,2024.1.5,None,2024-11-29 12h59.38.727398 +0530,
triangle.png,stranger,1,M,,,,,,,,,13,3,55,1,,,,,,,,,259.4753049000865,,,,,,,,,,,,,,,,,,,,,,,,,,,,,,,,,,259.4596240000101,259.4753049000865,259.9757591000525,259.958981600008,259.958981600008,259.958981600008,259.958981600008,260.25919580005575,260.25919580005575,260.25919580005575,,260.443282000022,z,260.4437249000184,260.4593101000646,261.4598258000333,261.4435909000458,0.4698305999627337,None,,,,,,,,,,,,,,,,,,,,,,,,,,,,,,,,,,,,,,,,,,,,,,,,,,,,,,,,,,,,,,,,,,,,,,,,,,,,,,,,,,,B_10,001,2024-11-29_12h59.27.841,untitled,2024.1.5,None,2024-11-29 12h59.38.727398 +0530,
square.png,you,1,M,,,,,,,,,14,0,56,0,,,,,,,,,261.4598258000333,,,,,,,,,,,,,,,,,,,,,,,,,,,,,,,,,,261.44394420005847,261.4598258000333,261.9600157000823,261.94332330010366,261.94332330010366,261.94332330010366,261.94332330010366,262.24346940009855,262.24346940009855,262.24346940009855,,262.3108199000126,m,262.311257100082,262.3268590000225,263.32739990006667,263.3112216000445,0.3579006999498233,None,,,,,,,,,,,,,,,,,,,,,,,,,,,,,,,,,,,,,,,,,,,,,,,,,,,,,,,,,,,,,,,,,,,,,,,,,,,,,,,,,,,B_10,001,2024-11-29_12h59.27.841,untitled,2024.1.5,None,2024-11-29 12h59.38.727398 +0530,
square.png,stranger,0,Z,,,,,,,,,14,1,57,2,,,,,,,,,263.32739990006667,,,,,,,,,,,,,,,,,,,,,,,,,,,,,,,,,,263.3115782000823,263.32739990006667,263.82769540010486,263.81105670006946,263.81105670006946,263.81105670006946,263.81105670006946,264.1109153000871,264.1109153000871,264.1109153000871,264.91162410005927,264.8953305000905,None,264.89552390004974,264.91162410005927,265.9120142000029,265.8957672000397,,,,,,,,,,,,,,,,,,,,,,,,,,,,,,,,,,,,,,,,,,,,,,,,,,,,,,,,,,,,,,,,,,,,,,,,,,,,,,,,,,,,,B_10,001,2024-11-29_12h59.27.841,untitled,2024.1.5,None,2024-11-29 12h59.38.727398 +0530,
triangle.png,stranger,1,M,,,,,,,,,14,2,58,1,,,,,,,,,265.9120142000029,,,,,,,,,,,,,,,,,,,,,,,,,,,,,,,,,,265.89613370003644,265.9120142000029,266.41221120010596,266.41221120010596,266.41221120010596,266.41221120010596,266.41221120010596,266.71248850005213,266.71248850005213,266.71248850005213,,266.8467525000451,z,266.8471851000795,266.8624031000072,267.86305320006795,267.84671900002286,0.43344619998242706,None,,,,,,,,,,,,,,,,,,,,,,,,,,,,,,,,,,,,,,,,,,,,,,,,,,,,,,,,,,,,,,,,,,,,,,,,,,,,,,,,,,,B_10,001,2024-11-29_12h59.27.841,untitled,2024.1.5,None,2024-11-29 12h59.38.727398 +0530,
triangle.png,you,0,Z,,,,,,,,,14,3,59,3,,,,,,,,,267.86305320006795,,,,,,,,,,,,,,,,,,,,,,,,,,,,,,,,,,267.8470796000911,267.86305320006795,268.3633979000151,268.34675030002836,268.34675030002836,268.34675030002836,268.34675030002836,268.64676730008796,268.64676730008796,268.64676730008796,,268.6973655000329,m,268.6978071000194,268.71325380005874,269.7138441000134,269.69773850007914,0.3435091000283137,None,,,,,,,,,,,,,,,,,,,,,,,,,,,,,,,,,,,,,,,,,,,,,,,,,,,,,,,,,,,,,,,,,,,,,,,,,,,,,,,,,,,B_10,001,2024-11-29_12h59.27.841,untitled,2024.1.5,None,2024-11-29 12h59.38.727398 +0530,
square.png,stranger,0,Z,,,,,,,,,15,0,60,2,,,,,,,,,269.7138441000134,,,,,,,,,,,,,,,,,,,,,,,,,,,,,,,,,,269.6980936001055,269.7138441000134,270.2144464000594,270.19794570002705,270.19794570002705,270.19794570002705,270.19794570002705,270.4975018000696,270.4975018000696,270.4975018000696,,270.5484532000264,m,270.5488900000928,270.56432620005216,271.5649698000634,271.54856410005596,0.3479994999943301,None,,,,,,,,,,,,,,,,,,,,,,,,,,,,,,,,,,,,,,,,,,,,,,,,,,,,,,,,,,,,,,,,,,,,,,,,,,,,,,,,,,,B_10,001,2024-11-29_12h59.27.841,untitled,2024.1.5,None,2024-11-29 12h59.38.727398 +0530,
triangle.png,you,0,Z,,,,,,,,,15,1,61,3,,,,,,,,,271.5649698000634,,,,,,,,,,,,,,,,,,,,,,,,,,,,,,,,,,271.548916400061,271.5649698000634,272.06511850003153,272.0487138000317,272.0487138000317,272.0487138000317,272.0487138000317,272.3487039000029,272.3487039000029,272.3487039000029,273.1491330000572,273.1327556000324,None,273.13294880010653,273.1491330000572,274.14969630003907,274.1334410000127,,,,,,,,,,,,,,,,,,,,,,,,,,,,,,,,,,,,,,,,,,,,,,,,,,,,,,,,,,,,,,,,,,,,,,,,,,,,,,,,,,,,,B_10,001,2024-11-29_12h59.27.841,untitled,2024.1.5,None,2024-11-29 12h59.38.727398 +0530,
triangle.png,stranger,1,M,,,,,,,,,15,2,62,1,,,,,,,,,274.14969630003907,,,,,,,,,,,,,,,,,,,,,,,,,,,,,,,,,,274.1337965000421,274.14969630003907,274.6499151000753,274.6499151000753,274.6499151000753,274.6499151000753,274.6499151000753,274.95017280010507,274.95017280010507,274.95017280010507,275.75026530004106,275.73405230010394,None,275.7342457000632,275.75026530004106,276.7507677000249,276.73447500006296,,,,,,,,,,,,,,,,,,,,,,,,,,,,,,,,,,,,,,,,,,,,,,,,,,,,,,,,,,,,,,,,,,,,,,,,,,,,,,,,,,,,,B_10,001,2024-11-29_12h59.27.841,untitled,2024.1.5,None,2024-11-29 12h59.38.727398 +0530,
square.png,you,1,M,,,,,,,,,15,3,63,0,,,,,,,,,276.7507677000249,,,,,,,,,,,,,,,,,,,,,,,,,,,,,,,,,,276.73483460000716,276.7507677000249,277.25122830003966,277.25122830003966,277.25122830003966,277.25122830003966,277.25122830003966,277.5513243000023,277.5513243000023,277.5513243000023,,277.6353039999958,m,277.6357486000052,277.6512887000572,278.65178970003035,278.6355529000284,0.38194440002553165,None,,,,,,,,,,,,,,,,,,,,,,,,,,,,,,,,,,,,,,,,,,,,,,,,,,,,,,,,,,,,,,,,,,,,,,,,,,,,,,,,,,,B_10,001,2024-11-29_12h59.27.841,untitled,2024.1.5,None,2024-11-29 12h59.38.727398 +0530,
triangle.png,stranger,1,M,,,,,,,,,16,0,64,1,,,,,,,,,278.65178970003035,,,,,,,,,,,,,,,,,,,,,,,,,,,,,,,,,,278.63591549999546,278.65178970003035,279.1520811000373,279.1355276000686,279.1355276000686,279.1355276000686,279.1355276000686,279.4355723001063,279.4355723001063,279.4355723001063,,279.5195310000563,z,279.51998540002387,279.5355421000859,280.5361713001039,280.51985430007335,0.37093600002117455,None,,,,,,,,,,,,,,,,,,,,,,,,,,,,,,,,,,,,,,,,,,,,,,,,,,,,,,,,,,,,,,,,,,,,,,,,,,,,,,,,,,,B_10,001,2024-11-29_12h59.27.841,untitled,2024.1.5,None,2024-11-29 12h59.38.727398 +0530,
triangle.png,you,0,Z,,,,,,,,,16,1,65,3,,,,,,,,,280.5361713001039,,,,,,,,,,,,,,,,,,,,,,,,,,,,,,,,,,280.5202141000191,280.5361713001039,281.03665830008686,281.0199628000846,281.0199628000846,281.0199628000846,281.0199628000846,281.31991190009285,281.31991190009285,281.31991190009285,,281.637611900107,z,281.63803920010105,281.65336690004915,282.6540180000011,282.6377963999985,0.6100738999666646,None,,,,,,,,,,,,,,,,,,,,,,,,,,,,,,,,,,,,,,,,,,,,,,,,,,,,,,,,,,,,,,,,,,,,,,,,,,,,,,,,,,,B_10,001,2024-11-29_12h59.27.841,untitled,2024.1.5,None,2024-11-29 12h59.38.727398 +0530,
square.png,stranger,0,Z,,,,,,,,,16,2,66,2,,,,,,,,,282.6540180000011,,,,,,,,,,,,,,,,,,,,,,,,,,,,,,,,,,282.6381505000172,282.6540180000011,283.1543862000108,283.1378248000983,283.1378248000983,283.1378248000983,283.1378248000983,283.437740100082,283.437740100082,283.437740100082,,283.73853570001666,m,283.7389666000381,283.75452890002634,284.75509079999756,284.7385778001044,0.5990169999422505,None,,,,,,,,,,,,,,,,,,,,,,,,,,,,,,,,,,,,,,,,,,,,,,,,,,,,,,,,,,,,,,,,,,,,,,,,,,,,,,,,,,,B_10,001,2024-11-29_12h59.27.841,untitled,2024.1.5,None,2024-11-29 12h59.38.727398 +0530,
square.png,you,1,M,,,,,,,,,16,3,67,0,,,,,,,,,284.75509079999756,,,,,,,,,,,,,,,,,,,,,,,,,,,,,,,,,,284.7389415000798,284.75509079999756,285.25549160002265,285.2386383000994,285.2386383000994,285.2386383000994,285.2386383000994,285.5385836000787,285.5385836000787,285.5385836000787,,285.6396367000416,m,285.6400703000836,285.6557691000635,286.65593030001037,286.6397680999944,0.3914710000390187,None,,,,,,,,,,,,,,,,,,,,,,,,,,,,,,,,,,,,,,,,,,,,,,,,,,,,,,,,,,,,,,,,,,,,,,,,,,,,,,,,,,,B_10,001,2024-11-29_12h59.27.841,untitled,2024.1.5,None,2024-11-29 12h59.38.727398 +0530,
square.png,stranger,0,Z,,,,,,,,,17,0,68,2,,,,,,,,,286.65593030001037,,,,,,,,,,,,,,,,,,,,,,,,,,,,,,,,,,286.6401246000314,286.65593030001037,287.1564255000558,287.1398866000818,287.1398866000818,287.1398866000818,287.1398866000818,287.4398218001006,287.4398218001006,287.4398218001006,,287.640462600044,z,287.6408905000426,287.6566324000014,288.65693779999856,288.640737800044,0.48497330001555383,None,,,,,,,,,,,,,,,,,,,,,,,,,,,,,,,,,,,,,,,,,,,,,,,,,,,,,,,,,,,,,,,,,,,,,,,,,,,,,,,,,,,B_10,001,2024-11-29_12h59.27.841,untitled,2024.1.5,None,2024-11-29 12h59.38.727398 +0530,
triangle.png,you,0,Z,,,,,,,,,17,1,69,3,,,,,,,,,288.65693779999856,,,,,,,,,,,,,,,,,,,,,,,,,,,,,,,,,,288.64109420008026,288.65693779999856,289.1574753000168,289.14081220002845,289.14081220002845,289.14081220002845,289.14081220002845,289.4408565000631,289.4408565000631,289.4408565000631,,289.47478000004776,z,289.4752109000692,289.4908429000061,290.4913697000593,290.47516040003393,0.32966819999273866,None,,,,,,,,,,,,,,,,,,,,,,,,,,,,,,,,,,,,,,,,,,,,,,,,,,,,,,,,,,,,,,,,,,,,,,,,,,,,,,,,,,,B_10,001,2024-11-29_12h59.27.841,untitled,2024.1.5,None,2024-11-29 12h59.38.727398 +0530,
square.png,you,1,M,,,,,,,,,17,2,70,0,,,,,,,,,290.4913697000593,,,,,,,,,,,,,,,,,,,,,,,,,,,,,,,,,,290.4755150000565,290.4913697000593,290.99144590005744,290.97504440008197,290.97504440008197,290.97504440008197,290.97504440008197,291.2750297000166,291.2750297000166,291.2750297000166,,291.4091778000584,m,291.4096270001028,291.4251089000609,292.4255406000884,292.40939939999953,0.4177588999737054,None,,,,,,,,,,,,,,,,,,,,,,,,,,,,,,,,,,,,,,,,,,,,,,,,,,,,,,,,,,,,,,,,,,,,,,,,,,,,,,,,,,,B_10,001,2024-11-29_12h59.27.841,untitled,2024.1.5,None,2024-11-29 12h59.38.727398 +0530,
triangle.png,stranger,1,M,,,,,,,,,17,3,71,1,,,,,,,,,292.4255406000884,,,,,,,,,,,,,,,,,,,,,,,,,,,,,,,,,,292.40976569999475,292.4255406000884,292.9258685000241,292.9095475000795,292.9095475000795,292.9095475000795,292.9095475000795,293.20922180009075,293.20922180009075,293.20922180009075,,293.2771882000379,m,293.27762310008984,293.2926629000576,294.2932485000929,294.2772726000985,0.35150899994187057,None,,,,,,,,,,,,,,,,,,,,,,,,,,,,,,,,,,,,,,,,,,,,,,,,,,,,,,,,,,,,,,,,,,,,,,,,,,,,,,,,,,,B_10,001,2024-11-29_12h59.27.841,untitled,2024.1.5,None,2024-11-29 12h59.38.727398 +0530,
triangle.png,you,0,Z,,,,,,,,,18,0,72,3,,,,,,,,,294.2932485000929,,,,,,,,,,,,,,,,,,,,,,,,,,,,,,,,,,294.2776719999965,294.2932485000929,294.7937131000217,294.7769823000999,294.7769823000999,294.7769823000999,294.7769823000999,295.077005200088,295.077005200088,295.077005200088,,295.0942310000537,z,295.09467610006686,295.110352500109,296.1107911000727,296.09465390001424,0.315825599944219,None,,,,,,,,,,,,,,,,,,,,,,,,,,,,,,,,,,,,,,,,,,,,,,,,,,,,,,,,,,,,,,,,,,,,,,,,,,,,,,,,,,,B_10,001,2024-11-29_12h59.27.841,untitled,2024.1.5,None,2024-11-29 12h59.38.727398 +0530,
triangle.png,stranger,1,M,,,,,,,,,18,1,73,1,,,,,,,,,296.1107911000727,,,,,,,,,,,,,,,,,,,,,,,,,,,,,,,,,,296.09501790010836,296.1107911000727,296.61104420002084,296.59448240010533,296.59448240010533,296.59448240010533,296.59448240010533,296.8945419000229,296.8945419000229,296.8945419000229,,296.9953782000812,z,296.9958108999999,297.0115208000643,298.0118256000569,297.9954125001095,0.3960518999956548,None,,,,,,,,,,,,,,,,,,,,,,,,,,,,,,,,,,,,,,,,,,,,,,,,,,,,,,,,,,,,,,,,,,,,,,,,,,,,,,,,,,,B_10,001,2024-11-29_12h59.27.841,untitled,2024.1.5,None,2024-11-29 12h59.38.727398 +0530,
square.png,stranger,0,Z,,,,,,,,,18,2,74,2,,,,,,,,,298.0118256000569,,,,,,,,,,,,,,,,,,,,,,,,,,,,,,,,,,297.9957776000956,298.0118256000569,298.5122194000287,298.49539739999454,298.49539739999454,298.49539739999454,298.49539739999454,298.7957498000469,298.7957498000469,298.7957498000469,,298.8795482000569,m,298.8799857000122,298.89561290002894,299.89622680004686,299.87981040007435,0.3746331000002101,None,,,,,,,,,,,,,,,,,,,,,,,,,,,,,,,,,,,,,,,,,,,,,,,,,,,,,,,,,,,,,,,,,,,,,,,,,,,,,,,,,,,B_10,001,2024-11-29_12h59.27.841,untitled,2024.1.5,None,2024-11-29 12h59.38.727398 +0530,
square.png,you,1,M,,,,,,,,,18,3,75,0,,,,,,,,,299.89622680004686,,,,,,,,,,,,,,,,,,,,,,,,,,,,,,,,,,299.8801735000452,299.89622680004686,300.39649640000425,300.3797308000503,300.3797308000503,300.3797308000503,300.3797308000503,300.6800035000779,300.6800035000779,300.6800035000779,,300.730836700066,m,300.7312683000928,300.7465877000941,301.7469651000574,301.73083910008427,0.341902400017716,None,,,,,,,,,,,,,,,,,,,,,,,,,,,,,,,,,,,,,,,,,,,,,,,,,,,,,,,,,,,,,,,,,,,,,,,,,,,,,,,,,,,B_10,001,2024-11-29_12h59.27.841,untitled,2024.1.5,None,2024-11-29 12h59.38.727398 +0530,
square.png,you,1,M,,,,,,,,,19,0,76,0,,,,,,,,,301.7469651000574,,,,,,,,,,,,,,,,,,,,,,,,,,,,,,,,,,301.7311981000239,301.7469651000574,302.2474904000992,302.23092220001854,302.23092220001854,302.23092220001854,302.23092220001854,302.5306938000722,302.5306938000722,302.5306938000722,,302.7150032001082,m,302.71543640003074,302.7310572999995,303.73134340008255,303.71543720003683,0.47074360004626215,None,,,,,,,,,,,,,,,,,,,,,,,,,,,,,,,,,,,,,,,,,,,,,,,,,,,,,,,,,,,,,,,,,,,,,,,,,,,,,,,,,,,B_10,001,2024-11-29_12h59.27.841,untitled,2024.1.5,None,2024-11-29 12h59.38.727398 +0530,
triangle.png,stranger,1,M,,,,,,,,,19,1,77,1,,,,,,,,,303.73134340008255,,,,,,,,,,,,,,,,,,,,,,,,,,,,,,,,,,303.7157896000426,303.73134340008255,304.23193540005013,304.215280000004,304.215280000004,304.215280000004,304.215280000004,304.51508670009207,304.51508670009207,304.51508670009207,,304.5990387001075,z,304.59948020009324,304.6151966000907,305.61559750000015,305.59957250009757,0.3706559999845922,None,,,,,,,,,,,,,,,,,,,,,,,,,,,,,,,,,,,,,,,,,,,,,,,,,,,,,,,,,,,,,,,,,,,,,,,,,,,,,,,,,,,B_10,001,2024-11-29_12h59.27.841,untitled,2024.1.5,None,2024-11-29 12h59.38.727398 +0530,
triangle.png,you,0,Z,,,,,,,,,19,2,78,3,,,,,,,,,305.61559750000015,,,,,,,,,,,,,,,,,,,,,,,,,,,,,,,,,,305.59993730008136,305.61559750000015,306.1159717000555,306.0994149000617,306.0994149000617,306.0994149000617,306.0994149000617,306.3994587000925,306.3994587000925,306.3994587000925,,306.61708800005727,z,306.61751600005664,306.63295290002134,307.6336611000588,307.6171223000856,0.5061453999951482,None,,,,,,,,,,,,,,,,,,,,,,,,,,,,,,,,,,,,,,,,,,,,,,,,,,,,,,,,,,,,,,,,,,,,,,,,,,,,,,,,,,,B_10,001,2024-11-29_12h59.27.841,untitled,2024.1.5,None,2024-11-29 12h59.38.727398 +0530,
square.png,stranger,0,Z,,,,,,,,,19,3,79,2,,,,,,,,,307.6336611000588,,,,,,,,,,,,,,,,,,,,,,,,,,,,,,,,,,307.61747510009445,307.6336611000588,308.13367370003834,308.1169472000329,308.1169472000329,308.1169472000329,308.1169472000329,308.4173021001043,308.4173021001043,308.4173021001043,,308.6011745000724,m,308.601629300043,308.6172933001071,309.6176851000637,309.6016737000318,0.47685310000088066,None,,,,,,,,,,,,,,,,,,,,,,,,,,,,,,,,,,,,,,,,,,,,,,,,,,,,,,,,,,,,,,,,,,,,,,,,,,,,,,,,,,,B_10,001,2024-11-29_12h59.27.841,untitled,2024.1.5,None,2024-11-29 12h59.38.727398 +0530,
triangle.png,stranger,1,M,,,,,,,,,20,0,80,1,,,,,,,,,309.6176851000637,,,,,,,,,,,,,,,,,,,,,,,,,,,,,,,,,,309.6020365000004,309.6176851000637,310.1181345001096,310.1015364000341,310.1015364000341,310.1015364000341,310.1015364000341,310.4015345000662,310.4015345000662,310.4015345000662,311.2018769000424,311.18588260002434,None,311.186077499995,311.2018769000424,312.20255410007667,312.1861895000329,,,,,,,,,,,,,,,,,,,,,,,,,,,,,,,,,,,,,,,,,,,,,,,,,,,,,,,,,,,,,,,,,,,,,,,,,,,,,,,,,,,,,B_10,001,2024-11-29_12h59.27.841,untitled,2024.1.5,None,2024-11-29 12h59.38.727398 +0530,
square.png,you,1,M,,,,,,,,,20,1,81,0,,,,,,,,,312.20255410007667,,,,,,,,,,,,,,,,,,,,,,,,,,,,,,,,,,312.1865530000068,312.20255410007667,312.70288170001004,312.70288170001004,312.70288170001004,312.70288170001004,312.70288170001004,313.0029813000001,313.0029813000001,313.0029813000001,,313.18689240003005,m,313.1873238000553,313.20285560004413,314.20339030004106,314.18723650008906,0.4753758000442758,None,,,,,,,,,,,,,,,,,,,,,,,,,,,,,,,,,,,,,,,,,,,,,,,,,,,,,,,,,,,,,,,,,,,,,,,,,,,,,,,,,,,B_10,001,2024-11-29_12h59.27.841,untitled,2024.1.5,None,2024-11-29 12h59.38.727398 +0530,
square.png,stranger,0,Z,,,,,,,,,20,2,82,2,,,,,,,,,314.20339030004106,,,,,,,,,,,,,,,,,,,,,,,,,,,,,,,,,,314.18760669999756,314.20339030004106,314.70404000009876,314.6870547001017,314.6870547001017,314.6870547001017,314.6870547001017,314.98712490010075,314.98712490010075,314.98712490010075,,315.15482820000034,z,315.1552599000279,315.17083170008846,316.1712014999939,316.1549794001039,0.45935329992789775,None,,,,,,,,,,,,,,,,,,,,,,,,,,,,,,,,,,,,,,,,,,,,,,,,,,,,,,,,,,,,,,,,,,,,,,,,,,,,,,,,,,,B_10,001,2024-11-29_12h59.27.841,untitled,2024.1.5,None,2024-11-29 12h59.38.727398 +0530,
triangle.png,you,0,Z,,,,,,,,,20,3,83,3,,,,,,,,,316.1712014999939,,,,,,,,,,,,,,,,,,,,,,,,,,,,,,,,,,316.15534450009,316.1712014999939,316.6714039000217,316.65473060007207,316.65473060007207,316.65473060007207,316.65473060007207,316.95490280003287,316.95490280003287,316.95490280003287,,317.1223389999941,m,317.1227758000605,317.13832480006386,318.138847000082,318.1226857000729,0.45528959995135665,None,,,,,,,,,,,,,,,,,,,,,,,,,,,,,,,,,,,,,,,,,,,,,,,,,,,,,,,,,,,,,,,,,,,,,,,,,,,,,,,,,,,B_10,001,2024-11-29_12h59.27.841,untitled,2024.1.5,None,2024-11-29 12h59.38.727398 +0530,
triangle.png,you,0,Z,,,,,,,,,21,0,84,3,,,,,,,,,318.138847000082,,,,,,,,,,,,,,,,,,,,,,,,,,,,,,,,,,318.12303980009165,318.138847000082,318.63933050003834,318.62245870009065,318.62245870009065,318.62245870009065,318.62245870009065,318.92252900009044,318.92252900009044,318.92252900009044,,319.10691470000893,z,319.1073422000045,319.12264600000344,320.12334480008576,320.10705120000057,0.47050759999547154,None,,,,,,,,,,,,,,,,,,,,,,,,,,,,,,,,,,,,,,,,,,,,,,,,,,,,,,,,,,,,,,,,,,,,,,,,,,,,,,,,,,,B_10,001,2024-11-29_12h59.27.841,untitled,2024.1.5,None,2024-11-29 12h59.38.727398 +0530,
triangle.png,stranger,1,M,,,,,,,,,21,1,85,1,,,,,,,,,320.12334480008576,,,,,,,,,,,,,,,,,,,,,,,,,,,,,,,,,,320.107419500011,320.12334480008576,320.62371630000416,320.60718839999754,320.60718839999754,320.60718839999754,320.60718839999754,320.90689620003104,320.90689620003104,320.90689620003104,,321.0576233000029,z,321.0580522000091,321.0738196000457,322.07411980000325,322.05792870000005,0.44685979990754277,None,,,,,,,,,,,,,,,,,,,,,,,,,,,,,,,,,,,,,,,,,,,,,,,,,,,,,,,,,,,,,,,,,,,,,,,,,,,,,,,,,,,B_10,001,2024-11-29_12h59.27.841,untitled,2024.1.5,None,2024-11-29 12h59.38.727398 +0530,
square.png,you,1,M,,,,,,,,,21,2,86,0,,,,,,,,,322.07411980000325,,,,,,,,,,,,,,,,,,,,,,,,,,,,,,,,,,322.0582874000538,322.07411980000325,322.5743403000524,322.557741500088,322.557741500088,322.557741500088,322.557741500088,322.85772369999904,322.85772369999904,322.85772369999904,,322.95896560000256,z,322.95940240006894,322.97470340004656,323.975407000049,323.9590641000541,0.38425829994957894,None,,,,,,,,,,,,,,,,,,,,,,,,,,,,,,,,,,,,,,,,,,,,,,,,,,,,,,,,,,,,,,,,,,,,,,,,,,,,,,,,,,,B_10,001,2024-11-29_12h59.27.841,untitled,2024.1.5,None,2024-11-29 12h59.38.727398 +0530,
square.png,stranger,0,Z,,,,,,,,,21,3,87,2,,,,,,,,,323.975407000049,,,,,,,,,,,,,,,,,,,,,,,,,,,,,,,,,,323.9594224001048,323.975407000049,324.4755848000059,324.4590090001002,324.4590090001002,324.4590090001002,324.4590090001002,324.75892600009684,324.75892600009684,324.75892600009684,325.55945210007485,325.5429465000052,None,325.5431434001075,325.55945210007485,326.55994520010427,326.54355980001856,,,,,,,,,,,,,,,,,,,,,,,,,,,,,,,,,,,,,,,,,,,,,,,,,,,,,,,,,,,,,,,,,,,,,,,,,,,,,,,,,,,,,B_10,001,2024-11-29_12h59.27.841,untitled,2024.1.5,None,2024-11-29 12h59.38.727398 +0530,
square.png,stranger,0,Z,,,,,,,,,22,0,88,2,,,,,,,,,326.55994520010427,,,,,,,,,,,,,,,,,,,,,,,,,,,,,,,,,,326.5439258000115,326.55994520010427,327.06049990002066,327.06049990002066,327.06049990002066,327.06049990002066,327.06049990002066,327.3602420000825,327.3602420000825,327.3602420000825,,327.56127590010874,z,327.56170630001,327.57712260005064,328.5777085000882,328.56146760005504,0.4896813000086695,None,,,,,,,,,,,,,,,,,,,,,,,,,,,,,,,,,,,,,,,,,,,,,,,,,,,,,,,,,,,,,,,,,,,,,,,,,,,,,,,,,,,B_10,001,2024-11-29_12h59.27.841,untitled,2024.1.5,None,2024-11-29 12h59.38.727398 +0530,
triangle.png,stranger,1,M,,,,,,,,,22,1,89,1,,,,,,,,,328.5777085000882,,,,,,,,,,,,,,,,,,,,,,,,,,,,,,,,,,328.5618317000335,328.5777085000882,329.0778865000466,329.06106710003223,329.06106710003223,329.06106710003223,329.06106710003223,329.36112750007305,329.36112750007305,329.36112750007305,,329.82893990003504,z,329.8293757000938,329.84469110006467,330.8454064000398,330.8292076000944,0.7526035000337288,None,,,,,,,,,,,,,,,,,,,,,,,,,,,,,,,,,,,,,,,,,,,,,,,,,,,,,,,,,,,,,,,,,,,,,,,,,,,,,,,,,,,B_10,001,2024-11-29_12h59.27.841,untitled,2024.1.5,None,2024-11-29 12h59.38.727398 +0530,
triangle.png,you,0,Z,,,,,,,,,22,2,90,3,,,,,,,,,330.8454064000398,,,,,,,,,,,,,,,,,,,,,,,,,,,,,,,,,,330.8295612001093,330.8454064000398,331.3457587000448,331.32923200004734,331.32923200004734,331.32923200004734,331.32923200004734,331.62901720008813,331.62901720008813,331.62901720008813,,331.6797742000781,m,331.6802163000684,331.6958341000136,332.6962605000008,332.6801467000041,0.3402996000368148,None,,,,,,,,,,,,,,,,,,,,,,,,,,,,,,,,,,,,,,,,,,,,,,,,,,,,,,,,,,,,,,,,,,,,,,,,,,,,,,,,,,,B_10,001,2024-11-29_12h59.27.841,untitled,2024.1.5,None,2024-11-29 12h59.38.727398 +0530,
square.png,you,1,M,,,,,,,,,22,3,91,0,,,,,,,,,332.6962605000008,,,,,,,,,,,,,,,,,,,,,,,,,,,,,,,,,,332.68050050002057,332.6962605000008,333.19669680006336,333.1799319999991,333.1799319999991,333.1799319999991,333.1799319999991,333.48021040007006,333.48021040007006,333.48021040007006,,333.5975543000968,m,333.5979844999965,333.6136406000005,334.6139902001014,334.5979367000982,0.40604499995242804,None,,,,,,,,,,,,,,,,,,,,,,,,,,,,,,,,,,,,,,,,,,,,,,,,,,,,,,,,,,,,,,,,,,,,,,,,,,,,,,,,,,,B_10,001,2024-11-29_12h59.27.841,untitled,2024.1.5,None,2024-11-29 12h59.38.727398 +0530,
square.png,stranger,0,Z,,,,,,,,,23,0,92,2,,,,,,,,,334.6139902001014,,,,,,,,,,,,,,,,,,,,,,,,,,,,,,,,,,334.59829670004547,334.6139902001014,335.1141878000926,335.09762200003024,335.09762200003024,335.09762200003024,335.09762200003024,335.3976614000276,335.3976614000276,335.3976614000276,,335.64864460006356,z,335.6490810000105,335.6646307000192,336.6652824000921,336.64892200008035,0.5406026000855491,None,,,,,,,,,,,,,,,,,,,,,,,,,,,,,,,,,,,,,,,,,,,,,,,,,,,,,,,,,,,,,,,,,,,,,,,,,,,,,,,,,,,B_10,001,2024-11-29_12h59.27.841,untitled,2024.1.5,None,2024-11-29 12h59.38.727398 +0530,
square.png,you,1,M,,,,,,,,,23,1,93,0,,,,,,,,,336.6652824000921,,,,,,,,,,,,,,,,,,,,,,,,,,,,,,,,,,336.6492861000588,336.6652824000921,337.1653551000636,337.14884130004793,337.14884130004793,337.14884130004793,337.14884130004793,337.4487989000045,337.4487989000045,337.4487989000045,,337.4995106999995,z,337.4999415000202,337.5155914000934,338.51581060001627,338.4997023000615,0.3400021999841556,None,,,,,,,,,,,,,,,,,,,,,,,,,,,,,,,,,,,,,,,,,,,,,,,,,,,,,,,,,,,,,,,,,,,,,,,,,,,,,,,,,,,B_10,001,2024-11-29_12h59.27.841,untitled,2024.1.5,None,2024-11-29 12h59.38.727398 +0530,
triangle.png,stranger,1,M,,,,,,,,,23,2,94,1,,,,,,,,,338.51581060001627,,,,,,,,,,,,,,,,,,,,,,,,,,,,,,,,,,338.50005550007336,338.51581060001627,339.0162162000779,338.99968270002864,338.99968270002864,338.99968270002864,338.99968270002864,339.2995329000987,339.2995329000987,339.2995329000987,340.1001833000919,340.08370870002545,None,340.08390690002125,340.1001833000919,341.10081259999424,341.08438630006276,,,,,,,,,,,,,,,,,,,,,,,,,,,,,,,,,,,,,,,,,,,,,,,,,,,,,,,,,,,,,,,,,,,,,,,,,,,,,,,,,,,,,B_10,001,2024-11-29_12h59.27.841,untitled,2024.1.5,None,2024-11-29 12h59.38.727398 +0530,
triangle.png,you,0,Z,,,,,,,,,23,3,95,3,,,,,,,,,341.10081259999424,,,,,,,,,,,,,,,,,,,,,,,,,,,,,,,,,,341.0847451000009,341.10081259999424,341.60093519999646,341.60093519999646,341.60093519999646,341.60093519999646,341.60093519999646,341.90103810001165,341.90103810001165,341.90103810001165,,342.00178740010597,m,342.0022256000666,342.01783360005356,343.01830560003873,343.0019995000912,0.39663149998523295,None,,,,,,,,,,,,,,,,,,,,,,,,,,,,,,,,,,,,,,,,,,,,,,,,,,,,,,,,,,,,,,,,,,,,,,,,,,,,,,,,,,,B_10,001,2024-11-29_12h59.27.841,untitled,2024.1.5,None,2024-11-29 12h59.38.727398 +0530,
triangle.png,you,0,Z,,,,,,,,,24,0,96,3,,,,,,,,,343.01830560003873,,,,,,,,,,,,,,,,,,,,,,,,,,,,,,,,,,343.0023521000985,343.01830560003873,343.51855320006143,343.5022528000409,343.5022528000409,343.5022528000409,343.5022528000409,343.8019588000607,343.8019588000607,343.8019588000607,,343.88619440002367,m,343.88662860007025,343.9019989001099,344.90260600007605,344.8861741001019,0.37174650002270937,None,,,,,,,,,,,,,,,,,,,,,,,,,,,,,,,,,,,,,,,,,,,,,,,,,,,,,,,,,,,,,,,,,,,,,,,,,,,,,,,,,,,B_10,001,2024-11-29_12h59.27.841,untitled,2024.1.5,None,2024-11-29 12h59.38.727398 +0530,
square.png,you,1,M,,,,,,,,,24,1,97,0,,,,,,,,,344.90260600007605,,,,,,,,,,,,,,,,,,,,,,,,,,,,,,,,,,344.8865361000644,344.90260600007605,345.4028079001,345.38622370001394,345.38622370001394,345.38622370001394,345.38622370001394,345.6863246000139,345.6863246000139,345.6863246000139,,345.7704277000157,z,345.7708697000053,345.7863757000305,346.7870724000968,346.7706828000955,0.3798229000531137,None,,,,,,,,,,,,,,,,,,,,,,,,,,,,,,,,,,,,,,,,,,,,,,,,,,,,,,,,,,,,,,,,,,,,,,,,,,,,,,,,,,,B_10,001,2024-11-29_12h59.27.841,untitled,2024.1.5,None,2024-11-29 12h59.38.727398 +0530,
square.png,stranger,0,Z,,,,,,,,,24,2,98,2,,,,,,,,,346.7870724000968,,,,,,,,,,,,,,,,,,,,,,,,,,,,,,,,,,346.7710451000603,346.7870724000968,347.2874289000174,347.27076660003513,347.27076660003513,347.27076660003513,347.27076660003513,347.5706998000387,347.5706998000387,347.5706998000387,348.3710687001003,348.354778500041,None,348.35497580002993,348.3710687001003,349.3714519001078,349.3553735000314,,,,,,,,,,,,,,,,,,,,,,,,,,,,,,,,,,,,,,,,,,,,,,,,,,,,,,,,,,,,,,,,,,,,,,,,,,,,,,,,,,,,,B_10,001,2024-11-29_12h59.27.841,untitled,2024.1.5,None,2024-11-29 12h59.38.727398 +0530,
triangle.png,stranger,1,M,,,,,,,,,24,3,99,1,,,,,,,,,349.3714519001078,,,,,,,,,,,,,,,,,,,,,,,,,,,,,,,,,,349.35573520010803,349.3714519001078,349.87184760009404,349.87184760009404,349.87184760009404,349.87184760009404,349.87184760009404,350.1719526000088,350.1719526000088,350.1719526000088,,350.3057447000174,z,350.306176800048,350.3221119000809,351.3228659000015,351.3064945000224,0.4184605999616906,None,,,,,,,,,,,,,,,,,,,,,,,,,,,,,,,,,,,,,,,,,,,,,,,,,,,,,,,,,,,,,,,,,,,,,,,,,,,,,,,,,,,B_10,001,2024-11-29_12h59.27.841,untitled,2024.1.5,None,2024-11-29 12h59.38.727398 +0530,
triangle.png,stranger,1,M,,,,,,,,,25,0,100,1,,,,,,,,,351.3228659000015,,,,,,,,,,,,,,,,,,,,,,,,,,,,,,,,,,351.30685270007234,351.3228659000015,351.82283160008956,351.80651300004683,351.80651300004683,351.80651300004683,351.80651300004683,352.1062082001008,352.1062082001008,352.1062082001008,352.9065419000108,352.8902701000916,None,352.89046550006606,352.9065419000108,353.9071594000561,353.89095350005664,,,,,,,,,,,,,,,,,,,,,,,,,,,,,,,,,,,,,,,,,,,,,,,,,,,,,,,,,,,,,,,,,,,,,,,,,,,,,,,,,,,,,B_10,001,2024-11-29_12h59.27.841,untitled,2024.1.5,None,2024-11-29 12h59.38.727398 +0530,
square.png,stranger,0,Z,,,,,,,,,25,1,101,2,,,,,,,,,353.9071594000561,,,,,,,,,,,,,,,,,,,,,,,,,,,,,,,,,,353.8913145000115,353.9071594000561,354.4073985000141,354.4073985000141,354.4073985000141,354.4073985000141,354.4073985000141,354.70762020000257,354.70762020000257,354.70762020000257,,354.9918147000717,m,354.9922626001062,355.0077717000386,356.0083338000113,355.9918889000546,0.5775364000583068,None,,,,,,,,,,,,,,,,,,,,,,,,,,,,,,,,,,,,,,,,,,,,,,,,,,,,,,,,,,,,,,,,,,,,,,,,,,,,,,,,,,,B_10,001,2024-11-29_12h59.27.841,untitled,2024.1.5,None,2024-11-29 12h59.38.727398 +0530,
square.png,you,1,M,,,,,,,,,25,2,102,0,,,,,,,,,356.0083338000113,,,,,,,,,,,,,,,,,,,,,,,,,,,,,,,,,,355.9922558000544,356.0083338000113,356.508660600055,356.49180660001,356.49180660001,356.49180660001,356.49180660001,356.79196790000424,356.79196790000424,356.79196790000424,357.59247640008107,357.5759921000572,None,357.5761884000385,357.59247640008107,358.5930514000356,358.5766599000199,,,,,,,,,,,,,,,,,,,,,,,,,,,,,,,,,,,,,,,,,,,,,,,,,,,,,,,,,,,,,,,,,,,,,,,,,,,,,,,,,,,,,B_10,001,2024-11-29_12h59.27.841,untitled,2024.1.5,None,2024-11-29 12h59.38.727398 +0530,
triangle.png,you,0,Z,,,,,,,,,25,3,103,3,,,,,,,,,358.5930514000356,,,,,,,,,,,,,,,,,,,,,,,,,,,,,,,,,,358.577017200063,358.5930514000356,359.0935283000581,359.0935283000581,359.0935283000581,359.0935283000581,359.0935283000581,359.3933455001097,359.3933455001097,359.3933455001097,,359.51078100001905,z,359.51122390001547,359.5268758001039,360.52719849999994,360.5109454001067,0.41573879995848984,None,,,,,,,,,,,,,,,,,,,,,,,,,,,,,,,,,,,,,,,,,,,,,,,,,,,,,,,,,,,,,,,,,,,,,,,,,,,,,,,,,,,B_10,001,2024-11-29_12h59.27.841,untitled,2024.1.5,None,2024-11-29 12h59.38.727398 +0530,
triangle.png,you,0,Z,,,,,,,,,26,0,104,3,,,,,,,,,360.52719849999994,,,,,,,,,,,,,,,,,,,,,,,,,,,,,,,,,,360.51130420004483,360.52719849999994,361.02745340007823,361.01106740010437,361.01106740010437,361.01106740010437,361.01106740010437,361.3108838000335,361.3108838000335,361.3108838000335,,361.4285002000397,z,361.42893580009695,361.4445795000065,362.44481180002913,362.4286857000552,0.40741979994345456,None,,,,,,,,,,,,,,,,,,,,,,,,,,,,,,,,,,,,,,,,,,,,,,,,,,,,,,,,,,,,,,,,,,,,,,,,,,,,,,,,,,,B_10,001,2024-11-29_12h59.27.841,untitled,2024.1.5,None,2024-11-29 12h59.38.727398 +0530,
triangle.png,stranger,1,M,,,,,,,,,26,1,105,1,,,,,,,,,362.44481180002913,,,,,,,,,,,,,,,,,,,,,,,,,,,,,,,,,,362.42904550000094,362.44481180002913,362.9452075000154,362.92858860001434,362.92858860001434,362.92858860001434,362.92858860001434,363.22867670003325,363.22867670003325,363.22867670003325,,363.3627749000443,z,363.36321179999504,363.3789037000388,364.379395200056,364.3630963000469,0.428972200024873,None,,,,,,,,,,,,,,,,,,,,,,,,,,,,,,,,,,,,,,,,,,,,,,,,,,,,,,,,,,,,,,,,,,,,,,,,,,,,,,,,,,,B_10,001,2024-11-29_12h59.27.841,untitled,2024.1.5,None,2024-11-29 12h59.38.727398 +0530,
square.png,you,1,M,,,,,,,,,26,2,106,0,,,,,,,,,364.379395200056,,,,,,,,,,,,,,,,,,,,,,,,,,,,,,,,,,364.3634984000819,364.379395200056,364.87968310003635,364.8629100000253,364.8629100000253,364.8629100000253,364.8629100000253,365.1631947000278,365.1631947000278,365.1631947000278,,365.1639575000154,m,365.16438450000715,365.17982499999925,366.18031250010245,366.16413690010086,0.2988948000129312,None,,,,,,,,,,,,,,,,,,,,,,,,,,,,,,,,,,,,,,,,,,,,,,,,,,,,,,,,,,,,,,,,,,,,,,,,,,,,,,,,,,,B_10,001,2024-11-29_12h59.27.841,untitled,2024.1.5,None,2024-11-29 12h59.38.727398 +0530,
square.png,stranger,0,Z,,,,,,,,,26,3,107,2,,,,,,,,,366.18031250010245,,,,,,,,,,,,,,,,,,,,,,,,,,,,,,,,,,366.16449550003745,366.18031250010245,366.6804164000787,366.6640876000747,366.6640876000747,366.6640876000747,366.6640876000747,366.96395470004063,366.96395470004063,366.96395470004063,,367.1647651999956,z,367.1651973000262,367.1807661000639,368.1813835001085,368.16518140002154,0.49277729995083064,None,,,,,,,,,,,,,,,,,,,,,,,,,,,,,,,,,,,,,,,,,,,,,,,,,,,,,,,,,,,,,,,,,,,,,,,,,,,,,,,,,,,B_10,001,2024-11-29_12h59.27.841,untitled,2024.1.5,None,2024-11-29 12h59.38.727398 +0530,
square.png,you,1,M,,,,,,,,,27,0,108,0,,,,,,,,,368.1813835001085,,,,,,,,,,,,,,,,,,,,,,,,,,,,,,,,,,368.1655375000555,368.1813835001085,368.68168630008586,368.6650206000777,368.6650206000777,368.6650206000777,368.6650206000777,368.9650534000248,368.9650534000248,368.9650534000248,,369.08227950008586,m,369.0827185000526,369.09833320009056,370.0989008001052,370.0824297000654,0.4091368999797851,None,,,,,,,,,,,,,,,,,,,,,,,,,,,,,,,,,,,,,,,,,,,,,,,,,,,,,,,,,,,,,,,,,,,,,,,,,,,,,,,,,,,B_10,001,2024-11-29_12h59.27.841,untitled,2024.1.5,None,2024-11-29 12h59.38.727398 +0530,
square.png,stranger,0,Z,,,,,,,,,27,1,109,2,,,,,,,,,370.0989008001052,,,,,,,,,,,,,,,,,,,,,,,,,,,,,,,,,,370.0827901000157,370.0989008001052,370.599283699994,370.5826264000498,370.5826264000498,370.5826264000498,370.5826264000498,370.8824855000712,370.8824855000712,370.8824855000712,,371.0834759999998,m,371.0839047000045,371.0996065000072,372.100136400084,372.0838146000169,0.48763440002221614,None,,,,,,,,,,,,,,,,,,,,,,,,,,,,,,,,,,,,,,,,,,,,,,,,,,,,,,,,,,,,,,,,,,,,,,,,,,,,,,,,,,,B_10,001,2024-11-29_12h59.27.841,untitled,2024.1.5,None,2024-11-29 12h59.38.727398 +0530,
triangle.png,stranger,1,M,,,,,,,,,27,2,110,1,,,,,,,,,372.100136400084,,,,,,,,,,,,,,,,,,,,,,,,,,,,,,,,,,372.08417050004937,372.100136400084,372.60026800003834,372.5836879000999,372.5836879000999,372.5836879000999,372.5836879000999,372.8838159000734,372.8838159000734,372.8838159000734,,373.06773050001357,z,373.06823070009705,373.0837526000105,374.0844212000957,374.0681235000957,0.47719090001191944,None,,,,,,,,,,,,,,,,,,,,,,,,,,,,,,,,,,,,,,,,,,,,,,,,,,,,,,,,,,,,,,,,,,,,,,,,,,,,,,,,,,,B_10,001,2024-11-29_12h59.27.841,untitled,2024.1.5,None,2024-11-29 12h59.38.727398 +0530,
triangle.png,you,0,Z,,,,,,,,,27,3,111,3,,,,,,,,,374.0844212000957,,,,,,,,,,,,,,,,,,,,,,,,,,,,,,,,,,374.06847830000333,374.0844212000957,374.584533700021,374.56800220010336,374.56800220010336,374.56800220010336,374.56800220010336,374.86796620010864,374.86796620010864,374.86796620010864,,374.90192470001057,m,374.9023609000724,374.9178249000106,375.9184927000897,375.9024656000547,0.32185910001862794,None,,,,,,,,,,,,,,,,,,,,,,,,,,,,,,,,,,,,,,,,,,,,,,,,,,,,,,,,,,,,,,,,,,,,,,,,,,,,,,,,,,,B_10,001,2024-11-29_12h59.27.841,untitled,2024.1.5,None,2024-11-29 12h59.38.727398 +0530,
square.png,stranger,0,Z,,,,,,,,,28,0,112,2,,,,,,,,,375.9184927000897,,,,,,,,,,,,,,,,,,,,,,,,,,,,,,,,,,375.90282670001034,375.9184927000897,376.4189212000929,376.4022832000628,376.4022832000628,376.4022832000628,376.4022832000628,,,,,376.6530291000381,z,376.65348000009544,376.66876760008745,377.6693664001068,377.6530612000497,0.24758580001071095,None,,,,,,,,,,,,,,,,,,,,,,,,,,,,,,,,,,,,,,,,,,,,,,,,,,,,,,,,,,,,,,,,,,,,,,,,,,,,,,,,,,,B_10,001,2024-11-29_12h59.27.841,untitled,2024.1.5,None,2024-11-29 12h59.38.727398 +0530,
triangle.png,you,0,Z,,,,,,,,,28,1,113,3,,,,,,,,,377.6693664001068,,,,,,,,,,,,,,,,,,,,,,,,,,,,,,,,,,377.653418000089,377.6693664001068,378.16961900005117,378.15333950007334,378.15333950007334,378.15333950007334,378.15333950007334,378.452975400025,378.452975400025,378.452975400025,,378.4537602000637,m,378.45420850010123,378.4698116000509,379.47052970004734,379.45409620006103,0.29683160001877695,None,,,,,,,,,,,,,,,,,,,,,,,,,,,,,,,,,,,,,,,,,,,,,,,,,,,,,,,,,,,,,,,,,,,,,,,,,,,,,,,,,,,B_10,001,2024-11-29_12h59.27.841,untitled,2024.1.5,None,2024-11-29 12h59.38.727398 +0530,
square.png,you,1,M,,,,,,,,,28,2,114,0,,,,,,,,,379.47052970004734,,,,,,,,,,,,,,,,,,,,,,,,,,,,,,,,,,379.45446200005244,379.47052970004734,379.97086500003934,379.95390080008656,379.95390080008656,379.95390080008656,379.95390080008656,380.25420080008917,380.25420080008917,380.25420080008917,,380.3881795000052,m,380.38861670007464,380.40409880003426,381.4046598999994,381.38825700001325,0.420523599954322,None,,,,,,,,,,,,,,,,,,,,,,,,,,,,,,,,,,,,,,,,,,,,,,,,,,,,,,,,,,,,,,,,,,,,,,,,,,,,,,,,,,,B_10,001,2024-11-29_12h59.27.841,untitled,2024.1.5,None,2024-11-29 12h59.38.727398 +0530,
triangle.png,stranger,1,M,,,,,,,,,28,3,115,1,,,,,,,,,381.4046598999994,,,,,,,,,,,,,,,,,,,,,,,,,,,,,,,,,,381.38862080010585,381.4046598999994,381.90507219999563,381.8886598000536,381.8886598000536,381.8886598000536,381.8886598000536,382.1884821000276,382.1884821000276,382.1884821000276,,382.2058362000389,z,382.2062888001092,382.2221360000549,383.2224309000885,383.20611860009376,0.30815139994956553,None,,,,,,,,,,,,,,,,,,,,,,,,,,,,,,,,,,,,,,,,,,,,,,,,,,,,,,,,,,,,,,,,,,,,,,,,,,,,,,,,,,,B_10,001,2024-11-29_12h59.27.841,untitled,2024.1.5,None,2024-11-29 12h59.38.727398 +0530,
square.png,stranger,0,Z,,,,,,,,,29,0,116,2,,,,,,,,,383.2224309000885,,,,,,,,,,,,,,,,,,,,,,,,,,,,,,,,,,383.2064758000197,383.2224309000885,383.7224503000034,383.70582370006014,383.70582370006014,383.70582370006014,383.70582370006014,384.00610560004134,384.00610560004134,384.00610560004134,,384.05670960003044,m,384.05714690010063,384.0728573000524,385.0732296000933,385.056830800022,0.3444506999803707,None,,,,,,,,,,,,,,,,,,,,,,,,,,,,,,,,,,,,,,,,,,,,,,,,,,,,,,,,,,,,,,,,,,,,,,,,,,,,,,,,,,,B_10,001,2024-11-29_12h59.27.841,untitled,2024.1.5,None,2024-11-29 12h59.38.727398 +0530,
triangle.png,stranger,1,M,,,,,,,,,29,1,117,1,,,,,,,,,385.0732296000933,,,,,,,,,,,,,,,,,,,,,,,,,,,,,,,,,,385.0571887000697,385.0732296000933,385.5734876000788,385.5571819000179,385.5571819000179,385.5571819000179,385.5571819000179,385.857067200006,385.857067200006,385.857067200006,,385.9743304000003,z,385.9747574001085,385.9905215000035,386.99112010002136,386.97454120009206,0.40360460011288524,None,,,,,,,,,,,,,,,,,,,,,,,,,,,,,,,,,,,,,,,,,,,,,,,,,,,,,,,,,,,,,,,,,,,,,,,,,,,,,,,,,,,B_10,001,2024-11-29_12h59.27.841,untitled,2024.1.5,None,2024-11-29 12h59.38.727398 +0530,
triangle.png,you,0,Z,,,,,,,,,29,2,118,3,,,,,,,,,386.99112010002136,,,,,,,,,,,,,,,,,,,,,,,,,,,,,,,,,,386.9748925000895,386.99112010002136,387.4911433000816,387.47450680006295,387.47450680006295,387.47450680006295,387.47450680006295,387.77453830000013,387.77453830000013,387.77453830000013,,387.9421115000732,m,387.94254530000035,387.95826530002523,388.9588442000095,388.9424398000119,0.4600234000245109,None,,,,,,,,,,,,,,,,,,,,,,,,,,,,,,,,,,,,,,,,,,,,,,,,,,,,,,,,,,,,,,,,,,,,,,,,,,,,,,,,,,,B_10,001,2024-11-29_12h59.27.841,untitled,2024.1.5,None,2024-11-29 12h59.38.727398 +0530,
square.png,you,1,M,,,,,,,,,29,3,119,0,,,,,,,,,388.9588442000095,,,,,,,,,,,,,,,,,,,,,,,,,,,,,,,,,,388.9427922000177,388.9588442000095,389.4589940001024,389.44222339999396,389.44222339999396,389.44222339999396,389.44222339999396,389.7421808000654,389.7421808000654,389.7421808000654,,389.8431940000737,z,389.84363110002596,389.85918420006055,390.8594602000667,390.84331520006526,0.38762839999981225,None,,,,,,,,,,,,,,,,,,,,,,,,,,,,,,,,,,,,,,,,,,,,,,,,,,,,,,,,,,,,,,,,,,,,,,,,,,,,,,,,,,,B_10,001,2024-11-29_12h59.27.841,untitled,2024.1.5,None,2024-11-29 12h59.38.727398 +0530,
square.png,you,1,M,,,,,,,,,30,0,120,0,,,,,,,,,390.8594602000667,,,,,,,,,,,,,,,,,,,,,,,,,,,,,,,,,,390.8436711000977,390.8594602000667,391.3598738000728,391.34313750010915,391.34313750010915,391.34313750010915,391.34313750010915,391.6433140001027,391.6433140001027,391.6433140001027,,391.7943160000723,z,391.79475310002454,391.8099542000564,392.8105642000446,392.79429250000976,0.44571369991172105,None,,,,,,,,,,,,,,,,,,,,,,,,,,,,,,,,,,,,,,,,,,,,,,,,,,,,,,,,,,,,,,,,,,,,,,,,,,,,,,,,,,,B_10,001,2024-11-29_12h59.27.841,untitled,2024.1.5,None,2024-11-29 12h59.38.727398 +0530,
triangle.png,stranger,1,M,,,,,,,,,30,1,121,1,,,,,,,,,392.8105642000446,,,,,,,,,,,,,,,,,,,,,,,,,,,,,,,,,,392.79465060005896,392.8105642000446,393.31090590008534,393.2943692000117,393.2943692000117,393.2943692000117,393.2943692000117,393.5942431000294,393.5942431000294,393.5942431000294,,393.69521770009305,z,393.6956474001054,393.7108990000561,394.7114508000668,394.6951803000411,0.3881519999122247,None,,,,,,,,,,,,,,,,,,,,,,,,,,,,,,,,,,,,,,,,,,,,,,,,,,,,,,,,,,,,,,,,,,,,,,,,,,,,,,,,,,,B_10,001,2024-11-29_12h59.27.841,untitled,2024.1.5,None,2024-11-29 12h59.38.727398 +0530,
triangle.png,you,0,Z,,,,,,,,,30,2,122,3,,,,,,,,,394.7114508000668,,,,,,,,,,,,,,,,,,,,,,,,,,,,,,,,,,394.69554129999597,394.7114508000668,395.21197230007965,395.1951593999984,395.1951593999984,395.1951593999984,395.1951593999984,395.49524630000815,395.49524630000815,395.49524630000815,,395.5626405000221,m,395.56308280001394,395.57872850005515,396.579068900086,396.5630963000003,0.3628804999170825,None,,,,,,,,,,,,,,,,,,,,,,,,,,,,,,,,,,,,,,,,,,,,,,,,,,,,,,,,,,,,,,,,,,,,,,,,,,,,,,,,,,,B_10,001,2024-11-29_12h59.27.841,untitled,2024.1.5,None,2024-11-29 12h59.38.727398 +0530,
square.png,stranger,0,Z,,,,,,,,,30,3,123,2,,,,,,,,,396.579068900086,,,,,,,,,,,,,,,,,,,,,,,,,,,,,,,,,,396.5634511000244,396.579068900086,397.07941460004076,397.063140100101,397.063140100101,397.063140100101,397.063140100101,397.36287830001675,397.36287830001675,397.36287830001675,,397.48026240000036,m,397.4807091000257,397.4963375000516,398.49673350004014,398.4805120000383,0.41057639999780804,None,,,,,,,,,,,,,,,,,,,,,,,,,,,,,,,,,,,,,,,,,,,,,,,,,,,,,,,,,,,,,,,,,,,,,,,,,,,,,,,,,,,B_10,001,2024-11-29_12h59.27.841,untitled,2024.1.5,None,2024-11-29 12h59.38.727398 +0530,
square.png,you,1,M,,,,,,,,,31,0,124,0,,,,,,,,,398.49673350004014,,,,,,,,,,,,,,,,,,,,,,,,,,,,,,,,,,398.48087430000305,398.49673350004014,398.99710500007495,398.9803966000909,398.9803966000909,398.9803966000909,398.9803966000909,399.280600600061,399.280600600061,399.280600600061,,399.39799830003176,m,399.3984432000434,399.41378430009354,400.41470820002723,400.39811790001113,0.4006367999827489,None,,,,,,,,,,,,,,,,,,,,,,,,,,,,,,,,,,,,,,,,,,,,,,,,,,,,,,,,,,,,,,,,,,,,,,,,,,,,,,,,,,,B_10,001,2024-11-29_12h59.27.841,untitled,2024.1.5,None,2024-11-29 12h59.38.727398 +0530,
triangle.png,you,0,Z,,,,,,,,,31,1,125,3,,,,,,,,,400.41470820002723,,,,,,,,,,,,,,,,,,,,,,,,,,,,,,,,,,400.398483099998,400.41470820002723,400.91462720010895,400.898000300047,400.898000300047,400.898000300047,400.898000300047,401.1982273000758,401.1982273000758,401.1982273000758,401.9985750000924,401.9823433000129,None,401.9825437000254,401.9985750000924,402.999085700023,402.98291490005795,,,,,,,,,,,,,,,,,,,,,,,,,,,,,,,,,,,,,,,,,,,,,,,,,,,,,,,,,,,,,,,,,,,,,,,,,,,,,,,,,,,,,B_10,001,2024-11-29_12h59.27.841,untitled,2024.1.5,None,2024-11-29 12h59.38.727398 +0530,
square.png,stranger,0,Z,,,,,,,,,31,2,126,2,,,,,,,,,402.999085700023,,,,,,,,,,,,,,,,,,,,,,,,,,,,,,,,,,402.9832764000166,402.999085700023,403.49943770002574,403.49943770002574,403.49943770002574,403.49943770002574,403.49943770002574,403.7994670000626,403.7994670000626,403.7994670000626,,404.017037600046,z,404.01746880006976,404.03286999999546,405.0334014000837,405.0171709000133,0.5024934000102803,None,,,,,,,,,,,,,,,,,,,,,,,,,,,,,,,,,,,,,,,,,,,,,,,,,,,,,,,,,,,,,,,,,,,,,,,,,,,,,,,,,,,B_10,001,2024-11-29_12h59.27.841,untitled,2024.1.5,None,2024-11-29 12h59.38.727398 +0530,
triangle.png,stranger,1,M,,,,,,,,,31,3,127,1,,,,,,,,,405.0334014000837,,,,,,,,,,,,,,,,,,,,,,,,,,,,,,,,,,405.01754200004507,405.0334014000837,405.5338562000543,405.51731620007195,405.51731620007195,405.51731620007195,405.51731620007195,405.8172627000604,405.8172627000604,405.8172627000604,,405.9678946000058,m,405.96835350000765,405.98395240004174,406.9844144000672,406.9682791000232,0.4491723000537604,None,,,,,,,,,,,,,,,,,,,,,,,,,,,,,,,,,,,,,,,,,,,,,,,,,,,,,,,,,,,,,,,,,,,,,,,,,,,,,,,,,,,B_10,001,2024-11-29_12h59.27.841,untitled,2024.1.5,None,2024-11-29 12h59.38.727398 +0530,
triangle.png,stranger,1,M,,,,,,,,,32,0,128,1,,,,,,,,,406.9844144000672,,,,,,,,,,,,,,,,,,,,,,,,,,,,,,,,,,406.9686286000069,406.9844144000672,407.4849222000921,407.4681383999996,407.4681383999996,407.4681383999996,407.4681383999996,407.76832830009516,407.76832830009516,407.76832830009516,,407.9023811999941,m,407.9028152000392,407.91825190000236,408.9187957000686,408.9028216000879,0.41836959996726364,None,,,,,,,,,,,,,,,,,,,,,,,,,,,,,,,,,,,,,,,,,,,,,,,,,,,,,,,,,,,,,,,,,,,,,,,,,,,,,,,,,,,B_10,001,2024-11-29_12h59.27.841,untitled,2024.1.5,None,2024-11-29 12h59.38.727398 +0530,
triangle.png,you,0,Z,,,,,,,,,32,1,129,3,,,,,,,,,408.9187957000686,,,,,,,,,,,,,,,,,,,,,,,,,,,,,,,,,,408.903246800066,408.9187957000686,409.41917400003877,409.4025963000022,409.4025963000022,409.4025963000022,409.4025963000022,409.70256190001965,409.70256190001965,409.70256190001965,,410.0535781000508,z,410.05400540004484,410.0693376000272,411.0702093000291,411.05371350003406,0.6347837999928743,None,,,,,,,,,,,,,,,,,,,,,,,,,,,,,,,,,,,,,,,,,,,,,,,,,,,,,,,,,,,,,,,,,,,,,,,,,,,,,,,,,,,B_10,001,2024-11-29_12h59.27.841,untitled,2024.1.5,None,2024-11-29 12h59.38.727398 +0530,
square.png,stranger,0,Z,,,,,,,,,32,2,130,2,,,,,,,,,411.0702093000291,,,,,,,,,,,,,,,,,,,,,,,,,,,,,,,,,,411.05407110007945,411.0702093000291,411.5704016000964,411.55351980007254,411.55351980007254,411.55351980007254,411.55351980007254,411.8536750000203,411.8536750000203,411.8536750000203,,411.9210554000456,m,411.9215073999949,411.937004800071,412.93777770001907,412.92138980003074,0.360954099916853,None,,,,,,,,,,,,,,,,,,,,,,,,,,,,,,,,,,,,,,,,,,,,,,,,,,,,,,,,,,,,,,,,,,,,,,,,,,,,,,,,,,,B_10,001,2024-11-29_12h59.27.841,untitled,2024.1.5,None,2024-11-29 12h59.38.727398 +0530,
square.png,you,1,M,,,,,,,,,32,3,131,0,,,,,,,,,412.93777770001907,,,,,,,,,,,,,,,,,,,,,,,,,,,,,,,,,,412.9217498000944,412.93777770001907,413.43804870010354,413.4212655000156,413.4212655000156,413.4212655000156,413.4212655000156,413.7212542000925,413.7212542000925,413.7212542000925,,413.85539340006653,z,413.85582720011007,413.8713424000889,414.87204320007004,414.85561100009363,0.4250232999911532,None,,,,,,,,,,,,,,,,,,,,,,,,,,,,,,,,,,,,,,,,,,,,,,,,,,,,,,,,,,,,,,,,,,,,,,,,,,,,,,,,,,,B_10,001,2024-11-29_12h59.27.841,untitled,2024.1.5,None,2024-11-29 12h59.38.727398 +0530,
square.png,you,1,M,,,,,,,,,33,0,132,0,,,,,,,,,414.87204320007004,,,,,,,,,,,,,,,,,,,,,,,,,,,,,,,,,,414.85597780009266,414.87204320007004,415.3722394000506,415.3556255000876,415.3556255000876,415.3556255000876,415.3556255000876,415.65552470006514,415.65552470006514,415.65552470006514,,415.7063061000081,m,415.70680939999875,415.7221621000208,416.7226850000443,416.70662539999466,0.34662540000863373,None,,,,,,,,,,,,,,,,,,,,,,,,,,,,,,,,,,,,,,,,,,,,,,,,,,,,,,,,,,,,,,,,,,,,,,,,,,,,,,,,,,,B_10,001,2024-11-29_12h59.27.841,untitled,2024.1.5,None,2024-11-29 12h59.38.727398 +0530,
square.png,stranger,0,Z,,,,,,,,,33,1,133,2,,,,,,,,,416.7226850000443,,,,,,,,,,,,,,,,,,,,,,,,,,,,,,,,,,416.70699030009564,416.7226850000443,417.22329980006907,417.2066075000912,417.2066075000912,417.2066075000912,417.2066075000912,,,,,417.2743454000447,z,417.27480710006785,417.2901533000404,418.2904897000408,418.2743462000508,0.054473500000312924,None,,,,,,,,,,,,,,,,,,,,,,,,,,,,,,,,,,,,,,,,,,,,,,,,,,,,,,,,,,,,,,,,,,,,,,,,,,,,,,,,,,,B_10,001,2024-11-29_12h59.27.841,untitled,2024.1.5,None,2024-11-29 12h59.38.727398 +0530,
triangle.png,stranger,1,M,,,,,,,,,33,2,134,1,,,,,,,,,418.2904897000408,,,,,,,,,,,,,,,,,,,,,,,,,,,,,,,,,,418.27495710004587,418.2904897000408,418.79082660004497,418.77427880000323,418.77427880000323,418.77427880000323,418.77427880000323,419.0740024000406,419.0740024000406,419.0740024000406,,419.17485950002447,m,419.1753144999966,419.1907600000268,420.1915455000708,420.1750833000988,0.3987202999414876,None,,,,,,,,,,,,,,,,,,,,,,,,,,,,,,,,,,,,,,,,,,,,,,,,,,,,,,,,,,,,,,,,,,,,,,,,,,,,,,,,,,,B_10,001,2024-11-29_12h59.27.841,untitled,2024.1.5,None,2024-11-29 12h59.38.727398 +0530,
triangle.png,you,0,Z,,,,,,,,,33,3,135,3,,,,,,,,,420.1915455000708,,,,,,,,,,,,,,,,,,,,,,,,,,,,,,,,,,420.175561800017,420.1915455000708,420.691884900094,420.67494620010257,420.67494620010257,420.67494620010257,420.67494620010257,,,,,420.8424533000216,z,420.8428964000195,420.8582793000387,421.85866550006904,421.84234289999586,0.15547439991496503,None,,,,,,,,,,,,,,,,,,,,,,,,,,,,,,,,,,,,,,,,,,,,,,,,,,,,,,,,,,,,,,,,,,,,,,,,,,,,,,,,,,,B_10,001,2024-11-29_12h59.27.841,untitled,2024.1.5,None,2024-11-29 12h59.38.727398 +0530,
triangle.png,stranger,1,M,,,,,,,,,34,0,136,1,,,,,,,,,421.85866550006904,,,,,,,,,,,,,,,,,,,,,,,,,,,,,,,,,,421.8427037000656,421.85866550006904,422.359204800101,422.3425762000261,422.3425762000261,422.3425762000261,422.3425762000261,422.6425870000385,422.6425870000385,422.6425870000385,,422.79334070009645,m,422.79376790008973,422.8095086000394,423.80993050010875,423.7937651000684,0.4470885000191629,None,,,,,,,,,,,,,,,,,,,,,,,,,,,,,,,,,,,,,,,,,,,,,,,,,,,,,,,,,,,,,,,,,,,,,,,,,,,,,,,,,,,B_10,001,2024-11-29_12h59.27.841,untitled,2024.1.5,None,2024-11-29 12h59.38.727398 +0530,
square.png,stranger,0,Z,,,,,,,,,34,1,137,2,,,,,,,,,423.80993050010875,,,,,,,,,,,,,,,,,,,,,,,,,,,,,,,,,,423.7941212001024,423.80993050010875,424.3100165000651,424.2934070000192,424.2934070000192,424.2934070000192,424.2934070000192,424.59342620009556,424.59342620009556,424.59342620009556,,424.6109250000445,z,424.6113744000904,424.62672120006755,425.6275885000359,425.61125460010953,0.3014460999984294,None,,,,,,,,,,,,,,,,,,,,,,,,,,,,,,,,,,,,,,,,,,,,,,,,,,,,,,,,,,,,,,,,,,,,,,,,,,,,,,,,,,,B_10,001,2024-11-29_12h59.27.841,untitled,2024.1.5,None,2024-11-29 12h59.38.727398 +0530,
square.png,you,1,M,,,,,,,,,34,2,138,0,,,,,,,,,425.6275885000359,,,,,,,,,,,,,,,,,,,,,,,,,,,,,,,,,,425.6116096000187,425.6275885000359,426.1275836999994,426.11115670006257,426.11115670006257,426.11115670006257,426.11115670006257,,,,,426.36197510000784,m,426.3624172999989,426.3777986000059,427.37833330000285,427.3619511000579,0.23486129997763783,None,,,,,,,,,,,,,,,,,,,,,,,,,,,,,,,,,,,,,,,,,,,,,,,,,,,,,,,,,,,,,,,,,,,,,,,,,,,,,,,,,,,B_10,001,2024-11-29_12h59.27.841,untitled,2024.1.5,None,2024-11-29 12h59.38.727398 +0530,
triangle.png,you,0,Z,,,,,,,,,34,3,139,3,,,,,,,,,427.37833330000285,,,,,,,,,,,,,,,,,,,,,,,,,,,,,,,,,,427.36231690004934,427.37833330000285,427.87885390000883,427.86191070009954,427.86191070009954,427.86191070009954,427.86191070009954,,,,,427.8796041000169,z,427.88004530000035,427.895224600099,428.89556170010474,428.8794811000116,0.007788099930621684,None,,,,,,,,,,,,,,,,,,,,,,,,,,,,,,,,,,,,,,,,,,,,,,,,,,,,,,,,,,,,,,,,,,,,,,,,,,,,,,,,,,,B_10,001,2024-11-29_12h59.27.841,untitled,2024.1.5,None,2024-11-29 12h59.38.727398 +0530,
square.png,stranger,0,Z,,,,,,,,,35,0,140,2,,,,,,,,,428.89556170010474,,,,,,,,,,,,,,,,,,,,,,,,,,,,,,,,,,428.8798467000015,428.89556170010474,429.3961054000538,429.37950790009927,429.37950790009927,429.37950790009927,429.37950790009927,,,,,429.59683210006915,m,429.5973437000066,429.61277400003746,430.6132728001103,430.59690870007034,0.20167999994009733,None,,,,,,,,,,,,,,,,,,,,,,,,,,,,,,,,,,,,,,,,,,,,,,,,,,,,,,,,,,,,,,,,,,,,,,,,,,,,,,,,,,,B_10,001,2024-11-29_12h59.27.841,untitled,2024.1.5,None,2024-11-29 12h59.38.727398 +0530,
triangle.png,you,0,Z,,,,,,,,,35,1,141,3,,,,,,,,,430.6132728001103,,,,,,,,,,,,,,,,,,,,,,,,,,,,,,,,,,430.597270200029,430.6132728001103,431.1139718000777,431.09695010003634,431.09695010003634,431.09695010003634,431.09695010003634,431.3970130000962,431.3970130000962,431.3970130000962,,431.3977974000154,m,431.39823770010844,431.41366210009437,432.41426370001864,432.3977653000038,0.29663100000470877,None,,,,,,,,,,,,,,,,,,,,,,,,,,,,,,,,,,,,,,,,,,,,,,,,,,,,,,,,,,,,,,,,,,,,,,,,,,,,,,,,,,,B_10,001,2024-11-29_12h59.27.841,untitled,2024.1.5,None,2024-11-29 12h59.38.727398 +0530,
square.png,you,1,M,,,,,,,,,35,2,142,0,,,,,,,,,432.41426370001864,,,,,,,,,,,,,,,,,,,,,,,,,,,,,,,,,,432.39813030010555,432.41426370001864,432.91447449999396,432.8978590000188,432.8978590000188,432.8978590000188,432.8978590000188,433.19786400010344,433.19786400010344,433.19786400010344,,433.282183000003,m,433.2826450000284,433.29791370010935,434.298598100082,434.28248840000015,0.372512900037691,None,,,,,,,,,,,,,,,,,,,,,,,,,,,,,,,,,,,,,,,,,,,,,,,,,,,,,,,,,,,,,,,,,,,,,,,,,,,,,,,,,,,B_10,001,2024-11-29_12h59.27.841,untitled,2024.1.5,None,2024-11-29 12h59.38.727398 +0530,
triangle.png,stranger,1,M,,,,,,,,,35,3,143,1,,,,,,,,,434.298598100082,,,,,,,,,,,,,,,,,,,,,,,,,,,,,,,,,,434.28284130000975,434.298598100082,434.7988780000014,434.78209380002227,434.78209380002227,434.78209380002227,434.78209380002227,435.08222460001707,435.08222460001707,435.08222460001707,,435.06660720007494,z,435.0670347000705,435.08222460001707,436.08280990005005,436.06650700001046,0.2800053000682965,None,,,,,,,,,,,,,,,,,,,,,,,,,,,,,,,,,,,,,,,,,,,,,,,,,,,,,,,,,,,,,,,,,,,,,,,,,,,,,,,,,,,B_10,001,2024-11-29_12h59.27.841,untitled,2024.1.5,None,2024-11-29 12h59.38.727398 +0530,
triangle.png,you,0,Z,,,,,,,,,36,0,144,3,,,,,,,,,436.08280990005005,,,,,,,,,,,,,,,,,,,,,,,,,,,,,,,,,,436.06686050002463,436.08280990005005,436.5832859000657,436.56649800005835,436.56649800005835,436.56649800005835,436.56649800005835,436.86639930005185,436.86639930005185,436.86639930005185,437.666901800083,437.6507634000154,None,437.6509541000705,437.666901800083,438.66749830008484,438.65122930007055,,,,,,,,,,,,,,,,,,,,,,,,,,,,,,,,,,,,,,,,,,,,,,,,,,,,,,,,,,,,,,,,,,,,,,,,,,,,,,,,,,,,,B_10,001,2024-11-29_12h59.27.841,untitled,2024.1.5,None,2024-11-29 12h59.38.727398 +0530,
square.png,you,1,M,,,,,,,,,36,1,145,0,,,,,,,,,438.66749830008484,,,,,,,,,,,,,,,,,,,,,,,,,,,,,,,,,,438.65159380005207,438.66749830008484,439.16800720000174,439.16800720000174,439.16800720000174,439.16800720000174,439.16800720000174,439.46786350000184,439.46786350000184,439.46786350000184,,439.55189940007403,m,439.55233040009625,439.5680828000186,440.56857480003964,440.55212240002584,0.37435959989670664,None,,,,,,,,,,,,,,,,,,,,,,,,,,,,,,,,,,,,,,,,,,,,,,,,,,,,,,,,,,,,,,,,,,,,,,,,,,,,,,,,,,,B_10,001,2024-11-29_12h59.27.841,untitled,2024.1.5,None,2024-11-29 12h59.38.727398 +0530,
