stimulus_b,label_b,is_match_b,shouldpress_b,stimulus_2b,label_2b,is_match_2b,shouldpress_2b,p_trials.thisRepN,p_trials.thisTrialN,p_trials.thisN,p_trials.thisIndex,trials.thisRepN,trials.thisTrialN,trials.thisN,trials.thisIndex,p_trials_2.thisRepN,p_trials_2.thisTrialN,p_trials_2.thisN,p_trials_2.thisIndex,trials_2.thisRepN,trials_2.thisTrialN,trials_2.thisN,trials_2.thisIndex,thisRow.t,notes,Intruduction.started,text_3.started,key_resp_2.started,Intruduction.stopped,key_resp_2.keys,key_resp_2.rt,key_resp_2.duration,self_other_instructions.started,text_4.started,key_resp_3.started,self_other_instructions.stopped,key_resp_3.keys,key_resp_3.rt,key_resp_3.duration,self_other_info.started,square_image.started,triangle_image.started,self_label.started,other_label.started,key_resp_4.started,text_5.started,self_other_info.stopped,key_resp_4.keys,key_resp_4.rt,key_resp_4.duration,self_other_starting_2.started,text_6.started,key_resp_5.started,self_other_starting_2.stopped,key_resp_5.keys,key_resp_5.rt,key_resp_5.duration,b1.started,p_fication.started,p_fixation_3.started,p_text.started,key_resp_p.started,p_image.started,p_fication.stopped,p_fixation_3.stopped,p_text.stopped,p_image.stopped,key_resp_p.stopped,b1.stopped,key_resp_p.keys,b_feedback.started,text_15.started,text_15.stopped,b_feedback.stopped,key_resp_p.rt,key_resp_p.duration,start2.started,start_2.started,key_resp_11.started,start2.stopped,key_resp_11.keys,key_resp_11.rt,key_resp_11.duration,break_3.started,text_13.started,text_14.started,key_resp_10.started,text_13.stopped,break_3.stopped,key_resp_10.keys,key_resp_10.rt,key_resp_10.duration,self_instructions_2.started,text_10.started,key_resp_7.started,self_instructions_2.stopped,key_resp_7.keys,key_resp_7.rt,key_resp_7.duration,self_intro_2.started,circle_image.started,diamond_image.started,Disgusting_self_lable.started,Desirable_self_lable.started,key_resp_8.started,text_11.started,self_intro_2.stopped,key_resp_8.keys,key_resp_8.rt,key_resp_8.duration,self_starting_3.started,text_12.started,key_resp_9.started,self_starting_3.stopped,key_resp_9.keys,key_resp_9.rt,key_resp_9.duration,practice2.started,p_fixation_2.started,p_fixation_4.started,p_text_8.started,key_resp_6_p.started,p_image_2.started,p_fixation_2.stopped,p_fixation_4.stopped,p_text_8.stopped,p_image_2.stopped,key_resp_6_p.stopped,practice2.stopped,key_resp_6_p.keys,feedback_2_p.started,text_16.started,text_16.stopped,feedback_2_p.stopped,key_resp_6_p.rt,key_resp_6_p.duration,trial_2.started,fixation_2.started,fixation_4.started,text_8.started,key_resp_6.started,image_2.started,fixation_2.stopped,fixation_4.stopped,text_8.stopped,image_2.stopped,key_resp_6.stopped,trial_2.stopped,key_resp_6.keys,feedback_2.started,text_9.started,text_9.stopped,feedback_2.stopped,key_resp_6.rt,key_resp_6.duration,Thank_you.started,text_7.started,Thank_you.stopped,participant,session,date,expName,psychopyVersion,frameRate,expStart,
,,,,,,,,,,,,,,,,,,,,,,,,,,0.002655400079675019,0.0063928000163286924,0.0063928000163286924,11.501069099991582,space,11.490200100000948,None,,,,,,,,,,,,,,,,,,,,,,,,,,,,,,,,,,,,,,,,,,,,,,,,,,,,,,,,,,,,,,,,,,,,,,,,,,,,,,,,,,,,,,,,,,,,,,,,,,,,,,,,,,,,,,,,,,,,,,,,,,,,,,,B_11,001,2024-11-29_16h48.57.479,untitled,2024.1.5,None,2024-11-29 16h49.13.193329 +0530,
,,,,,,,,,,,,,,,,,,,,,,,,,,,,,,,,,11.50109550007619,11.515324600040913,11.515324600040913,37.79597149998881,space,26.2781528000487,None,,,,,,,,,,,,,,,,,,,,,,,,,,,,,,,,,,,,,,,,,,,,,,,,,,,,,,,,,,,,,,,,,,,,,,,,,,,,,,,,,,,,,,,,,,,,,,,,,,,,,,,,,,,,,,,,,,,,,,,,B_11,001,2024-11-29_16h48.57.479,untitled,2024.1.5,None,2024-11-29 16h49.13.193329 +0530,
,,,,,,,,,,,,,,,,,,,,,,,,,,,,,,,,,,,,,,,,37.79599940008484,37.82900230004452,37.82900230004452,37.82900230004452,37.82900230004452,37.82900230004452,37.82900230004452,113.1505252000643,space,75.30851619993336,None,,,,,,,,,,,,,,,,,,,,,,,,,,,,,,,,,,,,,,,,,,,,,,,,,,,,,,,,,,,,,,,,,,,,,,,,,,,,,,,,,,,,,,,,,,,,,,,,,,,,,,,,,,,,,B_11,001,2024-11-29_16h48.57.479,untitled,2024.1.5,None,2024-11-29 16h49.13.193329 +0530,
,,,,,,,,,,,,,,,,,,,,,,,,,,,,,,,,,,,,,,,,,,,,,,,,,,,113.15055510005914,113.16669840004761,113.16669840004761,122.72227580007166,space,9.547495600068942,None,,,,,,,,,,,,,,,,,,,,,,,,,,,,,,,,,,,,,,,,,,,,,,,,,,,,,,,,,,,,,,,,,,,,,,,,,,,,,,,,,,,,,,,,,,,,,,,,,,,,,,B_11,001,2024-11-29_16h48.57.479,untitled,2024.1.5,None,2024-11-29 16h49.13.193329 +0530,
square.png,stranger,0,Z,,,,,0,0,0,2,,,,,,,,,,,,,122.73964170005638,,,,,,,,,,,,,,,,,,,,,,,,,,,,,,,,,,122.7285547000356,122.73964170005638,123.22172620007768,123.22172620007768,123.22172620007768,123.22172620007768,123.25478630000725,123.5215372000821,123.5215372000821,123.5215372000821,124.32208860001992,124.30584640009329,None,124.306054100045,124.32208860001992,125.32268490002025,125.30634240002837,,,,,,,,,,,,,,,,,,,,,,,,,,,,,,,,,,,,,,,,,,,,,,,,,,,,,,,,,,,,,,,,,,,,,,,,,,,,,,,,,,,,,B_11,001,2024-11-29_16h48.57.479,untitled,2024.1.5,None,2024-11-29 16h49.13.193329 +0530,
triangle.png,stranger,1,M,,,,,0,1,1,1,,,,,,,,,,,,,125.32268490002025,,,,,,,,,,,,,,,,,,,,,,,,,,,,,,,,,,125.30658259999473,125.32268490002025,125.82290950010065,125.82290950010065,125.82290950010065,125.82290950010065,125.82290950010065,126.12290449999273,126.12290449999273,126.12290449999273,126.92330950009637,126.90682710008696,None,126.90695960004814,126.92330950009637,127.92385620006826,127.90737390005961,,,,,,,,,,,,,,,,,,,,,,,,,,,,,,,,,,,,,,,,,,,,,,,,,,,,,,,,,,,,,,,,,,,,,,,,,,,,,,,,,,,,,B_11,001,2024-11-29_16h48.57.479,untitled,2024.1.5,None,2024-11-29 16h49.13.193329 +0530,
square.png,you,1,M,,,,,0,2,2,0,,,,,,,,,,,,,127.92385620006826,,,,,,,,,,,,,,,,,,,,,,,,,,,,,,,,,,127.90761080000084,127.92385620006826,128.42403710004874,128.42403710004874,128.42403710004874,128.42403710004874,128.42403710004874,128.72434670000803,128.72434670000803,128.72434670000803,129.52484830003232,129.50845540000591,None,129.50858530006371,129.52484830003232,130.5250551000936,130.50891970004886,,,,,,,,,,,,,,,,,,,,,,,,,,,,,,,,,,,,,,,,,,,,,,,,,,,,,,,,,,,,,,,,,,,,,,,,,,,,,,,,,,,,,B_11,001,2024-11-29_16h48.57.479,untitled,2024.1.5,None,2024-11-29 16h49.13.193329 +0530,
triangle.png,you,0,Z,,,,,0,3,3,3,,,,,,,,,,,,,130.5250551000936,,,,,,,,,,,,,,,,,,,,,,,,,,,,,,,,,,130.5091504000593,130.5250551000936,131.025503700017,131.025503700017,131.025503700017,131.025503700017,131.025503700017,131.32565880008042,131.32565880008042,131.32565880008042,132.12588440009858,132.10986900003627,None,132.10999980010092,132.12588440009858,133.12662980007008,133.11017330002505,,,,,,,,,,,,,,,,,,,,,,,,,,,,,,,,,,,,,,,,,,,,,,,,,,,,,,,,,,,,,,,,,,,,,,,,,,,,,,,,,,,,,B_11,001,2024-11-29_16h48.57.479,untitled,2024.1.5,None,2024-11-29 16h49.13.193329 +0530,
square.png,stranger,0,Z,,,,,1,0,4,2,,,,,,,,,,,,,133.12662980007008,,,,,,,,,,,,,,,,,,,,,,,,,,,,,,,,,,133.1104050000431,133.12662980007008,133.62692629999947,133.62692629999947,133.62692629999947,133.62692629999947,133.62692629999947,133.9269427000545,133.9269427000545,133.9269427000545,134.7274414000567,134.71109620004427,None,134.7112277999986,134.7274414000567,135.7279762000544,135.7117735000793,,,,,,,,,,,,,,,,,,,,,,,,,,,,,,,,,,,,,,,,,,,,,,,,,,,,,,,,,,,,,,,,,,,,,,,,,,,,,,,,,,,,,B_11,001,2024-11-29_16h48.57.479,untitled,2024.1.5,None,2024-11-29 16h49.13.193329 +0530,
triangle.png,you,0,Z,,,,,1,1,5,3,,,,,,,,,,,,,135.7279762000544,,,,,,,,,,,,,,,,,,,,,,,,,,,,,,,,,,135.71200570010114,135.7279762000544,136.2281202999875,136.2281202999875,136.2281202999875,136.2281202999875,136.2281202999875,,,,,136.26227750000544,z,136.26265899999999,136.2779453000985,137.27891220001038,137.26255840004887,0.018051499966531992,None,,,,,,,,,,,,,,,,,,,,,,,,,,,,,,,,,,,,,,,,,,,,,,,,,,,,,,,,,,,,,,,,,,,,,,,,,,,,,,,,,,,B_11,001,2024-11-29_16h48.57.479,untitled,2024.1.5,None,2024-11-29 16h49.13.193329 +0530,
triangle.png,stranger,1,M,,,,,1,2,6,1,,,,,,,,,,,,,137.27891220001038,,,,,,,,,,,,,,,,,,,,,,,,,,,,,,,,,,137.262793000089,137.27891220001038,137.76226510002743,137.76226510002743,137.76226510002743,137.76226510002743,137.77897680003662,138.0624320000643,138.0624320000643,138.0624320000643,,138.1630972001003,m,138.1633474000264,138.1791848000139,139.17946440004744,139.16335990000516,0.39958710002247244,None,,,,,,,,,,,,,,,,,,,,,,,,,,,,,,,,,,,,,,,,,,,,,,,,,,,,,,,,,,,,,,,,,,,,,,,,,,,,,,,,,,,B_11,001,2024-11-29_16h48.57.479,untitled,2024.1.5,None,2024-11-29 16h49.13.193329 +0530,
square.png,you,1,M,,,,,1,3,7,0,,,,,,,,,,,,,139.17946440004744,,,,,,,,,,,,,,,,,,,,,,,,,,,,,,,,,,139.16359280003235,139.17946440004744,139.66324800008442,139.66324800008442,139.66324800008442,139.66324800008442,139.68009250005707,139.96337840007618,139.96337840007618,139.96337840007618,,140.33113370009232,z,140.33138360001612,140.34676660003606,141.3474384000292,141.3313151000766,0.6581484999042004,None,,,,,,,,,,,,,,,,,,,,,,,,,,,,,,,,,,,,,,,,,,,,,,,,,,,,,,,,,,,,,,,,,,,,,,,,,,,,,,,,,,,B_11,001,2024-11-29_16h48.57.479,untitled,2024.1.5,None,2024-11-29 16h49.13.193329 +0530,
triangle.png,stranger,1,M,,,,,2,0,8,1,,,,,,,,,,,,,141.3474384000292,,,,,,,,,,,,,,,,,,,,,,,,,,,,,,,,,,141.33154809998814,141.3474384000292,141.8310433999868,141.8310433999868,141.8310433999868,141.8310433999868,141.8476629999932,142.1310136000393,142.1310136000393,142.1310136000393,,142.6653445000993,m,142.6655996000627,142.68150390009396,143.68183920008596,143.6656943000853,0.818608499947004,None,,,,,,,,,,,,,,,,,,,,,,,,,,,,,,,,,,,,,,,,,,,,,,,,,,,,,,,,,,,,,,,,,,,,,,,,,,,,,,,,,,,B_11,001,2024-11-29_16h48.57.479,untitled,2024.1.5,None,2024-11-29 16h49.13.193329 +0530,
triangle.png,you,0,Z,,,,,2,1,9,3,,,,,,,,,,,,,143.68183920008596,,,,,,,,,,,,,,,,,,,,,,,,,,,,,,,,,,143.66593070002273,143.68183920008596,144.16581270005554,144.16581270005554,144.16581270005554,144.16581270005554,144.18224670004565,144.46551190002356,144.46551190002356,144.46551190002356,,144.8502399000572,z,144.85049219999928,144.86582800000906,145.86660890001804,145.85014750005212,0.6832274999469519,None,,,,,,,,,,,,,,,,,,,,,,,,,,,,,,,,,,,,,,,,,,,,,,,,,,,,,,,,,,,,,,,,,,,,,,,,,,,,,,,,,,,B_11,001,2024-11-29_16h48.57.479,untitled,2024.1.5,None,2024-11-29 16h49.13.193329 +0530,
square.png,stranger,0,Z,,,,,2,2,10,2,,,,,,,,,,,,,145.86660890001804,,,,,,,,,,,,,,,,,,,,,,,,,,,,,,,,,,145.8503796000732,145.86660890001804,146.349971299991,146.349971299991,146.349971299991,146.349971299991,146.36666290007997,146.65042690001428,146.65042690001428,146.65042690001428,,146.6511922000209,m,146.65145110001322,146.6669690000126,147.66738700005226,147.65118550008629,0.2992167000193149,None,,,,,,,,,,,,,,,,,,,,,,,,,,,,,,,,,,,,,,,,,,,,,,,,,,,,,,,,,,,,,,,,,,,,,,,,,,,,,,,,,,,B_11,001,2024-11-29_16h48.57.479,untitled,2024.1.5,None,2024-11-29 16h49.13.193329 +0530,
square.png,you,1,M,,,,,2,3,11,0,,,,,,,,,,,,,147.66738700005226,,,,,,,,,,,,,,,,,,,,,,,,,,,,,,,,,,147.65142080001533,147.66738700005226,148.1509769000113,148.1509769000113,148.1509769000113,148.1509769000113,148.16770400002133,148.45105560007505,148.45105560007505,148.45105560007505,,148.5353878000751,z,148.53563599998597,148.55110819998663,149.5516850000713,149.53550170001108,0.3791992000769824,None,,,,,,,,,,,,,,,,,,,,,,,,,,,,,,,,,,,,,,,,,,,,,,,,,,,,,,,,,,,,,,,,,,,,,,,,,,,,,,,,,,,B_11,001,2024-11-29_16h48.57.479,untitled,2024.1.5,None,2024-11-29 16h49.13.193329 +0530,
square.png,you,1,M,,,,,3,0,12,0,,,,,,,,,,,,,149.5516850000713,,,,,,,,,,,,,,,,,,,,,,,,,,,,,,,,,,149.5357358000474,149.5516850000713,150.03522810002323,150.03522810002323,150.03522810002323,150.03522810002323,150.05205230007414,150.33533530007116,150.33533530007116,150.33533530007116,151.13566560007166,151.11969050008338,None,151.1198211000301,151.13566560007166,152.13635869999416,152.1200687000528,,,,,,,,,,,,,,,,,,,,,,,,,,,,,,,,,,,,,,,,,,,,,,,,,,,,,,,,,,,,,,,,,,,,,,,,,,,,,,,,,,,,,B_11,001,2024-11-29_16h48.57.479,untitled,2024.1.5,None,2024-11-29 16h49.13.193329 +0530,
triangle.png,you,0,Z,,,,,3,1,13,3,,,,,,,,,,,,,152.13635869999416,,,,,,,,,,,,,,,,,,,,,,,,,,,,,,,,,,152.1203036000952,152.13635869999416,152.63673270004801,152.63673270004801,152.63673270004801,152.63673270004801,152.63673270004801,152.93693680001888,152.93693680001888,152.93693680001888,,153.20446899998933,m,153.2047154000029,153.22003710002173,154.22077230003197,154.20454810000956,0.5649068999337032,None,,,,,,,,,,,,,,,,,,,,,,,,,,,,,,,,,,,,,,,,,,,,,,,,,,,,,,,,,,,,,,,,,,,,,,,,,,,,,,,,,,,B_11,001,2024-11-29_16h48.57.479,untitled,2024.1.5,None,2024-11-29 16h49.13.193329 +0530,
square.png,stranger,0,Z,,,,,3,2,14,2,,,,,,,,,,,,,154.22077230003197,,,,,,,,,,,,,,,,,,,,,,,,,,,,,,,,,,154.20478020003065,154.22077230003197,154.70450770005118,154.70450770005118,154.70450770005118,154.70450770005118,154.72093459998723,155.00433510006405,155.00433510006405,155.00433510006405,,155.13852320006117,z,155.13877770002,155.1545056999894,156.15520130004734,156.1387671000557,0.4181409999728203,None,,,,,,,,,,,,,,,,,,,,,,,,,,,,,,,,,,,,,,,,,,,,,,,,,,,,,,,,,,,,,,,,,,,,,,,,,,,,,,,,,,,B_11,001,2024-11-29_16h48.57.479,untitled,2024.1.5,None,2024-11-29 16h49.13.193329 +0530,
triangle.png,stranger,1,M,,,,,3,3,15,1,,,,,,,,,,,,,156.15520130004734,,,,,,,,,,,,,,,,,,,,,,,,,,,,,,,,,,156.1390000000829,156.15520130004734,156.63882720004767,156.63882720004767,156.63882720004767,156.63882720004767,156.65543460007757,156.93866290000733,156.93866290000733,156.93866290000733,,157.03942759998608,m,157.03967450000346,157.05563850002363,158.0559390000999,158.03957940009423,0.3910345999756828,None,,,,,,,,,,,,,,,,,,,,,,,,,,,,,,,,,,,,,,,,,,,,,,,,,,,,,,,,,,,,,,,,,,,,,,,,,,,,,,,,,,,B_11,001,2024-11-29_16h48.57.479,untitled,2024.1.5,None,2024-11-29 16h49.13.193329 +0530,
triangle.png,you,0,Z,,,,,4,0,16,3,,,,,,,,,,,,,158.0559390000999,,,,,,,,,,,,,,,,,,,,,,,,,,,,,,,,,,158.03981630003545,158.0559390000999,158.53974600008223,158.53974600008223,158.53974600008223,158.53974600008223,158.55624080006965,158.83977790002245,158.83977790002245,158.83977790002245,,158.9406133000739,z,158.9408689000411,158.95637860009447,159.95709640008863,159.94067350006662,0.38578589993994683,None,,,,,,,,,,,,,,,,,,,,,,,,,,,,,,,,,,,,,,,,,,,,,,,,,,,,,,,,,,,,,,,,,,,,,,,,,,,,,,,,,,,B_11,001,2024-11-29_16h48.57.479,untitled,2024.1.5,None,2024-11-29 16h49.13.193329 +0530,
square.png,you,1,M,,,,,4,1,17,0,,,,,,,,,,,,,159.95709640008863,,,,,,,,,,,,,,,,,,,,,,,,,,,,,,,,,,159.94090550008696,159.95709640008863,160.44057460001204,160.44057460001204,160.44057460001204,160.44057460001204,160.45723420009017,160.7405976000009,160.7405976000009,160.7405976000009,,160.87496779998764,m,160.8752142000012,160.891000200063,161.89122510002926,161.87502939999104,0.4199773999862373,None,,,,,,,,,,,,,,,,,,,,,,,,,,,,,,,,,,,,,,,,,,,,,,,,,,,,,,,,,,,,,,,,,,,,,,,,,,,,,,,,,,,B_11,001,2024-11-29_16h48.57.479,untitled,2024.1.5,None,2024-11-29 16h49.13.193329 +0530,
triangle.png,stranger,1,M,,,,,4,2,18,1,,,,,,,,,,,,,161.89122510002926,,,,,,,,,,,,,,,,,,,,,,,,,,,,,,,,,,161.87526090000756,161.89122510002926,162.3749154000543,162.3749154000543,162.3749154000543,162.3749154000543,162.39184890000615,162.67486160004046,162.67486160004046,162.67486160004046,,162.77573220001068,z,162.77599120000377,162.79175940004643,163.7923926000949,163.77606090006884,0.39912979991640896,None,,,,,,,,,,,,,,,,,,,,,,,,,,,,,,,,,,,,,,,,,,,,,,,,,,,,,,,,,,,,,,,,,,,,,,,,,,,,,,,,,,,B_11,001,2024-11-29_16h48.57.479,untitled,2024.1.5,None,2024-11-29 16h49.13.193329 +0530,
square.png,stranger,0,Z,,,,,4,3,19,2,,,,,,,,,,,,,163.7923926000949,,,,,,,,,,,,,,,,,,,,,,,,,,,,,,,,,,163.77629990002606,163.7923926000949,164.27581370004918,164.27581370004918,164.27581370004918,164.27581370004918,164.29280709999148,164.57611800008453,164.57611800008453,164.57611800008453,,164.64387640007772,m,164.64413400006015,164.6594867000822,165.65989350003656,165.64382070000283,0.36618949996773154,None,,,,,,,,,,,,,,,,,,,,,,,,,,,,,,,,,,,,,,,,,,,,,,,,,,,,,,,,,,,,,,,,,,,,,,,,,,,,,,,,,,,B_11,001,2024-11-29_16h48.57.479,untitled,2024.1.5,None,2024-11-29 16h49.13.193329 +0530,
,,,,,,,,,,,,,,,,,,,,,,,,,,,,,,,,,,,,,,,,,,,,,,,,,,,,,,,,,,,,,,,,,,,,,,,,,,,,,165.64386810001452,165.65989350003656,165.65989350003656,167.09483220009133,space,1.4328002999536693,None,,,,,,,,,,,,,,,,,,,,,,,,,,,,,,,,,,,,,,,,,,,,,,,,,,,,,,,,,,,,,,,,,,,,,,,,,,,,B_11,001,2024-11-29_16h48.57.479,untitled,2024.1.5,None,2024-11-29 16h49.13.193329 +0530,
triangle.png,you,0,Z,,,,,,,,,0,0,0,3,,,,,,,,,167.11081099999137,,,,,,,,,,,,,,,,,,,,,,,,,,,,,,,,,,167.1000950000016,167.11081099999137,167.5944615000626,167.5944615000626,167.5944615000626,167.5944615000626,167.61115360003896,167.8945905000437,167.8945905000437,167.8945905000437,168.69481610006187,168.6783882000018,None,168.67870470008347,168.69481610006187,169.69532200007234,169.67911140003707,,,,,,,,,,,,,,,,,,,,,,,,,,,,,,,,,,,,,,,,,,,,,,,,,,,,,,,,,,,,,,,,,,,,,,,,,,,,,,,,,,,,,B_11,001,2024-11-29_16h48.57.479,untitled,2024.1.5,None,2024-11-29 16h49.13.193329 +0530,
triangle.png,stranger,1,M,,,,,,,,,0,1,1,1,,,,,,,,,169.69532200007234,,,,,,,,,,,,,,,,,,,,,,,,,,,,,,,,,,169.6794782000361,169.69532200007234,170.1958967000246,170.1958967000246,170.1958967000246,170.1958967000246,170.1958967000246,170.495572200045,170.495572200045,170.495572200045,,170.66319720004685,z,170.66378290008288,170.67910190008115,171.67963670007885,171.66335010004696,0.4607116000261158,None,,,,,,,,,,,,,,,,,,,,,,,,,,,,,,,,,,,,,,,,,,,,,,,,,,,,,,,,,,,,,,,,,,,,,,,,,,,,,,,,,,,B_11,001,2024-11-29_16h48.57.479,untitled,2024.1.5,None,2024-11-29 16h49.13.193329 +0530,
square.png,you,1,M,,,,,,,,,0,2,2,0,,,,,,,,,171.67963670007885,,,,,,,,,,,,,,,,,,,,,,,,,,,,,,,,,,171.66370690008625,171.67963670007885,172.1632668999955,172.1632668999955,172.1632668999955,172.1632668999955,172.1798690999858,172.46341540000867,172.46341540000867,172.46341540000867,,172.59760000009555,m,172.59802690008655,172.61363270005677,173.61415050004143,173.59774590004236,0.4212901000864804,None,,,,,,,,,,,,,,,,,,,,,,,,,,,,,,,,,,,,,,,,,,,,,,,,,,,,,,,,,,,,,,,,,,,,,,,,,,,,,,,,,,,B_11,001,2024-11-29_16h48.57.479,untitled,2024.1.5,None,2024-11-29 16h49.13.193329 +0530,
square.png,stranger,0,Z,,,,,,,,,0,3,3,2,,,,,,,,,173.61415050004143,,,,,,,,,,,,,,,,,,,,,,,,,,,,,,,,,,173.59810940001626,173.61415050004143,174.09773450007197,174.09773450007197,174.09773450007197,174.09773450007197,174.11413580004591,174.39781730005052,174.39781730005052,174.39781730005052,,174.53177330002654,z,174.53220310003962,174.547918700031,175.54834860004485,175.53185150003992,0.42293599992990494,None,,,,,,,,,,,,,,,,,,,,,,,,,,,,,,,,,,,,,,,,,,,,,,,,,,,,,,,,,,,,,,,,,,,,,,,,,,,,,,,,,,,B_11,001,2024-11-29_16h48.57.479,untitled,2024.1.5,None,2024-11-29 16h49.13.193329 +0530,
square.png,stranger,0,Z,,,,,,,,,1,0,4,2,,,,,,,,,175.54834860004485,,,,,,,,,,,,,,,,,,,,,,,,,,,,,,,,,,175.53220970008988,175.54834860004485,176.03183690004516,176.03183690004516,176.03183690004516,176.03183690004516,176.04844570008572,176.33180839999113,176.33180839999113,176.33180839999113,,176.36607280001044,m,176.3665166000137,176.38207370007876,177.38256460009143,177.36647820007056,0.3258466999977827,None,,,,,,,,,,,,,,,,,,,,,,,,,,,,,,,,,,,,,,,,,,,,,,,,,,,,,,,,,,,,,,,,,,,,,,,,,,,,,,,,,,,B_11,001,2024-11-29_16h48.57.479,untitled,2024.1.5,None,2024-11-29 16h49.13.193329 +0530,
square.png,you,1,M,,,,,,,,,1,1,5,0,,,,,,,,,177.38256460009143,,,,,,,,,,,,,,,,,,,,,,,,,,,,,,,,,,177.36683320009615,177.38256460009143,177.86622980004176,177.86622980004176,177.86622980004176,177.86622980004176,177.8829745000694,178.16629230009858,178.16629230009858,178.16629230009858,,178.2338909000391,z,178.23432130005676,178.24959870008752,179.25047490000725,179.23404080001637,0.36670809995848686,None,,,,,,,,,,,,,,,,,,,,,,,,,,,,,,,,,,,,,,,,,,,,,,,,,,,,,,,,,,,,,,,,,,,,,,,,,,,,,,,,,,,B_11,001,2024-11-29_16h48.57.479,untitled,2024.1.5,None,2024-11-29 16h49.13.193329 +0530,
triangle.png,stranger,1,M,,,,,,,,,1,2,6,1,,,,,,,,,179.25047490000725,,,,,,,,,,,,,,,,,,,,,,,,,,,,,,,,,,179.23439200001303,179.25047490000725,179.73406829999294,179.73406829999294,179.73406829999294,179.73406829999294,179.75073720002547,180.0339559999993,180.0339559999993,180.0339559999993,,180.06794430001173,m,180.06837840005755,180.08394490007777,181.08440779999364,181.0683246999979,0.3304251000517979,None,,,,,,,,,,,,,,,,,,,,,,,,,,,,,,,,,,,,,,,,,,,,,,,,,,,,,,,,,,,,,,,,,,,,,,,,,,,,,,,,,,,B_11,001,2024-11-29_16h48.57.479,untitled,2024.1.5,None,2024-11-29 16h49.13.193329 +0530,
triangle.png,you,0,Z,,,,,,,,,1,3,7,3,,,,,,,,,181.08440779999364,,,,,,,,,,,,,,,,,,,,,,,,,,,,,,,,,,181.06874550005887,181.08440779999364,181.56821460009087,181.56821460009087,181.56821460009087,181.56821460009087,181.5848074000096,181.8682286000112,181.8682286000112,181.8682286000112,,181.91891060001217,z,181.9193537000101,181.93479249998927,182.93547180003952,182.91921210009605,0.334179800003767,None,,,,,,,,,,,,,,,,,,,,,,,,,,,,,,,,,,,,,,,,,,,,,,,,,,,,,,,,,,,,,,,,,,,,,,,,,,,,,,,,,,,B_11,001,2024-11-29_16h48.57.479,untitled,2024.1.5,None,2024-11-29 16h49.13.193329 +0530,
triangle.png,stranger,1,M,,,,,,,,,2,0,8,1,,,,,,,,,182.93547180003952,,,,,,,,,,,,,,,,,,,,,,,,,,,,,,,,,,182.9195788000943,182.93547180003952,183.41931850009132,183.41931850009132,183.41931850009132,183.41931850009132,183.43585690006148,183.71933700004593,183.71933700004593,183.71933700004593,,183.9367360000033,m,183.9371691000415,183.9529910000274,184.9532606001012,184.93684970005415,0.5107428999617696,None,,,,,,,,,,,,,,,,,,,,,,,,,,,,,,,,,,,,,,,,,,,,,,,,,,,,,,,,,,,,,,,,,,,,,,,,,,,,,,,,,,,B_11,001,2024-11-29_16h48.57.479,untitled,2024.1.5,None,2024-11-29 16h49.13.193329 +0530,
triangle.png,you,0,Z,,,,,,,,,2,1,9,3,,,,,,,,,184.9532606001012,,,,,,,,,,,,,,,,,,,,,,,,,,,,,,,,,,184.93719950004015,184.9532606001012,185.43694450007752,185.43694450007752,185.43694450007752,185.43694450007752,185.45353230007458,185.73683559999336,185.73683559999336,185.73683559999336,,185.75416140002199,z,185.75460109999403,185.77033630001824,186.77095570007805,186.75442050001584,0.30779039999470115,None,,,,,,,,,,,,,,,,,,,,,,,,,,,,,,,,,,,,,,,,,,,,,,,,,,,,,,,,,,,,,,,,,,,,,,,,,,,,,,,,,,,B_11,001,2024-11-29_16h48.57.479,untitled,2024.1.5,None,2024-11-29 16h49.13.193329 +0530,
square.png,you,1,M,,,,,,,,,2,2,10,0,,,,,,,,,186.77095570007805,,,,,,,,,,,,,,,,,,,,,,,,,,,,,,,,,,186.7547792000696,186.77095570007805,187.2545603000326,187.2545603000326,187.2545603000326,187.2545603000326,187.27106200007256,187.55452960007824,187.55452960007824,187.55452960007824,,187.92221270001028,m,187.9227058000397,187.9380519000115,188.93858840002213,188.92240909999236,0.6636495999991894,None,,,,,,,,,,,,,,,,,,,,,,,,,,,,,,,,,,,,,,,,,,,,,,,,,,,,,,,,,,,,,,,,,,,,,,,,,,,,,,,,,,,B_11,001,2024-11-29_16h48.57.479,untitled,2024.1.5,None,2024-11-29 16h49.13.193329 +0530,
square.png,stranger,0,Z,,,,,,,,,2,3,11,2,,,,,,,,,188.93858840002213,,,,,,,,,,,,,,,,,,,,,,,,,,,,,,,,,,188.92277450009715,188.93858840002213,189.42219390009996,189.42219390009996,189.42219390009996,189.42219390009996,189.43876580009237,189.7223279000027,189.7223279000027,189.7223279000027,,189.73975090007298,z,189.7401806000853,189.75581120001152,190.75622590002604,190.73988500004634,0.30709829996339977,None,,,,,,,,,,,,,,,,,,,,,,,,,,,,,,,,,,,,,,,,,,,,,,,,,,,,,,,,,,,,,,,,,,,,,,,,,,,,,,,,,,,B_11,001,2024-11-29_16h48.57.479,untitled,2024.1.5,None,2024-11-29 16h49.13.193329 +0530,
triangle.png,stranger,1,M,,,,,,,,,3,0,12,1,,,,,,,,,190.75622590002604,,,,,,,,,,,,,,,,,,,,,,,,,,,,,,,,,,190.74024080007803,190.75622590002604,191.23969220009167,191.23969220009167,191.23969220009167,191.23969220009167,191.25643930002116,191.53976140008308,191.53976140008308,191.53976140008308,,191.6238627000712,m,191.62430260004476,191.63979180005845,192.6405880000675,192.62434990005568,0.38219199993181974,None,,,,,,,,,,,,,,,,,,,,,,,,,,,,,,,,,,,,,,,,,,,,,,,,,,,,,,,,,,,,,,,,,,,,,,,,,,,,,,,,,,,B_11,001,2024-11-29_16h48.57.479,untitled,2024.1.5,None,2024-11-29 16h49.13.193329 +0530,
square.png,you,1,M,,,,,,,,,3,1,13,0,,,,,,,,,192.6405880000675,,,,,,,,,,,,,,,,,,,,,,,,,,,,,,,,,,192.62471200001892,192.6405880000675,193.12424060003832,193.12424060003832,193.12424060003832,193.12424060003832,193.14085920003708,193.42419280007016,193.42419280007016,193.42419280007016,,193.4914300000528,z,193.49185800005216,193.50754690007307,194.5081820000196,194.49174710002262,0.3527070999844,None,,,,,,,,,,,,,,,,,,,,,,,,,,,,,,,,,,,,,,,,,,,,,,,,,,,,,,,,,,,,,,,,,,,,,,,,,,,,,,,,,,,B_11,001,2024-11-29_16h48.57.479,untitled,2024.1.5,None,2024-11-29 16h49.13.193329 +0530,
triangle.png,you,0,Z,,,,,,,,,3,2,14,3,,,,,,,,,194.5081820000196,,,,,,,,,,,,,,,,,,,,,,,,,,,,,,,,,,194.4921086000977,194.5081820000196,194.99169709999114,194.99169709999114,194.99169709999114,194.99169709999114,195.00852370006032,195.2917354000965,195.2917354000965,195.2917354000965,,195.40924700000323,m,195.40968090004753,195.42528339999262,196.42576970008668,196.4095959000988,0.41403680003713816,None,,,,,,,,,,,,,,,,,,,,,,,,,,,,,,,,,,,,,,,,,,,,,,,,,,,,,,,,,,,,,,,,,,,,,,,,,,,,,,,,,,,B_11,001,2024-11-29_16h48.57.479,untitled,2024.1.5,None,2024-11-29 16h49.13.193329 +0530,
square.png,stranger,0,Z,,,,,,,,,3,3,15,2,,,,,,,,,196.42576970008668,,,,,,,,,,,,,,,,,,,,,,,,,,,,,,,,,,196.40996020007879,196.42576970008668,196.90930930001196,196.90930930001196,196.90930930001196,196.90930930001196,196.92600149998907,197.2093205000274,197.2093205000274,197.2093205000274,,197.2603253000416,z,197.26075250003487,197.27615960000549,198.27677180001047,198.26041430002078,0.3488098999951035,None,,,,,,,,,,,,,,,,,,,,,,,,,,,,,,,,,,,,,,,,,,,,,,,,,,,,,,,,,,,,,,,,,,,,,,,,,,,,,,,,,,,B_11,001,2024-11-29_16h48.57.479,untitled,2024.1.5,None,2024-11-29 16h49.13.193329 +0530,
square.png,you,1,M,,,,,,,,,4,0,16,0,,,,,,,,,198.27677180001047,,,,,,,,,,,,,,,,,,,,,,,,,,,,,,,,,,198.26077580009587,198.27677180001047,198.76030990004074,198.76030990004074,198.76030990004074,198.76030990004074,198.7769477000693,199.06046499998774,199.06046499998774,199.06046499998774,,199.27792910009157,m,199.2783725000918,199.29413060005754,200.29459910001606,200.27818070002832,0.5049279000377283,None,,,,,,,,,,,,,,,,,,,,,,,,,,,,,,,,,,,,,,,,,,,,,,,,,,,,,,,,,,,,,,,,,,,,,,,,,,,,,,,,,,,B_11,001,2024-11-29_16h48.57.479,untitled,2024.1.5,None,2024-11-29 16h49.13.193329 +0530,
triangle.png,stranger,1,M,,,,,,,,,4,1,17,1,,,,,,,,,200.29459910001606,,,,,,,,,,,,,,,,,,,,,,,,,,,,,,,,,,200.27862450003158,200.29459910001606,200.7781926000025,200.7781926000025,200.7781926000025,200.7781926000025,200.79457360005472,201.07819040003233,201.07819040003233,201.07819040003233,,201.1122712000506,z,201.1127012000652,201.12826820008922,202.128732400015,202.1124923999887,0.31948770000599325,None,,,,,,,,,,,,,,,,,,,,,,,,,,,,,,,,,,,,,,,,,,,,,,,,,,,,,,,,,,,,,,,,,,,,,,,,,,,,,,,,,,,B_11,001,2024-11-29_16h48.57.479,untitled,2024.1.5,None,2024-11-29 16h49.13.193329 +0530,
triangle.png,you,0,Z,,,,,,,,,4,2,18,3,,,,,,,,,202.128732400015,,,,,,,,,,,,,,,,,,,,,,,,,,,,,,,,,,202.11285140004475,202.128732400015,202.6122870000545,202.6122870000545,202.6122870000545,202.6122870000545,202.62873650004622,202.91233750001993,202.91233750001993,202.91233750001993,,202.96288790006656,m,202.96332600002643,202.97901480004657,203.9795927000232,203.96333830000367,0.3459373000077903,None,,,,,,,,,,,,,,,,,,,,,,,,,,,,,,,,,,,,,,,,,,,,,,,,,,,,,,,,,,,,,,,,,,,,,,,,,,,,,,,,,,,B_11,001,2024-11-29_16h48.57.479,untitled,2024.1.5,None,2024-11-29 16h49.13.193329 +0530,
square.png,stranger,0,Z,,,,,,,,,4,3,19,2,,,,,,,,,203.9795927000232,,,,,,,,,,,,,,,,,,,,,,,,,,,,,,,,,,203.96369700005744,203.9795927000232,204.46346520003863,204.46346520003863,204.46346520003863,204.46346520003863,204.47991190000903,204.7632561000064,204.7632561000064,204.7632561000064,,205.01411930005997,z,205.01456080004573,205.0302393999882,206.03066030004993,206.01457730005495,0.5452631999505684,None,,,,,,,,,,,,,,,,,,,,,,,,,,,,,,,,,,,,,,,,,,,,,,,,,,,,,,,,,,,,,,,,,,,,,,,,,,,,,,,,,,,B_11,001,2024-11-29_16h48.57.479,untitled,2024.1.5,None,2024-11-29 16h49.13.193329 +0530,
square.png,you,1,M,,,,,,,,,5,0,20,0,,,,,,,,,206.03066030004993,,,,,,,,,,,,,,,,,,,,,,,,,,,,,,,,,,206.01493130007293,206.03066030004993,206.5141987000825,206.5141987000825,206.5141987000825,206.5141987000825,206.5309054000536,206.81450300000142,206.81450300000142,206.81450300000142,,206.98190140002407,m,206.9823368000798,206.9980037000496,207.99823140003718,207.9821576999966,0.45998079993296415,None,,,,,,,,,,,,,,,,,,,,,,,,,,,,,,,,,,,,,,,,,,,,,,,,,,,,,,,,,,,,,,,,,,,,,,,,,,,,,,,,,,,B_11,001,2024-11-29_16h48.57.479,untitled,2024.1.5,None,2024-11-29 16h49.13.193329 +0530,
square.png,stranger,0,Z,,,,,,,,,5,1,21,2,,,,,,,,,207.99823140003718,,,,,,,,,,,,,,,,,,,,,,,,,,,,,,,,,,207.98251820006408,207.99823140003718,208.4822329999879,208.4822329999879,208.4822329999879,208.4822329999879,208.49857180006802,208.7820497000357,208.7820497000357,208.7820497000357,,208.98305100004654,z,208.98348950000945,208.9989317000145,209.9992619000841,209.98317440005485,0.49889000004623085,None,,,,,,,,,,,,,,,,,,,,,,,,,,,,,,,,,,,,,,,,,,,,,,,,,,,,,,,,,,,,,,,,,,,,,,,,,,,,,,,,,,,B_11,001,2024-11-29_16h48.57.479,untitled,2024.1.5,None,2024-11-29 16h49.13.193329 +0530,
triangle.png,stranger,1,M,,,,,,,,,5,2,22,1,,,,,,,,,209.9992619000841,,,,,,,,,,,,,,,,,,,,,,,,,,,,,,,,,,209.98353890003636,209.9992619000841,210.48324219998904,210.48324219998904,210.48324219998904,210.48324219998904,210.4998267000774,210.78308960003778,210.78308960003778,210.78308960003778,,210.81723470008,m,210.8176621000748,210.83311490004417,211.8336356000509,211.81747980008367,0.32241850008722395,None,,,,,,,,,,,,,,,,,,,,,,,,,,,,,,,,,,,,,,,,,,,,,,,,,,,,,,,,,,,,,,,,,,,,,,,,,,,,,,,,,,,B_11,001,2024-11-29_16h48.57.479,untitled,2024.1.5,None,2024-11-29 16h49.13.193329 +0530,
triangle.png,you,0,Z,,,,,,,,,5,3,23,3,,,,,,,,,211.8336356000509,,,,,,,,,,,,,,,,,,,,,,,,,,,,,,,,,,211.81783459999133,211.8336356000509,212.3171281000832,212.3171281000832,212.3171281000832,212.3171281000832,212.33404190000147,212.6174646000145,212.6174646000145,212.6174646000145,,212.71826190000866,z,212.71870180009864,212.73408460000064,213.73441400006413,213.71840470004827,0.3954909999156371,None,,,,,,,,,,,,,,,,,,,,,,,,,,,,,,,,,,,,,,,,,,,,,,,,,,,,,,,,,,,,,,,,,,,,,,,,,,,,,,,,,,,B_11,001,2024-11-29_16h48.57.479,untitled,2024.1.5,None,2024-11-29 16h49.13.193329 +0530,
triangle.png,stranger,1,M,,,,,,,,,6,0,24,1,,,,,,,,,213.73441400006413,,,,,,,,,,,,,,,,,,,,,,,,,,,,,,,,,,213.71876469999552,213.73441400006413,214.2184273999883,214.2184273999883,214.2184273999883,214.2184273999883,214.2349318000488,214.51845900004264,214.51845900004264,214.51845900004264,,214.83587090007495,m,214.83629810006823,214.85208530002274,215.85231990006287,215.83619970001746,0.6117535000666976,None,,,,,,,,,,,,,,,,,,,,,,,,,,,,,,,,,,,,,,,,,,,,,,,,,,,,,,,,,,,,,,,,,,,,,,,,,,,,,,,,,,,B_11,001,2024-11-29_16h48.57.479,untitled,2024.1.5,None,2024-11-29 16h49.13.193329 +0530,
square.png,stranger,0,Z,,,,,,,,,6,1,25,2,,,,,,,,,215.85231990006287,,,,,,,,,,,,,,,,,,,,,,,,,,,,,,,,,,215.83655600005295,215.85231990006287,216.33611310005654,216.33611310005654,216.33611310005654,216.33611310005654,216.3525123000145,216.63618490006775,216.63618490006775,216.63618490006775,,216.6369273000164,z,216.63735130010173,216.65299460000824,217.65319570002612,217.63693830010016,0.28991429996676743,None,,,,,,,,,,,,,,,,,,,,,,,,,,,,,,,,,,,,,,,,,,,,,,,,,,,,,,,,,,,,,,,,,,,,,,,,,,,,,,,,,,,B_11,001,2024-11-29_16h48.57.479,untitled,2024.1.5,None,2024-11-29 16h49.13.193329 +0530,
triangle.png,you,0,Z,,,,,,,,,6,2,26,3,,,,,,,,,217.65319570002612,,,,,,,,,,,,,,,,,,,,,,,,,,,,,,,,,,217.6372917999979,217.65319570002612,218.13695479999296,218.13695479999296,218.13695479999296,218.13695479999296,218.1537305000238,,,,,218.2545751000289,m,218.25509680004325,218.27051430009305,219.2707519000396,219.25453520007432,None,None,,,,,,,,,,,,,,,,,,,,,,,,,,,,,,,,,,,,,,,,,,,,,,,,,,,,,,,,,,,,,,,,,,,,,,,,,,,,,,,,,,,B_11,001,2024-11-29_16h48.57.479,untitled,2024.1.5,None,2024-11-29 16h49.13.193329 +0530,
square.png,you,1,M,,,,,,,,,6,3,27,0,,,,,,,,,219.2707519000396,,,,,,,,,,,,,,,,,,,,,,,,,,,,,,,,,,219.2548902000999,219.2707519000396,219.75459000002593,219.75459000002593,219.75459000002593,219.75459000002593,219.77125340001658,220.05441550002433,220.05441550002433,220.05441550002433,,220.15539550001267,z,220.15580290008802,220.17127719998825,221.17171440005768,221.15558470005635,0.38740030000917614,None,,,,,,,,,,,,,,,,,,,,,,,,,,,,,,,,,,,,,,,,,,,,,,,,,,,,,,,,,,,,,,,,,,,,,,,,,,,,,,,,,,,B_11,001,2024-11-29_16h48.57.479,untitled,2024.1.5,None,2024-11-29 16h49.13.193329 +0530,
square.png,stranger,0,Z,,,,,,,,,7,0,28,2,,,,,,,,,221.17171440005768,,,,,,,,,,,,,,,,,,,,,,,,,,,,,,,,,,221.1559385000728,221.17171440005768,221.65544040000532,221.65544040000532,221.65544040000532,221.65544040000532,221.67225800000597,221.9554098000517,221.9554098000517,221.9554098000517,,222.02313159999903,m,222.02353750006296,222.03916839999147,223.03929270000663,223.0231995000504,0.3611703000497073,None,,,,,,,,,,,,,,,,,,,,,,,,,,,,,,,,,,,,,,,,,,,,,,,,,,,,,,,,,,,,,,,,,,,,,,,,,,,,,,,,,,,B_11,001,2024-11-29_16h48.57.479,untitled,2024.1.5,None,2024-11-29 16h49.13.193329 +0530,
triangle.png,stranger,1,M,,,,,,,,,7,1,29,1,,,,,,,,,223.03929270000663,,,,,,,,,,,,,,,,,,,,,,,,,,,,,,,,,,223.0235582999885,223.03929270000663,223.52308810001705,223.52308810001705,223.52308810001705,223.52308810001705,223.53986670006998,223.82317800004967,223.82317800004967,223.82317800004967,,223.8904249999905,z,223.89083610009402,223.90643830003683,224.90706480003428,224.8907363000326,0.3624638000037521,None,,,,,,,,,,,,,,,,,,,,,,,,,,,,,,,,,,,,,,,,,,,,,,,,,,,,,,,,,,,,,,,,,,,,,,,,,,,,,,,,,,,B_11,001,2024-11-29_16h48.57.479,untitled,2024.1.5,None,2024-11-29 16h49.13.193329 +0530,
triangle.png,you,0,Z,,,,,,,,,7,2,30,3,,,,,,,,,224.90706480003428,,,,,,,,,,,,,,,,,,,,,,,,,,,,,,,,,,224.8910915000597,224.90706480003428,225.39089260005858,225.39089260005858,225.39089260005858,225.39089260005858,225.40751530008856,225.69063510000706,225.69063510000706,225.69063510000706,,225.82515220006462,m,225.82559760008007,225.84073940000962,226.84129610005766,226.82490660005715,0.4297423999523744,None,,,,,,,,,,,,,,,,,,,,,,,,,,,,,,,,,,,,,,,,,,,,,,,,,,,,,,,,,,,,,,,,,,,,,,,,,,,,,,,,,,,B_11,001,2024-11-29_16h48.57.479,untitled,2024.1.5,None,2024-11-29 16h49.13.193329 +0530,
square.png,you,1,M,,,,,,,,,7,3,31,0,,,,,,,,,226.84129610005766,,,,,,,,,,,,,,,,,,,,,,,,,,,,,,,,,,226.82529260008596,226.84129610005766,227.32522020000033,227.32522020000033,227.32522020000033,227.32522020000033,227.34153380000498,227.6250023000175,227.6250023000175,227.6250023000175,228.42559900006745,228.40924860001542,None,228.40943850006443,228.42559900006745,229.42592250008602,229.40967379999347,,,,,,,,,,,,,,,,,,,,,,,,,,,,,,,,,,,,,,,,,,,,,,,,,,,,,,,,,,,,,,,,,,,,,,,,,,,,,,,,,,,,,B_11,001,2024-11-29_16h48.57.479,untitled,2024.1.5,None,2024-11-29 16h49.13.193329 +0530,
square.png,you,1,M,,,,,,,,,8,0,32,0,,,,,,,,,229.42592250008602,,,,,,,,,,,,,,,,,,,,,,,,,,,,,,,,,,229.41003220004495,229.42592250008602,229.92662280006334,229.92662280006334,229.92662280006334,229.92662280006334,229.92662280006334,230.22651320009027,230.22651320009027,230.22651320009027,,230.54400530003477,m,230.54440770007204,230.5598261000123,231.5605579999974,231.5441294000484,0.6101300999289379,None,,,,,,,,,,,,,,,,,,,,,,,,,,,,,,,,,,,,,,,,,,,,,,,,,,,,,,,,,,,,,,,,,,,,,,,,,,,,,,,,,,,B_11,001,2024-11-29_16h48.57.479,untitled,2024.1.5,None,2024-11-29 16h49.13.193329 +0530,
triangle.png,you,0,Z,,,,,,,,,8,1,33,3,,,,,,,,,231.5605579999974,,,,,,,,,,,,,,,,,,,,,,,,,,,,,,,,,,231.54448380006943,231.5605579999974,232.0441654000897,232.0441654000897,232.0441654000897,232.0441654000897,232.0605795000447,232.34402670001145,232.34402670001145,232.34402670001145,233.14443880005274,233.12812460004352,None,233.1283187000081,233.14443880005274,234.1451350999996,234.12871369998902,,,,,,,,,,,,,,,,,,,,,,,,,,,,,,,,,,,,,,,,,,,,,,,,,,,,,,,,,,,,,,,,,,,,,,,,,,,,,,,,,,,,,B_11,001,2024-11-29_16h48.57.479,untitled,2024.1.5,None,2024-11-29 16h49.13.193329 +0530,
square.png,stranger,0,Z,,,,,,,,,8,2,34,2,,,,,,,,,234.1451350999996,,,,,,,,,,,,,,,,,,,,,,,,,,,,,,,,,,234.12907100003213,234.1451350999996,234.6455729000736,234.6455729000736,234.6455729000736,234.6455729000736,234.6455729000736,234.9455239000963,234.9455239000963,234.9455239000963,,235.56338700000197,m,235.56379620009102,235.5792386000976,236.57957579998765,236.56335760001093,0.9043588999193162,None,,,,,,,,,,,,,,,,,,,,,,,,,,,,,,,,,,,,,,,,,,,,,,,,,,,,,,,,,,,,,,,,,,,,,,,,,,,,,,,,,,,B_11,001,2024-11-29_16h48.57.479,untitled,2024.1.5,None,2024-11-29 16h49.13.193329 +0530,
triangle.png,stranger,1,M,,,,,,,,,8,3,35,1,,,,,,,,,236.57957579998765,,,,,,,,,,,,,,,,,,,,,,,,,,,,,,,,,,236.563714500051,236.57957579998765,237.0634744000854,237.0634744000854,237.0634744000854,237.0634744000854,237.07999240001664,237.36345450009685,237.36345450009685,237.36345450009685,238.1638876000652,238.14736930001527,None,238.14756350009702,238.1638876000652,239.1644876000937,239.14810099999886,,,,,,,,,,,,,,,,,,,,,,,,,,,,,,,,,,,,,,,,,,,,,,,,,,,,,,,,,,,,,,,,,,,,,,,,,,,,,,,,,,,,,B_11,001,2024-11-29_16h48.57.479,untitled,2024.1.5,None,2024-11-29 16h49.13.193329 +0530,
square.png,stranger,0,Z,,,,,,,,,9,0,36,2,,,,,,,,,239.1644876000937,,,,,,,,,,,,,,,,,,,,,,,,,,,,,,,,,,239.14845630002674,239.1644876000937,239.66463840007782,239.66463840007782,239.66463840007782,239.66463840007782,239.66463840007782,239.9645372000523,239.9645372000523,239.9645372000523,240.7651526000118,240.7489858000772,None,240.74918540008366,240.7651526000118,241.76565539999865,241.74953540007118,,,,,,,,,,,,,,,,,,,,,,,,,,,,,,,,,,,,,,,,,,,,,,,,,,,,,,,,,,,,,,,,,,,,,,,,,,,,,,,,,,,,,B_11,001,2024-11-29_16h48.57.479,untitled,2024.1.5,None,2024-11-29 16h49.13.193329 +0530,
square.png,you,1,M,,,,,,,,,9,1,37,0,,,,,,,,,241.76565539999865,,,,,,,,,,,,,,,,,,,,,,,,,,,,,,,,,,241.74989249999635,241.76565539999865,242.2661179000279,242.2661179000279,242.2661179000279,242.2661179000279,242.2661179000279,242.56620610004757,242.56620610004757,242.56620610004757,,242.65030229999684,m,242.65070820006076,242.66620149998926,243.6664850000525,243.65021180000622,0.37568599998485297,None,,,,,,,,,,,,,,,,,,,,,,,,,,,,,,,,,,,,,,,,,,,,,,,,,,,,,,,,,,,,,,,,,,,,,,,,,,,,,,,,,,,B_11,001,2024-11-29_16h48.57.479,untitled,2024.1.5,None,2024-11-29 16h49.13.193329 +0530,
triangle.png,stranger,1,M,,,,,,,,,9,2,38,1,,,,,,,,,243.6664850000525,,,,,,,,,,,,,,,,,,,,,,,,,,,,,,,,,,243.65057840000372,243.6664850000525,244.15049370005727,244.15049370005727,244.15049370005727,244.15049370005727,244.1671503999969,244.45037229999434,244.45037229999434,244.45037229999434,,244.48453370004427,z,244.484941600007,244.50051400007214,245.50103220005985,245.48461000004318,0.3227800999302417,None,,,,,,,,,,,,,,,,,,,,,,,,,,,,,,,,,,,,,,,,,,,,,,,,,,,,,,,,,,,,,,,,,,,,,,,,,,,,,,,,,,,B_11,001,2024-11-29_16h48.57.479,untitled,2024.1.5,None,2024-11-29 16h49.13.193329 +0530,
triangle.png,you,0,Z,,,,,,,,,9,3,39,3,,,,,,,,,245.50103220005985,,,,,,,,,,,,,,,,,,,,,,,,,,,,,,,,,,245.48496840009466,245.50103220005985,245.98449130007066,245.98449130007066,245.98449130007066,245.98449130007066,246.00153750006575,246.28475960006472,246.28475960006472,246.28475960006472,,246.3188199000433,m,246.31922500010114,246.3347660000436,247.33516820007935,247.31900630006567,0.3217794999945909,None,,,,,,,,,,,,,,,,,,,,,,,,,,,,,,,,,,,,,,,,,,,,,,,,,,,,,,,,,,,,,,,,,,,,,,,,,,,,,,,,,,,B_11,001,2024-11-29_16h48.57.479,untitled,2024.1.5,None,2024-11-29 16h49.13.193329 +0530,
triangle.png,stranger,1,M,,,,,,,,,10,0,40,1,,,,,,,,,247.33516820007935,,,,,,,,,,,,,,,,,,,,,,,,,,,,,,,,,,247.3193612000905,247.33516820007935,247.8191423000535,247.8191423000535,247.8191423000535,247.8191423000535,247.83540630002972,248.11910450004507,248.11910450004507,248.11910450004507,,248.36988280003425,z,248.37028750008903,248.38563820009585,249.3861361000454,249.3700079000555,0.5454322999576107,None,,,,,,,,,,,,,,,,,,,,,,,,,,,,,,,,,,,,,,,,,,,,,,,,,,,,,,,,,,,,,,,,,,,,,,,,,,,,,,,,,,,B_11,001,2024-11-29_16h48.57.479,untitled,2024.1.5,None,2024-11-29 16h49.13.193329 +0530,
square.png,stranger,0,Z,,,,,,,,,10,1,41,2,,,,,,,,,249.3861361000454,,,,,,,,,,,,,,,,,,,,,,,,,,,,,,,,,,249.37036490009632,249.3861361000454,249.86985930008814,249.86985930008814,249.86985930008814,249.86985930008814,249.88677730003837,250.1699607000919,250.1699607000919,250.1699607000919,,250.28741720004473,m,250.2878354000859,250.30337149999104,251.30396270006895,251.28781680006068,0.4082489999709651,None,,,,,,,,,,,,,,,,,,,,,,,,,,,,,,,,,,,,,,,,,,,,,,,,,,,,,,,,,,,,,,,,,,,,,,,,,,,,,,,,,,,B_11,001,2024-11-29_16h48.57.479,untitled,2024.1.5,None,2024-11-29 16h49.13.193329 +0530,
square.png,you,1,M,,,,,,,,,10,2,42,0,,,,,,,,,251.30396270006895,,,,,,,,,,,,,,,,,,,,,,,,,,,,,,,,,,251.28817320009694,251.30396270006895,251.7876946000615,251.7876946000615,251.7876946000615,251.7876946000615,251.80425769998692,252.08773550007027,252.08773550007027,252.08773550007027,,252.22176930005662,z,252.2221779000247,252.23757550003938,253.23839800001588,253.22193800006062,0.4209809999447316,None,,,,,,,,,,,,,,,,,,,,,,,,,,,,,,,,,,,,,,,,,,,,,,,,,,,,,,,,,,,,,,,,,,,,,,,,,,,,,,,,,,,B_11,001,2024-11-29_16h48.57.479,untitled,2024.1.5,None,2024-11-29 16h49.13.193329 +0530,
triangle.png,you,0,Z,,,,,,,,,10,3,43,3,,,,,,,,,253.23839800001588,,,,,,,,,,,,,,,,,,,,,,,,,,,,,,,,,,253.22229450009763,253.23839800001588,253.7221264000982,253.7221264000982,253.7221264000982,253.7221264000982,253.73877910000738,254.02210470009595,254.02210470009595,254.02210470009595,,254.1062196000712,m,254.1066299000522,254.12196330004372,255.12254570005462,255.106121800025,0.38285269995685667,None,,,,,,,,,,,,,,,,,,,,,,,,,,,,,,,,,,,,,,,,,,,,,,,,,,,,,,,,,,,,,,,,,,,,,,,,,,,,,,,,,,,B_11,001,2024-11-29_16h48.57.479,untitled,2024.1.5,None,2024-11-29 16h49.13.193329 +0530,
square.png,you,1,M,,,,,,,,,11,0,44,0,,,,,,,,,255.12254570005462,,,,,,,,,,,,,,,,,,,,,,,,,,,,,,,,,,255.10648150008637,255.12254570005462,255.60641530004796,255.60641530004796,255.60641530004796,255.60641530004796,255.6227508999873,255.9063186000567,255.9063186000567,255.9063186000567,,256.1405427000718,z,256.14094370009843,256.15647809999064,257.15687390009407,257.1408173000673,0.5235728999832645,None,,,,,,,,,,,,,,,,,,,,,,,,,,,,,,,,,,,,,,,,,,,,,,,,,,,,,,,,,,,,,,,,,,,,,,,,,,,,,,,,,,,B_11,001,2024-11-29_16h48.57.479,untitled,2024.1.5,None,2024-11-29 16h49.13.193329 +0530,
triangle.png,you,0,Z,,,,,,,,,11,1,45,3,,,,,,,,,257.15687390009407,,,,,,,,,,,,,,,,,,,,,,,,,,,,,,,,,,257.14122980006505,257.15687390009407,257.64052940008696,257.64052940008696,257.64052940008696,257.64052940008696,257.65715069998987,257.9405894000083,257.9405894000083,257.9405894000083,,258.05798250006046,m,258.05838970001787,258.0742074000882,259.07450119999703,259.0582383000292,0.4047739999368787,None,,,,,,,,,,,,,,,,,,,,,,,,,,,,,,,,,,,,,,,,,,,,,,,,,,,,,,,,,,,,,,,,,,,,,,,,,,,,,,,,,,,B_11,001,2024-11-29_16h48.57.479,untitled,2024.1.5,None,2024-11-29 16h49.13.193329 +0530,
triangle.png,stranger,1,M,,,,,,,,,11,2,46,1,,,,,,,,,259.07450119999703,,,,,,,,,,,,,,,,,,,,,,,,,,,,,,,,,,259.0585906000342,259.07450119999703,259.55843760003336,259.55843760003336,259.55843760003336,259.55843760003336,259.5748534000013,259.85811830009334,259.85811830009334,259.85811830009334,,260.3927608000813,z,260.39316450001206,260.4088277000701,261.40913210005965,261.39302330010105,0.8269212000304833,None,,,,,,,,,,,,,,,,,,,,,,,,,,,,,,,,,,,,,,,,,,,,,,,,,,,,,,,,,,,,,,,,,,,,,,,,,,,,,,,,,,,B_11,001,2024-11-29_16h48.57.479,untitled,2024.1.5,None,2024-11-29 16h49.13.193329 +0530,
square.png,stranger,0,Z,,,,,,,,,11,3,47,2,,,,,,,,,261.40913210005965,,,,,,,,,,,,,,,,,,,,,,,,,,,,,,,,,,261.3933909999905,261.40913210005965,261.89277620008215,261.89277620008215,261.89277620008215,261.89277620008215,261.90958000009414,262.19288400001824,262.19288400001824,262.19288400001824,,262.29362760006916,m,262.2940391000593,262.30952690006234,263.30997530010063,263.294078100007,0.39676949998829514,None,,,,,,,,,,,,,,,,,,,,,,,,,,,,,,,,,,,,,,,,,,,,,,,,,,,,,,,,,,,,,,,,,,,,,,,,,,,,,,,,,,,B_11,001,2024-11-29_16h48.57.479,untitled,2024.1.5,None,2024-11-29 16h49.13.193329 +0530,
square.png,you,1,M,,,,,,,,,12,0,48,0,,,,,,,,,263.30997530010063,,,,,,,,,,,,,,,,,,,,,,,,,,,,,,,,,,263.29444409999996,263.30997530010063,263.7938875000691,263.7938875000691,263.7938875000691,263.7938875000691,263.8103834000649,264.0938442000188,264.0938442000188,264.0938442000188,,264.6282442000229,z,264.62864790007006,264.64414380001836,265.6445665000938,265.6284724000143,0.8188813999295235,None,,,,,,,,,,,,,,,,,,,,,,,,,,,,,,,,,,,,,,,,,,,,,,,,,,,,,,,,,,,,,,,,,,,,,,,,,,,,,,,,,,,B_11,001,2024-11-29_16h48.57.479,untitled,2024.1.5,None,2024-11-29 16h49.13.193329 +0530,
square.png,stranger,0,Z,,,,,,,,,12,1,49,2,,,,,,,,,265.6445665000938,,,,,,,,,,,,,,,,,,,,,,,,,,,,,,,,,,265.62882670003455,265.6445665000938,266.1283182000043,266.1283182000043,266.1283182000043,266.1283182000043,266.14501179999206,266.4283447000198,266.4283447000198,266.4283447000198,,266.54562760004774,m,266.54604799998924,266.5618152000243,267.5624499000842,267.54616110003553,0.40568150009494275,None,,,,,,,,,,,,,,,,,,,,,,,,,,,,,,,,,,,,,,,,,,,,,,,,,,,,,,,,,,,,,,,,,,,,,,,,,,,,,,,,,,,B_11,001,2024-11-29_16h48.57.479,untitled,2024.1.5,None,2024-11-29 16h49.13.193329 +0530,
triangle.png,you,0,Z,,,,,,,,,12,2,50,3,,,,,,,,,267.5624499000842,,,,,,,,,,,,,,,,,,,,,,,,,,,,,,,,,,267.54651940008625,267.5624499000842,268.04606630001217,268.04606630001217,268.04606630001217,268.04606630001217,268.0626915000612,268.3458377000643,268.3458377000643,268.3458377000643,269.1464459000854,269.1302169000264,None,269.13040780008305,269.1464459000854,270.14699240005575,270.1305480999872,,,,,,,,,,,,,,,,,,,,,,,,,,,,,,,,,,,,,,,,,,,,,,,,,,,,,,,,,,,,,,,,,,,,,,,,,,,,,,,,,,,,,B_11,001,2024-11-29_16h48.57.479,untitled,2024.1.5,None,2024-11-29 16h49.13.193329 +0530,
triangle.png,stranger,1,M,,,,,,,,,12,3,51,1,,,,,,,,,270.14699240005575,,,,,,,,,,,,,,,,,,,,,,,,,,,,,,,,,,270.1309109000722,270.14699240005575,270.6474952000426,270.6474952000426,270.6474952000426,270.6474952000426,270.6474952000426,270.9472193000838,270.9472193000838,270.9472193000838,,271.0980431000935,m,271.0984547000844,271.1142249000259,272.11475120007526,272.09845739998855,0.44912060000933707,None,,,,,,,,,,,,,,,,,,,,,,,,,,,,,,,,,,,,,,,,,,,,,,,,,,,,,,,,,,,,,,,,,,,,,,,,,,,,,,,,,,,B_11,001,2024-11-29_16h48.57.479,untitled,2024.1.5,None,2024-11-29 16h49.13.193329 +0530,
triangle.png,you,0,Z,,,,,,,,,13,0,52,3,,,,,,,,,272.11475120007526,,,,,,,,,,,,,,,,,,,,,,,,,,,,,,,,,,272.09881420002785,272.11475120007526,272.5982531000627,272.5982531000627,272.5982531000627,272.5982531000627,272.61503950005863,272.8980950000696,272.8980950000696,272.8980950000696,,272.99897150008474,z,272.99937630002387,273.0152856000932,274.0157215000363,273.9993891000049,0.3995593999279663,None,,,,,,,,,,,,,,,,,,,,,,,,,,,,,,,,,,,,,,,,,,,,,,,,,,,,,,,,,,,,,,,,,,,,,,,,,,,,,,,,,,,B_11,001,2024-11-29_16h48.57.479,untitled,2024.1.5,None,2024-11-29 16h49.13.193329 +0530,
triangle.png,stranger,1,M,,,,,,,,,13,1,53,1,,,,,,,,,274.0157215000363,,,,,,,,,,,,,,,,,,,,,,,,,,,,,,,,,,273.99974820006173,274.0157215000363,274.49897379998583,274.49897379998583,274.49897379998583,274.49897379998583,274.51555350003764,274.79897860006895,274.79897860006895,274.79897860006895,,274.8999855000293,m,274.9003901000833,274.9161820000736,275.91682809998747,275.9004269000143,0.395322100026533,None,,,,,,,,,,,,,,,,,,,,,,,,,,,,,,,,,,,,,,,,,,,,,,,,,,,,,,,,,,,,,,,,,,,,,,,,,,,,,,,,,,,B_11,001,2024-11-29_16h48.57.479,untitled,2024.1.5,None,2024-11-29 16h49.13.193329 +0530,
square.png,you,1,M,,,,,,,,,13,2,54,0,,,,,,,,,275.91682809998747,,,,,,,,,,,,,,,,,,,,,,,,,,,,,,,,,,275.9007828000467,275.91682809998747,276.4005457999883,276.4005457999883,276.4005457999883,276.4005457999883,276.4168330000248,276.70001680008136,276.70001680008136,276.70001680008136,,276.9346171000507,z,276.9350191000849,276.9507320000557,277.950997200096,277.9348462000489,0.5255605999846011,None,,,,,,,,,,,,,,,,,,,,,,,,,,,,,,,,,,,,,,,,,,,,,,,,,,,,,,,,,,,,,,,,,,,,,,,,,,,,,,,,,,,B_11,001,2024-11-29_16h48.57.479,untitled,2024.1.5,None,2024-11-29 16h49.13.193329 +0530,
square.png,stranger,0,Z,,,,,,,,,13,3,55,2,,,,,,,,,277.950997200096,,,,,,,,,,,,,,,,,,,,,,,,,,,,,,,,,,277.93520140007604,277.950997200096,278.43465830001514,278.43465830001514,278.43465830001514,278.43465830001514,278.4512697000755,278.73450920009054,278.73450920009054,278.73450920009054,279.5351524000289,279.5187589999987,None,279.51895030005835,279.5351524000289,280.5356176000787,280.51928170002066,,,,,,,,,,,,,,,,,,,,,,,,,,,,,,,,,,,,,,,,,,,,,,,,,,,,,,,,,,,,,,,,,,,,,,,,,,,,,,,,,,,,,B_11,001,2024-11-29_16h48.57.479,untitled,2024.1.5,None,2024-11-29 16h49.13.193329 +0530,
triangle.png,you,0,Z,,,,,,,,,14,0,56,3,,,,,,,,,280.5356176000787,,,,,,,,,,,,,,,,,,,,,,,,,,,,,,,,,,280.5196352000348,280.5356176000787,281.03603250009473,281.03603250009473,281.03603250009473,281.03603250009473,281.03603250009473,281.33611280005425,281.33611280005425,281.33611280005425,,281.3867912000278,m,281.38719600008335,281.4027771000983,282.4031277000904,282.386886900058,0.33435450005345047,None,,,,,,,,,,,,,,,,,,,,,,,,,,,,,,,,,,,,,,,,,,,,,,,,,,,,,,,,,,,,,,,,,,,,,,,,,,,,,,,,,,,B_11,001,2024-11-29_16h48.57.479,untitled,2024.1.5,None,2024-11-29 16h49.13.193329 +0530,
triangle.png,stranger,1,M,,,,,,,,,14,1,57,1,,,,,,,,,282.4031277000904,,,,,,,,,,,,,,,,,,,,,,,,,,,,,,,,,,282.3872419000836,282.4031277000904,282.88692300010007,282.88692300010007,282.88692300010007,282.88692300010007,282.90362040000036,283.1870237000985,283.1870237000985,283.1870237000985,,283.35431110009085,z,283.35472970001865,283.3703546000179,284.3710736000212,284.35450260003563,0.46582799998577684,None,,,,,,,,,,,,,,,,,,,,,,,,,,,,,,,,,,,,,,,,,,,,,,,,,,,,,,,,,,,,,,,,,,,,,,,,,,,,,,,,,,,B_11,001,2024-11-29_16h48.57.479,untitled,2024.1.5,None,2024-11-29 16h49.13.193329 +0530,
square.png,you,1,M,,,,,,,,,14,2,58,0,,,,,,,,,284.3710736000212,,,,,,,,,,,,,,,,,,,,,,,,,,,,,,,,,,284.3548576000612,284.3710736000212,284.85454209998716,284.85454209998716,284.85454209998716,284.85454209998716,284.87134539999533,285.1546426001005,285.1546426001005,285.1546426001005,,285.2052533000242,m,285.2056724000722,285.22130510001443,286.22175680007786,286.2057051000884,0.34297740005422384,None,,,,,,,,,,,,,,,,,,,,,,,,,,,,,,,,,,,,,,,,,,,,,,,,,,,,,,,,,,,,,,,,,,,,,,,,,,,,,,,,,,,B_11,001,2024-11-29_16h48.57.479,untitled,2024.1.5,None,2024-11-29 16h49.13.193329 +0530,
square.png,stranger,0,Z,,,,,,,,,14,3,59,2,,,,,,,,,286.22175680007786,,,,,,,,,,,,,,,,,,,,,,,,,,,,,,,,,,286.2060672000516,286.22175680007786,286.7054761000909,286.7054761000909,286.7054761000909,286.7054761000909,286.72231670003384,287.00565609999467,287.00565609999467,287.00565609999467,,287.0898430000525,z,287.0902481999947,287.1055754000554,288.1062807000708,288.0898844000185,0.3767459999071434,None,,,,,,,,,,,,,,,,,,,,,,,,,,,,,,,,,,,,,,,,,,,,,,,,,,,,,,,,,,,,,,,,,,,,,,,,,,,,,,,,,,,B_11,001,2024-11-29_16h48.57.479,untitled,2024.1.5,None,2024-11-29 16h49.13.193329 +0530,
triangle.png,you,0,Z,,,,,,,,,15,0,60,3,,,,,,,,,288.1062807000708,,,,,,,,,,,,,,,,,,,,,,,,,,,,,,,,,,288.09023980004713,288.1062807000708,288.5898807999911,288.5898807999911,288.5898807999911,288.5898807999911,288.6064672000939,288.8899051999906,288.8899051999906,288.8899051999906,,288.97377360006794,m,288.97417820000555,288.9899865000043,289.99081380001735,289.97428319999017,0.36879590002354234,None,,,,,,,,,,,,,,,,,,,,,,,,,,,,,,,,,,,,,,,,,,,,,,,,,,,,,,,,,,,,,,,,,,,,,,,,,,,,,,,,,,,B_11,001,2024-11-29_16h48.57.479,untitled,2024.1.5,None,2024-11-29 16h49.13.193329 +0530,
square.png,stranger,0,Z,,,,,,,,,15,1,61,2,,,,,,,,,289.99081380001735,,,,,,,,,,,,,,,,,,,,,,,,,,,,,,,,,,289.9746386000188,289.99081380001735,290.47427960007917,290.47427960007917,290.47427960007917,290.47427960007917,290.49091010005213,,,,,290.70826780004427,z,290.7086846000748,290.7240096000023,291.7247977000661,291.70855660003144,0.218980300007388,None,,,,,,,,,,,,,,,,,,,,,,,,,,,,,,,,,,,,,,,,,,,,,,,,,,,,,,,,,,,,,,,,,,,,,,,,,,,,,,,,,,,B_11,001,2024-11-29_16h48.57.479,untitled,2024.1.5,None,2024-11-29 16h49.13.193329 +0530,
triangle.png,stranger,1,M,,,,,,,,,15,2,62,1,,,,,,,,,291.7247977000661,,,,,,,,,,,,,,,,,,,,,,,,,,,,,,,,,,291.7089120000601,291.7247977000661,292.2085384000093,292.2085384000093,292.2085384000093,292.2085384000093,292.2249101999914,292.50852440006565,292.50852440006565,292.50852440006565,293.30871260003187,293.2923978000181,None,293.2925921001006,293.30871260003187,294.3092711000936,294.2929757999955,,,,,,,,,,,,,,,,,,,,,,,,,,,,,,,,,,,,,,,,,,,,,,,,,,,,,,,,,,,,,,,,,,,,,,,,,,,,,,,,,,,,,B_11,001,2024-11-29_16h48.57.479,untitled,2024.1.5,None,2024-11-29 16h49.13.193329 +0530,
square.png,you,1,M,,,,,,,,,15,3,63,0,,,,,,,,,294.3092711000936,,,,,,,,,,,,,,,,,,,,,,,,,,,,,,,,,,294.2933331000386,294.3092711000936,294.80963660008274,294.80963660008274,294.80963660008274,294.80963660008274,294.80963660008274,295.10983510001097,295.10983510001097,295.10983510001097,295.9101726000663,295.8940576000605,None,295.89425510005094,295.9101726000663,296.9106326000765,296.8944355000276,,,,,,,,,,,,,,,,,,,,,,,,,,,,,,,,,,,,,,,,,,,,,,,,,,,,,,,,,,,,,,,,,,,,,,,,,,,,,,,,,,,,,B_11,001,2024-11-29_16h48.57.479,untitled,2024.1.5,None,2024-11-29 16h49.13.193329 +0530,
square.png,you,1,M,,,,,,,,,16,0,64,0,,,,,,,,,296.9106326000765,,,,,,,,,,,,,,,,,,,,,,,,,,,,,,,,,,296.89479140006006,296.9106326000765,297.4111640000483,297.4111640000483,297.4111640000483,297.4111640000483,297.4111640000483,297.71117050002795,297.71117050002795,297.71117050002795,,297.96193630003836,m,297.96234870003536,297.9778784000082,298.97832090000156,298.9619975000387,0.5431858999654651,None,,,,,,,,,,,,,,,,,,,,,,,,,,,,,,,,,,,,,,,,,,,,,,,,,,,,,,,,,,,,,,,,,,,,,,,,,,,,,,,,,,,B_11,001,2024-11-29_16h48.57.479,untitled,2024.1.5,None,2024-11-29 16h49.13.193329 +0530,
triangle.png,you,0,Z,,,,,,,,,16,1,65,3,,,,,,,,,298.97832090000156,,,,,,,,,,,,,,,,,,,,,,,,,,,,,,,,,,298.9623631000286,298.97832090000156,299.4622062999988,299.4622062999988,299.4622062999988,299.4622062999988,299.47873750003055,299.76211160002276,299.76211160002276,299.76211160002276,,299.9129161000019,z,299.91333480004687,299.928980100085,300.9293928000843,300.9130876000272,0.44337480003014207,None,,,,,,,,,,,,,,,,,,,,,,,,,,,,,,,,,,,,,,,,,,,,,,,,,,,,,,,,,,,,,,,,,,,,,,,,,,,,,,,,,,,B_11,001,2024-11-29_16h48.57.479,untitled,2024.1.5,None,2024-11-29 16h49.13.193329 +0530,
triangle.png,stranger,1,M,,,,,,,,,16,2,66,1,,,,,,,,,300.9293928000843,,,,,,,,,,,,,,,,,,,,,,,,,,,,,,,,,,300.9134623000864,300.9293928000843,301.4135063000722,301.4135063000722,301.4135063000722,301.4135063000722,301.4299485000083,301.71319240005687,301.71319240005687,301.71319240005687,,301.86396520002745,m,301.86439310002606,301.879690800095,302.8804384000832,302.8643280999968,0.4358936999924481,None,,,,,,,,,,,,,,,,,,,,,,,,,,,,,,,,,,,,,,,,,,,,,,,,,,,,,,,,,,,,,,,,,,,,,,,,,,,,,,,,,,,B_11,001,2024-11-29_16h48.57.479,untitled,2024.1.5,None,2024-11-29 16h49.13.193329 +0530,
square.png,stranger,0,Z,,,,,,,,,16,3,67,2,,,,,,,,,302.8804384000832,,,,,,,,,,,,,,,,,,,,,,,,,,,,,,,,,,302.86468600004446,302.8804384000832,303.3640918000601,303.3640918000601,303.3640918000601,303.3640918000601,303.38094360008836,303.6640364000341,303.6640364000341,303.6640364000341,,303.76512840006035,z,303.76553850003984,303.78078880009707,304.78127879998647,304.76510509999935,0.396596199949272,None,,,,,,,,,,,,,,,,,,,,,,,,,,,,,,,,,,,,,,,,,,,,,,,,,,,,,,,,,,,,,,,,,,,,,,,,,,,,,,,,,,,B_11,001,2024-11-29_16h48.57.479,untitled,2024.1.5,None,2024-11-29 16h49.13.193329 +0530,
triangle.png,you,0,Z,,,,,,,,,17,0,68,3,,,,,,,,,304.78127879998647,,,,,,,,,,,,,,,,,,,,,,,,,,,,,,,,,,304.76546710007824,304.78127879998647,305.2652863000985,305.2652863000985,305.2652863000985,305.2652863000985,305.28164619999006,305.5652012000792,305.5652012000792,305.5652012000792,,305.74921929999255,m,305.7496303000953,305.7652312000282,306.7657789000077,306.74945790006313,0.46836529998108745,None,,,,,,,,,,,,,,,,,,,,,,,,,,,,,,,,,,,,,,,,,,,,,,,,,,,,,,,,,,,,,,,,,,,,,,,,,,,,,,,,,,,B_11,001,2024-11-29_16h48.57.479,untitled,2024.1.5,None,2024-11-29 16h49.13.193329 +0530,
square.png,stranger,0,Z,,,,,,,,,17,1,69,2,,,,,,,,,306.7657789000077,,,,,,,,,,,,,,,,,,,,,,,,,,,,,,,,,,306.74982160003856,306.7657789000077,307.2496205000207,307.2496205000207,307.2496205000207,307.2496205000207,307.26629290007986,307.54938240000047,307.54938240000047,307.54938240000047,,307.71692670008633,z,307.7173327000346,307.73303440003656,308.73353530000895,308.71723840001505,0.4636349000502378,None,,,,,,,,,,,,,,,,,,,,,,,,,,,,,,,,,,,,,,,,,,,,,,,,,,,,,,,,,,,,,,,,,,,,,,,,,,,,,,,,,,,B_11,001,2024-11-29_16h48.57.479,untitled,2024.1.5,None,2024-11-29 16h49.13.193329 +0530,
triangle.png,stranger,1,M,,,,,,,,,17,2,70,1,,,,,,,,,308.73353530000895,,,,,,,,,,,,,,,,,,,,,,,,,,,,,,,,,,308.7176070000278,308.73353530000895,309.2169290999882,309.2169290999882,309.2169290999882,309.2169290999882,309.2337370000314,309.5170545000583,309.5170545000583,309.5170545000583,,309.70113599998876,m,309.7015398000367,309.7174241000321,310.7178193000145,310.7015678000171,0.46910850005224347,None,,,,,,,,,,,,,,,,,,,,,,,,,,,,,,,,,,,,,,,,,,,,,,,,,,,,,,,,,,,,,,,,,,,,,,,,,,,,,,,,,,,B_11,001,2024-11-29_16h48.57.479,untitled,2024.1.5,None,2024-11-29 16h49.13.193329 +0530,
square.png,you,1,M,,,,,,,,,17,3,71,0,,,,,,,,,310.7178193000145,,,,,,,,,,,,,,,,,,,,,,,,,,,,,,,,,,310.70192650007084,310.7178193000145,311.2016413999954,311.2016413999954,311.2016413999954,311.2016413999954,311.21820340002887,311.5016546000261,311.5016546000261,311.5016546000261,,311.6524010000285,z,311.6528091999935,311.6683012000285,312.66887570009567,312.6525036999956,0.4429984000744298,None,,,,,,,,,,,,,,,,,,,,,,,,,,,,,,,,,,,,,,,,,,,,,,,,,,,,,,,,,,,,,,,,,,,,,,,,,,,,,,,,,,,B_11,001,2024-11-29_16h48.57.479,untitled,2024.1.5,None,2024-11-29 16h49.13.193329 +0530,
triangle.png,you,0,Z,,,,,,,,,18,0,72,3,,,,,,,,,312.66887570009567,,,,,,,,,,,,,,,,,,,,,,,,,,,,,,,,,,312.6528589000227,312.66887570009567,313.1525538000278,313.1525538000278,313.1525538000278,313.1525538000278,313.1692611000035,313.45250760007184,313.45250760007184,313.45250760007184,,313.5199189000996,m,313.5203251000494,313.5360421000514,314.5365664000856,314.5203344000038,0.35209379997104406,None,,,,,,,,,,,,,,,,,,,,,,,,,,,,,,,,,,,,,,,,,,,,,,,,,,,,,,,,,,,,,,,,,,,,,,,,,,,,,,,,,,,B_11,001,2024-11-29_16h48.57.479,untitled,2024.1.5,None,2024-11-29 16h49.13.193329 +0530,
square.png,you,1,M,,,,,,,,,18,1,73,0,,,,,,,,,314.5365664000856,,,,,,,,,,,,,,,,,,,,,,,,,,,,,,,,,,314.5206854999997,314.5365664000856,315.01998780004214,315.01998780004214,315.01998780004214,315.01998780004214,315.03686740004923,315.32017760002054,315.32017760002054,315.32017760002054,316.1204984000651,316.10414150008,None,316.10433520004153,316.1204984000651,317.1211065000389,317.1049891000148,,,,,,,,,,,,,,,,,,,,,,,,,,,,,,,,,,,,,,,,,,,,,,,,,,,,,,,,,,,,,,,,,,,,,,,,,,,,,,,,,,,,,B_11,001,2024-11-29_16h48.57.479,untitled,2024.1.5,None,2024-11-29 16h49.13.193329 +0530,
square.png,stranger,0,Z,,,,,,,,,18,2,74,2,,,,,,,,,317.1211065000389,,,,,,,,,,,,,,,,,,,,,,,,,,,,,,,,,,317.1053480000701,317.1211065000389,317.62173350004014,317.62173350004014,317.62173350004014,317.62173350004014,317.62173350004014,317.9212761000963,317.9212761000963,317.9212761000963,,317.98903280007653,m,317.98944130004384,318.0052208000561,319.0054061000701,318.9890690000029,0.36426429997663945,None,,,,,,,,,,,,,,,,,,,,,,,,,,,,,,,,,,,,,,,,,,,,,,,,,,,,,,,,,,,,,,,,,,,,,,,,,,,,,,,,,,,B_11,001,2024-11-29_16h48.57.479,untitled,2024.1.5,None,2024-11-29 16h49.13.193329 +0530,
triangle.png,stranger,1,M,,,,,,,,,18,3,75,1,,,,,,,,,319.0054061000701,,,,,,,,,,,,,,,,,,,,,,,,,,,,,,,,,,318.98942160001025,319.0054061000701,319.4892680000048,319.4892680000048,319.4892680000048,319.4892680000048,319.50560909998603,319.78899540007114,319.78899540007114,319.78899540007114,,319.9734596000053,z,319.9738718000008,319.9892805001,320.9896337999962,320.9734803000465,0.4680263000773266,None,,,,,,,,,,,,,,,,,,,,,,,,,,,,,,,,,,,,,,,,,,,,,,,,,,,,,,,,,,,,,,,,,,,,,,,,,,,,,,,,,,,B_11,001,2024-11-29_16h48.57.479,untitled,2024.1.5,None,2024-11-29 16h49.13.193329 +0530,
square.png,stranger,0,Z,,,,,,,,,19,0,76,2,,,,,,,,,320.9896337999962,,,,,,,,,,,,,,,,,,,,,,,,,,,,,,,,,,320.9738395999884,320.9896337999962,321.47347399999853,321.47347399999853,321.47347399999853,321.47347399999853,321.4900535000488,321.77344000001904,321.77344000001904,321.77344000001904,322.57402790000197,322.55776080000214,None,322.55795250006486,322.57402790000197,323.57451589999255,323.55839470005594,,,,,,,,,,,,,,,,,,,,,,,,,,,,,,,,,,,,,,,,,,,,,,,,,,,,,,,,,,,,,,,,,,,,,,,,,,,,,,,,,,,,,B_11,001,2024-11-29_16h48.57.479,untitled,2024.1.5,None,2024-11-29 16h49.13.193329 +0530,
square.png,you,1,M,,,,,,,,,19,1,77,0,,,,,,,,,323.57451589999255,,,,,,,,,,,,,,,,,,,,,,,,,,,,,,,,,,323.5587500000838,323.57451589999255,324.074842800037,324.074842800037,324.074842800037,324.074842800037,324.074842800037,324.37473780009896,324.37473780009896,324.37473780009896,,324.4757445000578,m,324.47616160009056,324.4916349000996,325.4920724000549,325.47578700003214,0.3990046000108123,None,,,,,,,,,,,,,,,,,,,,,,,,,,,,,,,,,,,,,,,,,,,,,,,,,,,,,,,,,,,,,,,,,,,,,,,,,,,,,,,,,,,B_11,001,2024-11-29_16h48.57.479,untitled,2024.1.5,None,2024-11-29 16h49.13.193329 +0530,
triangle.png,stranger,1,M,,,,,,,,,19,2,78,1,,,,,,,,,325.4920724000549,,,,,,,,,,,,,,,,,,,,,,,,,,,,,,,,,,325.47617090004496,325.4920724000549,325.97569300001487,325.97569300001487,325.97569300001487,325.97569300001487,325.99260990007315,326.27593330002856,326.27593330002856,326.27593330002856,,326.3767128000036,z,326.3771167000523,326.3927228000248,327.3932923000539,327.3768435000675,0.39847300003748387,None,,,,,,,,,,,,,,,,,,,,,,,,,,,,,,,,,,,,,,,,,,,,,,,,,,,,,,,,,,,,,,,,,,,,,,,,,,,,,,,,,,,B_11,001,2024-11-29_16h48.57.479,untitled,2024.1.5,None,2024-11-29 16h49.13.193329 +0530,
triangle.png,you,0,Z,,,,,,,,,19,3,79,3,,,,,,,,,327.3932923000539,,,,,,,,,,,,,,,,,,,,,,,,,,,,,,,,,,327.37720139999874,327.3932923000539,327.87659540004097,327.87659540004097,327.87659540004097,327.87659540004097,327.8932570000179,328.17665070004296,328.17665070004296,328.17665070004296,,328.27748180006165,m,328.2778941000579,328.29350140003953,329.2939103000099,329.2776142000221,0.3892828000243753,None,,,,,,,,,,,,,,,,,,,,,,,,,,,,,,,,,,,,,,,,,,,,,,,,,,,,,,,,,,,,,,,,,,,,,,,,,,,,,,,,,,,B_11,001,2024-11-29_16h48.57.479,untitled,2024.1.5,None,2024-11-29 16h49.13.193329 +0530,
square.png,you,1,M,,,,,,,,,20,0,80,0,,,,,,,,,329.2939103000099,,,,,,,,,,,,,,,,,,,,,,,,,,,,,,,,,,329.27797550009564,329.2939103000099,329.77757620008197,329.77757620008197,329.77757620008197,329.77757620008197,329.7942500000354,330.077802099986,330.077802099986,330.077802099986,,330.295357300085,z,330.2957588999998,330.31133840000257,331.31165000004694,331.29551040008664,0.503270799992606,None,,,,,,,,,,,,,,,,,,,,,,,,,,,,,,,,,,,,,,,,,,,,,,,,,,,,,,,,,,,,,,,,,,,,,,,,,,,,,,,,,,,B_11,001,2024-11-29_16h48.57.479,untitled,2024.1.5,None,2024-11-29 16h49.13.193329 +0530,
square.png,stranger,0,Z,,,,,,,,,20,1,81,2,,,,,,,,,331.31165000004694,,,,,,,,,,,,,,,,,,,,,,,,,,,,,,,,,,331.2958719000453,331.31165000004694,331.7953609999968,331.7953609999968,331.7953609999968,331.7953609999968,331.8122283000266,332.095345800044,332.095345800044,332.095345800044,,332.1961110000266,m,332.1965191999916,332.21225069998764,333.2127475000452,333.1964130999986,0.3982560000149533,None,,,,,,,,,,,,,,,,,,,,,,,,,,,,,,,,,,,,,,,,,,,,,,,,,,,,,,,,,,,,,,,,,,,,,,,,,,,,,,,,,,,B_11,001,2024-11-29_16h48.57.479,untitled,2024.1.5,None,2024-11-29 16h49.13.193329 +0530,
triangle.png,stranger,1,M,,,,,,,,,20,2,82,1,,,,,,,,,333.2127475000452,,,,,,,,,,,,,,,,,,,,,,,,,,,,,,,,,,333.19676880002953,333.2127475000452,333.6964900000021,333.6964900000021,333.6964900000021,333.6964900000021,333.7130534000462,333.9964233000064,333.9964233000064,333.9964233000064,,334.13066000002436,z,334.1310645000776,334.1463623000309,335.14711270004045,335.13065390009433,0.4289126000367105,None,,,,,,,,,,,,,,,,,,,,,,,,,,,,,,,,,,,,,,,,,,,,,,,,,,,,,,,,,,,,,,,,,,,,,,,,,,,,,,,,,,,B_11,001,2024-11-29_16h48.57.479,untitled,2024.1.5,None,2024-11-29 16h49.13.193329 +0530,
triangle.png,you,0,Z,,,,,,,,,20,3,83,3,,,,,,,,,335.14711270004045,,,,,,,,,,,,,,,,,,,,,,,,,,,,,,,,,,335.13101350003853,335.14711270004045,335.6308265000116,335.6308265000116,335.6308265000116,335.6308265000116,335.64741030009463,335.930868800031,335.930868800031,335.930868800031,,336.1815721000312,z,336.18197500007227,336.19750740006566,337.1981442000251,337.1818070000736,0.5431350000435486,None,,,,,,,,,,,,,,,,,,,,,,,,,,,,,,,,,,,,,,,,,,,,,,,,,,,,,,,,,,,,,,,,,,,,,,,,,,,,,,,,,,,B_11,001,2024-11-29_16h48.57.479,untitled,2024.1.5,None,2024-11-29 16h49.13.193329 +0530,
square.png,stranger,0,Z,,,,,,,,,21,0,84,2,,,,,,,,,337.1981442000251,,,,,,,,,,,,,,,,,,,,,,,,,,,,,,,,,,337.18216830003075,337.1981442000251,337.6820580000058,337.6820580000058,337.6820580000058,337.6820580000058,337.69832259998657,337.9817128001014,337.9817128001014,337.9817128001014,,338.16588820004836,z,338.1662914000917,338.1819405000424,339.1825503000291,339.1660942999879,0.4753256000112742,None,,,,,,,,,,,,,,,,,,,,,,,,,,,,,,,,,,,,,,,,,,,,,,,,,,,,,,,,,,,,,,,,,,,,,,,,,,,,,,,,,,,B_11,001,2024-11-29_16h48.57.479,untitled,2024.1.5,None,2024-11-29 16h49.13.193329 +0530,
triangle.png,you,0,Z,,,,,,,,,21,1,85,3,,,,,,,,,339.1825503000291,,,,,,,,,,,,,,,,,,,,,,,,,,,,,,,,,,339.16645380004775,339.1825503000291,339.666306200088,339.666306200088,339.666306200088,339.666306200088,339.6829679000657,339.96617560007144,339.96617560007144,339.96617560007144,,340.1003234999953,z,340.10072960006073,340.1162916000467,341.11658740008716,341.10051710007247,0.42776889994274825,None,,,,,,,,,,,,,,,,,,,,,,,,,,,,,,,,,,,,,,,,,,,,,,,,,,,,,,,,,,,,,,,,,,,,,,,,,,,,,,,,,,,B_11,001,2024-11-29_16h48.57.479,untitled,2024.1.5,None,2024-11-29 16h49.13.193329 +0530,
square.png,you,1,M,,,,,,,,,21,2,86,0,,,,,,,,,341.11658740008716,,,,,,,,,,,,,,,,,,,,,,,,,,,,,,,,,,341.1008808000479,341.11658740008716,341.6003343000775,341.6003343000775,341.6003343000775,341.6003343000775,341.6168882000493,341.9005784000037,341.9005784000037,341.9005784000037,,341.95126540004276,z,341.95168220007326,341.9672070000088,342.9677265000064,342.9515082000289,0.3444781999569386,None,,,,,,,,,,,,,,,,,,,,,,,,,,,,,,,,,,,,,,,,,,,,,,,,,,,,,,,,,,,,,,,,,,,,,,,,,,,,,,,,,,,B_11,001,2024-11-29_16h48.57.479,untitled,2024.1.5,None,2024-11-29 16h49.13.193329 +0530,
triangle.png,stranger,1,M,,,,,,,,,21,3,87,1,,,,,,,,,342.9677265000064,,,,,,,,,,,,,,,,,,,,,,,,,,,,,,,,,,342.95186360005755,342.9677265000064,343.45139629999176,343.45139629999176,343.45139629999176,343.45139629999176,343.4678686000407,343.7512690000003,343.7512690000003,343.7512690000003,,343.83550640009344,m,343.83591880009044,343.8515758999856,344.85184820008,344.8357792000752,0.3773360000923276,None,,,,,,,,,,,,,,,,,,,,,,,,,,,,,,,,,,,,,,,,,,,,,,,,,,,,,,,,,,,,,,,,,,,,,,,,,,,,,,,,,,,B_11,001,2024-11-29_16h48.57.479,untitled,2024.1.5,None,2024-11-29 16h49.13.193329 +0530,
triangle.png,stranger,1,M,,,,,,,,,22,0,88,1,,,,,,,,,344.85184820008,,,,,,,,,,,,,,,,,,,,,,,,,,,,,,,,,,344.8361492000986,344.85184820008,345.33582560007926,345.33582560007926,345.33582560007926,345.33582560007926,345.3524790999945,345.6358446000377,345.6358446000377,345.6358446000377,,345.7865016000578,z,345.7869133000495,345.80283719999716,346.80292030004784,346.78670460009016,0.4385206999722868,None,,,,,,,,,,,,,,,,,,,,,,,,,,,,,,,,,,,,,,,,,,,,,,,,,,,,,,,,,,,,,,,,,,,,,,,,,,,,,,,,,,,B_11,001,2024-11-29_16h48.57.479,untitled,2024.1.5,None,2024-11-29 16h49.13.193329 +0530,
triangle.png,you,0,Z,,,,,,,,,22,1,89,3,,,,,,,,,346.80292030004784,,,,,,,,,,,,,,,,,,,,,,,,,,,,,,,,,,346.7870708000846,346.80292030004784,347.28669290000107,347.28669290000107,347.28669290000107,347.28669290000107,347.3032884000568,347.5865660000127,347.5865660000127,347.5865660000127,,347.6376921000192,m,347.6381055000238,347.65352450008504,348.6539360000752,348.6379501000047,0.33452580007724464,None,,,,,,,,,,,,,,,,,,,,,,,,,,,,,,,,,,,,,,,,,,,,,,,,,,,,,,,,,,,,,,,,,,,,,,,,,,,,,,,,,,,B_11,001,2024-11-29_16h48.57.479,untitled,2024.1.5,None,2024-11-29 16h49.13.193329 +0530,
square.png,stranger,0,Z,,,,,,,,,22,2,90,2,,,,,,,,,348.6539360000752,,,,,,,,,,,,,,,,,,,,,,,,,,,,,,,,,,348.6383079000516,348.6539360000752,349.1376991000725,349.1376991000725,349.1376991000725,349.1376991000725,349.1541805000743,349.4377565000905,349.4377565000905,349.4377565000905,,349.48855430004187,z,349.48895969998557,349.50453170004766,350.5050079000648,350.4886614000425,0.340423799934797,None,,,,,,,,,,,,,,,,,,,,,,,,,,,,,,,,,,,,,,,,,,,,,,,,,,,,,,,,,,,,,,,,,,,,,,,,,,,,,,,,,,,B_11,001,2024-11-29_16h48.57.479,untitled,2024.1.5,None,2024-11-29 16h49.13.193329 +0530,
square.png,you,1,M,,,,,,,,,22,3,91,0,,,,,,,,,350.5050079000648,,,,,,,,,,,,,,,,,,,,,,,,,,,,,,,,,,350.48903150006663,350.5050079000648,350.98867960006464,350.98867960006464,350.98867960006464,350.98867960006464,351.0053006000817,351.2887253999943,351.2887253999943,351.2887253999943,,351.3560856000986,m,351.3564946000697,351.3719688000856,352.3727085000137,352.35623780009337,0.36405779991764575,None,,,,,,,,,,,,,,,,,,,,,,,,,,,,,,,,,,,,,,,,,,,,,,,,,,,,,,,,,,,,,,,,,,,,,,,,,,,,,,,,,,,B_11,001,2024-11-29_16h48.57.479,untitled,2024.1.5,None,2024-11-29 16h49.13.193329 +0530,
triangle.png,you,0,Z,,,,,,,,,23,0,92,3,,,,,,,,,352.3727085000137,,,,,,,,,,,,,,,,,,,,,,,,,,,,,,,,,,352.3565929000033,352.3727085000137,352.85633590002544,352.85633590002544,352.85633590002544,352.85633590002544,352.87301910005044,353.15633730008267,353.15633730008267,353.15633730008267,,353.32369420002215,z,353.32410399999935,353.33961910009384,354.3401490000542,354.3240001000231,0.45763860002625734,None,,,,,,,,,,,,,,,,,,,,,,,,,,,,,,,,,,,,,,,,,,,,,,,,,,,,,,,,,,,,,,,,,,,,,,,,,,,,,,,,,,,B_11,001,2024-11-29_16h48.57.479,untitled,2024.1.5,None,2024-11-29 16h49.13.193329 +0530,
square.png,you,1,M,,,,,,,,,23,1,93,0,,,,,,,,,354.3401490000542,,,,,,,,,,,,,,,,,,,,,,,,,,,,,,,,,,354.3243572000647,354.3401490000542,354.8239193999907,354.8239193999907,354.8239193999907,354.8239193999907,354.8404696000507,355.1240241000196,355.1240241000196,355.1240241000196,,355.2914747000905,m,355.29188220005017,355.30767050001305,356.3081009000307,356.29159070004243,0.4619583000894636,None,,,,,,,,,,,,,,,,,,,,,,,,,,,,,,,,,,,,,,,,,,,,,,,,,,,,,,,,,,,,,,,,,,,,,,,,,,,,,,,,,,,B_11,001,2024-11-29_16h48.57.479,untitled,2024.1.5,None,2024-11-29 16h49.13.193329 +0530,
square.png,stranger,0,Z,,,,,,,,,23,2,94,2,,,,,,,,,356.3081009000307,,,,,,,,,,,,,,,,,,,,,,,,,,,,,,,,,,356.29195109999273,356.3081009000307,356.79144830000587,356.79144830000587,356.79144830000587,356.79144830000587,356.80877760006115,357.0917133000912,357.0917133000912,357.0917133000912,,357.09248130000196,z,357.09288160002325,357.1081764000701,358.1087601000909,358.0928331000032,0.2981590999988839,None,,,,,,,,,,,,,,,,,,,,,,,,,,,,,,,,,,,,,,,,,,,,,,,,,,,,,,,,,,,,,,,,,,,,,,,,,,,,,,,,,,,B_11,001,2024-11-29_16h48.57.479,untitled,2024.1.5,None,2024-11-29 16h49.13.193329 +0530,
triangle.png,stranger,1,M,,,,,,,,,23,3,95,1,,,,,,,,,358.1087601000909,,,,,,,,,,,,,,,,,,,,,,,,,,,,,,,,,,358.0931889000349,358.1087601000909,358.5925475000404,358.5925475000404,358.5925475000404,358.5925475000404,358.6091543000657,358.8925989000127,358.8925989000127,358.8925989000127,,358.976573400083,m,358.97698100004345,358.99271910008974,359.99319250008557,359.9769519000547,0.37349320005159825,None,,,,,,,,,,,,,,,,,,,,,,,,,,,,,,,,,,,,,,,,,,,,,,,,,,,,,,,,,,,,,,,,,,,,,,,,,,,,,,,,,,,B_11,001,2024-11-29_16h48.57.479,untitled,2024.1.5,None,2024-11-29 16h49.13.193329 +0530,
triangle.png,you,0,Z,,,,,,,,,24,0,96,3,,,,,,,,,359.99319250008557,,,,,,,,,,,,,,,,,,,,,,,,,,,,,,,,,,359.9773130000103,359.99319250008557,360.4768524999963,360.4768524999963,360.4768524999963,360.4768524999963,360.49333590001334,360.77667689998634,360.77667689998634,360.77667689998634,,360.8941418000031,z,360.8945608000504,360.9101128000766,361.9109257000964,361.8944884000812,0.4045166000723839,None,,,,,,,,,,,,,,,,,,,,,,,,,,,,,,,,,,,,,,,,,,,,,,,,,,,,,,,,,,,,,,,,,,,,,,,,,,,,,,,,,,,B_11,001,2024-11-29_16h48.57.479,untitled,2024.1.5,None,2024-11-29 16h49.13.193329 +0530,
triangle.png,stranger,1,M,,,,,,,,,24,1,97,1,,,,,,,,,361.9109257000964,,,,,,,,,,,,,,,,,,,,,,,,,,,,,,,,,,361.89484470000025,361.9109257000964,362.3946334000211,362.3946334000211,362.3946334000211,362.3946334000211,362.4110201000003,362.6945968000218,362.6945968000218,362.6945968000218,,362.7621024000691,m,362.76250459998846,362.7779877000721,363.7784954000963,363.7619701999938,0.36196620005648583,None,,,,,,,,,,,,,,,,,,,,,,,,,,,,,,,,,,,,,,,,,,,,,,,,,,,,,,,,,,,,,,,,,,,,,,,,,,,,,,,,,,,B_11,001,2024-11-29_16h48.57.479,untitled,2024.1.5,None,2024-11-29 16h49.13.193329 +0530,
square.png,stranger,0,Z,,,,,,,,,24,2,98,2,,,,,,,,,363.7784954000963,,,,,,,,,,,,,,,,,,,,,,,,,,,,,,,,,,363.76232920004986,363.7784954000963,364.2620841000462,364.2620841000462,364.2620841000462,364.2620841000462,364.2786711000372,364.56225050007924,364.56225050007924,364.56225050007924,,364.6129835000029,z,364.6133887000615,364.6288829999976,365.6294043000089,365.61297580006067,0.3393048000289127,None,,,,,,,,,,,,,,,,,,,,,,,,,,,,,,,,,,,,,,,,,,,,,,,,,,,,,,,,,,,,,,,,,,,,,,,,,,,,,,,,,,,B_11,001,2024-11-29_16h48.57.479,untitled,2024.1.5,None,2024-11-29 16h49.13.193329 +0530,
square.png,you,1,M,,,,,,,,,24,3,99,0,,,,,,,,,365.6294043000089,,,,,,,,,,,,,,,,,,,,,,,,,,,,,,,,,,365.613340800046,365.6294043000089,366.1132350000553,366.1132350000553,366.1132350000553,366.1132350000553,366.1298708000686,366.413034300087,366.413034300087,366.413034300087,,366.4971667000791,m,366.4975771000609,366.51327950006817,367.5135466000065,367.49756450008135,0.36793850001413375,None,,,,,,,,,,,,,,,,,,,,,,,,,,,,,,,,,,,,,,,,,,,,,,,,,,,,,,,,,,,,,,,,,,,,,,,,,,,,,,,,,,,B_11,001,2024-11-29_16h48.57.479,untitled,2024.1.5,None,2024-11-29 16h49.13.193329 +0530,
square.png,stranger,0,Z,,,,,,,,,25,0,100,2,,,,,,,,,367.5135466000065,,,,,,,,,,,,,,,,,,,,,,,,,,,,,,,,,,367.49791850009933,367.5135466000065,367.9971952000633,367.9971952000633,367.9971952000633,367.9971952000633,368.01400990004186,,,,,368.1479631999973,z,368.1483756999951,368.1640111000743,369.1643893000437,369.14824800007045,None,None,,,,,,,,,,,,,,,,,,,,,,,,,,,,,,,,,,,,,,,,,,,,,,,,,,,,,,,,,,,,,,,,,,,,,,,,,,,,,,,,,,,B_11,001,2024-11-29_16h48.57.479,untitled,2024.1.5,None,2024-11-29 16h49.13.193329 +0530,
square.png,you,1,M,,,,,,,,,25,1,101,0,,,,,,,,,369.1643893000437,,,,,,,,,,,,,,,,,,,,,,,,,,,,,,,,,,369.1486057000002,369.1643893000437,369.6482696000021,369.6482696000021,369.6482696000021,369.6482696000021,369.6647758000763,,,,,369.8324803999858,m,369.8328907000832,369.8480392000638,370.84885479998775,370.8324579000473,0.1737550999969244,None,,,,,,,,,,,,,,,,,,,,,,,,,,,,,,,,,,,,,,,,,,,,,,,,,,,,,,,,,,,,,,,,,,,,,,,,,,,,,,,,,,,B_11,001,2024-11-29_16h48.57.479,untitled,2024.1.5,None,2024-11-29 16h49.13.193329 +0530,
triangle.png,you,0,Z,,,,,,,,,25,2,102,3,,,,,,,,,370.84885479998775,,,,,,,,,,,,,,,,,,,,,,,,,,,,,,,,,,370.8328132000752,370.84885479998775,371.33262130001094,371.33262130001094,371.33262130001094,371.33262130001094,371.34930650005117,371.6325263000326,371.6325263000326,371.6325263000326,,371.68309430009685,z,371.68349820002913,371.69925639999565,372.69981660007033,372.6835172000574,0.34473680006340146,None,,,,,,,,,,,,,,,,,,,,,,,,,,,,,,,,,,,,,,,,,,,,,,,,,,,,,,,,,,,,,,,,,,,,,,,,,,,,,,,,,,,B_11,001,2024-11-29_16h48.57.479,untitled,2024.1.5,None,2024-11-29 16h49.13.193329 +0530,
triangle.png,stranger,1,M,,,,,,,,,25,3,103,1,,,,,,,,,372.69981660007033,,,,,,,,,,,,,,,,,,,,,,,,,,,,,,,,,,372.68387609999627,372.69981660007033,373.18355790001806,373.18355790001806,373.18355790001806,373.18355790001806,373.1999583999859,373.48313430009875,373.48313430009875,373.48313430009875,,373.5841899000807,m,373.5846017000731,373.6001747000264,374.6006466000108,374.58446600008756,0.39322720002382994,None,,,,,,,,,,,,,,,,,,,,,,,,,,,,,,,,,,,,,,,,,,,,,,,,,,,,,,,,,,,,,,,,,,,,,,,,,,,,,,,,,,,B_11,001,2024-11-29_16h48.57.479,untitled,2024.1.5,None,2024-11-29 16h49.13.193329 +0530,
square.png,stranger,0,Z,,,,,,,,,26,0,104,2,,,,,,,,,374.6006466000108,,,,,,,,,,,,,,,,,,,,,,,,,,,,,,,,,,374.58482170000207,374.6006466000108,375.0843243000563,375.0843243000563,375.0843243000563,375.0843243000563,375.1011198000051,,,,,375.33521320007276,z,375.3356253000675,375.35113419999834,376.3516461000545,376.3354063000297,0.24515720002818853,None,,,,,,,,,,,,,,,,,,,,,,,,,,,,,,,,,,,,,,,,,,,,,,,,,,,,,,,,,,,,,,,,,,,,,,,,,,,,,,,,,,,B_11,001,2024-11-29_16h48.57.479,untitled,2024.1.5,None,2024-11-29 16h49.13.193329 +0530,
triangle.png,you,0,Z,,,,,,,,,26,1,105,3,,,,,,,,,376.3516461000545,,,,,,,,,,,,,,,,,,,,,,,,,,,,,,,,,,376.3357624000637,376.3516461000545,376.83514209999703,376.83514209999703,376.83514209999703,376.83514209999703,376.8520298000658,377.1353825000115,377.1353825000115,377.1353825000115,,377.33597880008165,m,377.3363846000284,377.3522437000647,378.3526282000821,378.33619530010037,0.48566490004304796,None,,,,,,,,,,,,,,,,,,,,,,,,,,,,,,,,,,,,,,,,,,,,,,,,,,,,,,,,,,,,,,,,,,,,,,,,,,,,,,,,,,,B_11,001,2024-11-29_16h48.57.479,untitled,2024.1.5,None,2024-11-29 16h49.13.193329 +0530,
square.png,you,1,M,,,,,,,,,26,2,106,0,,,,,,,,,378.3526282000821,,,,,,,,,,,,,,,,,,,,,,,,,,,,,,,,,,378.33655110001564,378.3526282000821,378.8360901999986,378.8360901999986,378.8360901999986,378.8360901999986,378.85285840008873,379.1361539000645,379.1361539000645,379.1361539000645,,379.23700180009473,z,379.2374127000803,379.2530139000155,380.25363699998707,380.2373977000825,0.3965372000820935,None,,,,,,,,,,,,,,,,,,,,,,,,,,,,,,,,,,,,,,,,,,,,,,,,,,,,,,,,,,,,,,,,,,,,,,,,,,,,,,,,,,,B_11,001,2024-11-29_16h48.57.479,untitled,2024.1.5,None,2024-11-29 16h49.13.193329 +0530,
triangle.png,stranger,1,M,,,,,,,,,26,3,107,1,,,,,,,,,380.25363699998707,,,,,,,,,,,,,,,,,,,,,,,,,,,,,,,,,,380.2377520999871,380.25363699998707,380.737195600057,380.737195600057,380.737195600057,380.737195600057,380.7540152000729,381.0371645000996,381.0371645000996,381.0371645000996,,381.22132270003203,m,381.2217279000906,381.2375266000163,382.2377817000961,382.2216688999906,0.48063240002375096,None,,,,,,,,,,,,,,,,,,,,,,,,,,,,,,,,,,,,,,,,,,,,,,,,,,,,,,,,,,,,,,,,,,,,,,,,,,,,,,,,,,,B_11,001,2024-11-29_16h48.57.479,untitled,2024.1.5,None,2024-11-29 16h49.13.193329 +0530,
triangle.png,you,0,Z,,,,,,,,,27,0,108,3,,,,,,,,,382.2377817000961,,,,,,,,,,,,,,,,,,,,,,,,,,,,,,,,,,382.22202380001545,382.2377817000961,382.72168800001964,382.72168800001964,382.72168800001964,382.72168800001964,382.7380913000088,383.021479499992,383.021479499992,383.021479499992,,383.08885120006744,z,383.08926070004236,383.105103900074,384.1054043000331,384.08929720008746,0.3607757000718266,None,,,,,,,,,,,,,,,,,,,,,,,,,,,,,,,,,,,,,,,,,,,,,,,,,,,,,,,,,,,,,,,,,,,,,,,,,,,,,,,,,,,B_11,001,2024-11-29_16h48.57.479,untitled,2024.1.5,None,2024-11-29 16h49.13.193329 +0530,
square.png,you,1,M,,,,,,,,,27,1,109,0,,,,,,,,,384.1054043000331,,,,,,,,,,,,,,,,,,,,,,,,,,,,,,,,,,384.0896514999913,384.1054043000331,384.5890844000969,384.5890844000969,384.5890844000969,384.5890844000969,384.6059731000569,384.8891531000845,384.8891531000845,384.8891531000845,,385.02342179999687,m,385.02383760001976,385.03939980000723,386.03997360006906,386.02348890004214,0.4288255999563262,None,,,,,,,,,,,,,,,,,,,,,,,,,,,,,,,,,,,,,,,,,,,,,,,,,,,,,,,,,,,,,,,,,,,,,,,,,,,,,,,,,,,B_11,001,2024-11-29_16h48.57.479,untitled,2024.1.5,None,2024-11-29 16h49.13.193329 +0530,
triangle.png,stranger,1,M,,,,,,,,,27,2,110,1,,,,,,,,,386.03997360006906,,,,,,,,,,,,,,,,,,,,,,,,,,,,,,,,,,386.0238411000464,386.03997360006906,386.5237119999947,386.5237119999947,386.5237119999947,386.5237119999947,386.5402760000434,386.8235813000938,386.8235813000938,386.8235813000938,,386.8909225000534,z,386.8913808000507,386.9070694000693,387.9077403000556,387.89113770006225,0.3530868000816554,None,,,,,,,,,,,,,,,,,,,,,,,,,,,,,,,,,,,,,,,,,,,,,,,,,,,,,,,,,,,,,,,,,,,,,,,,,,,,,,,,,,,B_11,001,2024-11-29_16h48.57.479,untitled,2024.1.5,None,2024-11-29 16h49.13.193329 +0530,
square.png,stranger,0,Z,,,,,,,,,27,3,111,2,,,,,,,,,387.9077403000556,,,,,,,,,,,,,,,,,,,,,,,,,,,,,,,,,,387.8914923000848,387.9077403000556,388.3915707000997,388.3915707000997,388.3915707000997,388.3915707000997,388.4079700000584,388.69087110005785,388.69087110005785,388.69087110005785,,388.74185880005825,m,388.7422745000804,388.7577380000148,389.75853190000635,389.7422542000422,0.3372539998963475,None,,,,,,,,,,,,,,,,,,,,,,,,,,,,,,,,,,,,,,,,,,,,,,,,,,,,,,,,,,,,,,,,,,,,,,,,,,,,,,,,,,,B_11,001,2024-11-29_16h48.57.479,untitled,2024.1.5,None,2024-11-29 16h49.13.193329 +0530,
triangle.png,you,0,Z,,,,,,,,,28,0,112,3,,,,,,,,,389.75853190000635,,,,,,,,,,,,,,,,,,,,,,,,,,,,,,,,,,389.7426071000518,389.75853190000635,390.2420913000824,390.2420913000824,390.2420913000824,390.2420913000824,390.2586443000473,390.54206070001237,390.54206070001237,390.54206070001237,,390.75976350007113,z,390.7601716000354,390.7756013000617,391.7762053000042,391.7599843000062,0.512172499904409,None,,,,,,,,,,,,,,,,,,,,,,,,,,,,,,,,,,,,,,,,,,,,,,,,,,,,,,,,,,,,,,,,,,,,,,,,,,,,,,,,,,,B_11,001,2024-11-29_16h48.57.479,untitled,2024.1.5,None,2024-11-29 16h49.13.193329 +0530,
triangle.png,stranger,1,M,,,,,,,,,28,1,113,1,,,,,,,,,391.7762053000042,,,,,,,,,,,,,,,,,,,,,,,,,,,,,,,,,,391.7603400000371,391.7762053000042,392.2598291999893,392.2598291999893,392.2598291999893,392.2598291999893,392.2764158000937,392.5597567000659,392.5597567000659,392.5597567000659,,392.61057670006994,m,392.61098080000374,392.62670720007736,393.6269669000758,393.6108716999879,0.3492287000408396,None,,,,,,,,,,,,,,,,,,,,,,,,,,,,,,,,,,,,,,,,,,,,,,,,,,,,,,,,,,,,,,,,,,,,,,,,,,,,,,,,,,,B_11,001,2024-11-29_16h48.57.479,untitled,2024.1.5,None,2024-11-29 16h49.13.193329 +0530,
square.png,stranger,0,Z,,,,,,,,,28,2,114,2,,,,,,,,,393.6269669000758,,,,,,,,,,,,,,,,,,,,,,,,,,,,,,,,,,393.61123570008203,393.6269669000758,394.11065090005286,394.11065090005286,394.11065090005286,394.11065090005286,394.1274041000288,394.41082810005173,394.41082810005173,394.41082810005173,,394.4783731000498,z,394.47878430003766,394.4941013000207,395.494708100101,395.4785641999915,0.3594272999325767,None,,,,,,,,,,,,,,,,,,,,,,,,,,,,,,,,,,,,,,,,,,,,,,,,,,,,,,,,,,,,,,,,,,,,,,,,,,,,,,,,,,,B_11,001,2024-11-29_16h48.57.479,untitled,2024.1.5,None,2024-11-29 16h49.13.193329 +0530,
square.png,you,1,M,,,,,,,,,28,3,115,0,,,,,,,,,395.494708100101,,,,,,,,,,,,,,,,,,,,,,,,,,,,,,,,,,395.4789206000278,395.494708100101,395.9782957000425,395.9782957000425,395.9782957000425,395.9782957000425,395.994970300002,396.27850040001795,396.27850040001795,396.27850040001795,,396.31249270006083,m,396.312904600054,396.3283155000536,397.3290997000877,397.31283180008177,0.3235929999500513,None,,,,,,,,,,,,,,,,,,,,,,,,,,,,,,,,,,,,,,,,,,,,,,,,,,,,,,,,,,,,,,,,,,,,,,,,,,,,,,,,,,,B_11,001,2024-11-29_16h48.57.479,untitled,2024.1.5,None,2024-11-29 16h49.13.193329 +0530,
square.png,you,1,M,,,,,,,,,29,0,116,0,,,,,,,,,397.3290997000877,,,,,,,,,,,,,,,,,,,,,,,,,,,,,,,,,,397.3131923000328,397.3290997000877,397.8128433000529,397.8128433000529,397.8128433000529,397.8128433000529,397.8294279000256,398.11266410001554,398.11266410001554,398.11266410001554,,398.21346120000817,z,398.21387760003563,398.2296259000432,399.2300258000614,399.21371170005295,0.3850548999616876,None,,,,,,,,,,,,,,,,,,,,,,,,,,,,,,,,,,,,,,,,,,,,,,,,,,,,,,,,,,,,,,,,,,,,,,,,,,,,,,,,,,,B_11,001,2024-11-29_16h48.57.479,untitled,2024.1.5,None,2024-11-29 16h49.13.193329 +0530,
triangle.png,stranger,1,M,,,,,,,,,29,1,117,1,,,,,,,,,399.2300258000614,,,,,,,,,,,,,,,,,,,,,,,,,,,,,,,,,,399.2140753000276,399.2300258000614,399.7136542000808,399.7136542000808,399.7136542000808,399.7136542000808,399.73023660003673,400.01378899998963,400.01378899998963,400.01378899998963,,400.0645477999933,m,400.0649587000953,400.08020710002165,401.080989100039,401.0647558000637,0.3352519000181928,None,,,,,,,,,,,,,,,,,,,,,,,,,,,,,,,,,,,,,,,,,,,,,,,,,,,,,,,,,,,,,,,,,,,,,,,,,,,,,,,,,,,B_11,001,2024-11-29_16h48.57.479,untitled,2024.1.5,None,2024-11-29 16h49.13.193329 +0530,
square.png,stranger,0,Z,,,,,,,,,29,2,118,2,,,,,,,,,401.080989100039,,,,,,,,,,,,,,,,,,,,,,,,,,,,,,,,,,401.065115800011,401.080989100039,401.5648115000222,401.5648115000222,401.5648115000222,401.5648115000222,401.5813796999864,401.8645588000072,401.8645588000072,401.8645588000072,,401.9153367000399,z,401.91575580008794,401.93116000003647,402.93174450006336,402.9156757000601,0.3448680000146851,None,,,,,,,,,,,,,,,,,,,,,,,,,,,,,,,,,,,,,,,,,,,,,,,,,,,,,,,,,,,,,,,,,,,,,,,,,,,,,,,,,,,B_11,001,2024-11-29_16h48.57.479,untitled,2024.1.5,None,2024-11-29 16h49.13.193329 +0530,
triangle.png,you,0,Z,,,,,,,,,29,3,119,3,,,,,,,,,402.93174450006336,,,,,,,,,,,,,,,,,,,,,,,,,,,,,,,,,,402.9160415000515,402.93174450006336,403.4158066000091,403.4158066000091,403.4158066000091,403.4158066000091,403.43231320008636,403.7160023000324,403.7160023000324,403.7160023000324,,403.849879699992,m,403.8502901000902,403.8658457000274,404.8662108000135,404.8501793000614,0.429555100039579,None,,,,,,,,,,,,,,,,,,,,,,,,,,,,,,,,,,,,,,,,,,,,,,,,,,,,,,,,,,,,,,,,,,,,,,,,,,,,,,,,,,,B_11,001,2024-11-29_16h48.57.479,untitled,2024.1.5,None,2024-11-29 16h49.13.193329 +0530,
triangle.png,you,0,Z,,,,,,,,,30,0,120,3,,,,,,,,,404.8662108000135,,,,,,,,,,,,,,,,,,,,,,,,,,,,,,,,,,404.8505363999866,404.8662108000135,405.34987840009853,405.34987840009853,405.34987840009853,405.34987840009853,405.366450700094,405.64981350000016,405.64981350000016,405.64981350000016,,405.78382190002594,z,405.7842293001013,405.8002465000609,406.8005567000946,406.78420039999764,0.42684319999534637,None,,,,,,,,,,,,,,,,,,,,,,,,,,,,,,,,,,,,,,,,,,,,,,,,,,,,,,,,,,,,,,,,,,,,,,,,,,,,,,,,,,,B_11,001,2024-11-29_16h48.57.479,untitled,2024.1.5,None,2024-11-29 16h49.13.193329 +0530,
square.png,you,1,M,,,,,,,,,30,1,121,0,,,,,,,,,406.8005567000946,,,,,,,,,,,,,,,,,,,,,,,,,,,,,,,,,,406.78455360000953,406.8005567000946,407.28446250001434,407.28446250001434,407.28446250001434,407.28446250001434,407.30067820008844,407.58438530005515,407.58438530005515,407.58438530005515,,407.81829980004113,m,407.8187050000997,407.8344793000724,408.8348239000188,408.81888580007944,0.5217452000360936,None,,,,,,,,,,,,,,,,,,,,,,,,,,,,,,,,,,,,,,,,,,,,,,,,,,,,,,,,,,,,,,,,,,,,,,,,,,,,,,,,,,,B_11,001,2024-11-29_16h48.57.479,untitled,2024.1.5,None,2024-11-29 16h49.13.193329 +0530,
square.png,stranger,0,Z,,,,,,,,,30,2,122,2,,,,,,,,,408.8348239000188,,,,,,,,,,,,,,,,,,,,,,,,,,,,,,,,,,408.8192626000382,408.8348239000188,409.3188064000569,409.3188064000569,409.3188064000569,409.3188064000569,409.33518170006573,409.61862070008647,409.61862070008647,409.61862070008647,,409.61945200001355,z,409.6198609001003,409.63530620001256,410.635749500012,410.61948590003885,0.29136129992548376,None,,,,,,,,,,,,,,,,,,,,,,,,,,,,,,,,,,,,,,,,,,,,,,,,,,,,,,,,,,,,,,,,,,,,,,,,,,,,,,,,,,,B_11,001,2024-11-29_16h48.57.479,untitled,2024.1.5,None,2024-11-29 16h49.13.193329 +0530,
triangle.png,stranger,1,M,,,,,,,,,30,3,123,1,,,,,,,,,410.635749500012,,,,,,,,,,,,,,,,,,,,,,,,,,,,,,,,,,410.61984810000286,410.635749500012,411.1193828000687,411.1193828000687,411.1193828000687,411.1193828000687,411.1359835000476,411.41946280002594,411.41946280002594,411.41946280002594,412.2200713000493,412.20375820004847,None,412.2039473000914,412.2200713000493,413.220500000054,413.2040546000935,,,,,,,,,,,,,,,,,,,,,,,,,,,,,,,,,,,,,,,,,,,,,,,,,,,,,,,,,,,,,,,,,,,,,,,,,,,,,,,,,,,,,B_11,001,2024-11-29_16h48.57.479,untitled,2024.1.5,None,2024-11-29 16h49.13.193329 +0530,
square.png,you,1,M,,,,,,,,,31,0,124,0,,,,,,,,,413.220500000054,,,,,,,,,,,,,,,,,,,,,,,,,,,,,,,,,,413.2044082999928,413.220500000054,413.7210653000511,413.7210653000511,413.7210653000511,413.7210653000511,413.7210653000511,414.02099910005927,414.02099910005927,414.02099910005927,,414.15491949999705,m,414.1553201000206,414.17110050003976,415.17149660002906,415.1551025999943,0.4236690999241546,None,,,,,,,,,,,,,,,,,,,,,,,,,,,,,,,,,,,,,,,,,,,,,,,,,,,,,,,,,,,,,,,,,,,,,,,,,,,,,,,,,,,B_11,001,2024-11-29_16h48.57.479,untitled,2024.1.5,None,2024-11-29 16h49.13.193329 +0530,
triangle.png,you,0,Z,,,,,,,,,31,1,125,3,,,,,,,,,415.17149660002906,,,,,,,,,,,,,,,,,,,,,,,,,,,,,,,,,,415.1555258000735,415.17149660002906,415.65495340002235,415.65495340002235,415.65495340002235,415.65495340002235,415.6717681000009,415.95530910009984,415.95530910009984,415.95530910009984,,416.0059826000361,z,416.00642540003173,416.0218120000791,417.0225509000011,417.006279900088,0.3341842000372708,None,,,,,,,,,,,,,,,,,,,,,,,,,,,,,,,,,,,,,,,,,,,,,,,,,,,,,,,,,,,,,,,,,,,,,,,,,,,,,,,,,,,B_11,001,2024-11-29_16h48.57.479,untitled,2024.1.5,None,2024-11-29 16h49.13.193329 +0530,
triangle.png,stranger,1,M,,,,,,,,,31,2,126,1,,,,,,,,,417.0225509000011,,,,,,,,,,,,,,,,,,,,,,,,,,,,,,,,,,417.0066349999979,417.0225509000011,417.5060788000701,417.5060788000701,417.5060788000701,417.5060788000701,417.5227273000637,417.80626560002565,417.80626560002565,417.80626560002565,,417.8903877000557,m,417.89079610002227,417.9061175000388,418.9065749000292,418.89060799998697,0.37597219995222986,None,,,,,,,,,,,,,,,,,,,,,,,,,,,,,,,,,,,,,,,,,,,,,,,,,,,,,,,,,,,,,,,,,,,,,,,,,,,,,,,,,,,B_11,001,2024-11-29_16h48.57.479,untitled,2024.1.5,None,2024-11-29 16h49.13.193329 +0530,
square.png,stranger,0,Z,,,,,,,,,31,3,127,2,,,,,,,,,418.9065749000292,,,,,,,,,,,,,,,,,,,,,,,,,,,,,,,,,,418.8909671000438,418.9065749000292,419.39064480003435,419.39064480003435,419.39064480003435,419.39064480003435,419.4071698000189,419.69046130008064,419.69046130008064,419.69046130008064,,419.79129030008335,z,419.79169720003847,419.8073271000758,420.80790230003186,420.79128040000796,0.3939453000202775,None,,,,,,,,,,,,,,,,,,,,,,,,,,,,,,,,,,,,,,,,,,,,,,,,,,,,,,,,,,,,,,,,,,,,,,,,,,,,,,,,,,,B_11,001,2024-11-29_16h48.57.479,untitled,2024.1.5,None,2024-11-29 16h49.13.193329 +0530,
triangle.png,you,0,Z,,,,,,,,,32,0,128,3,,,,,,,,,420.80790230003186,,,,,,,,,,,,,,,,,,,,,,,,,,,,,,,,,,420.79163570003584,420.80790230003186,421.2913111000089,421.2913111000089,421.2913111000089,421.2913111000089,421.30818440008443,421.59141980006825,421.59141980006825,421.59141980006825,,421.64225330005866,m,421.642672099988,421.6580587000353,422.6586609000806,422.6424282999942,0.349699700018391,None,,,,,,,,,,,,,,,,,,,,,,,,,,,,,,,,,,,,,,,,,,,,,,,,,,,,,,,,,,,,,,,,,,,,,,,,,,,,,,,,,,,B_11,001,2024-11-29_16h48.57.479,untitled,2024.1.5,None,2024-11-29 16h49.13.193329 +0530,
square.png,stranger,0,Z,,,,,,,,,32,1,129,2,,,,,,,,,422.6586609000806,,,,,,,,,,,,,,,,,,,,,,,,,,,,,,,,,,422.6427926000906,422.6586609000806,423.14218600001186,423.14218600001186,423.14218600001186,423.14218600001186,423.1588220000267,423.4423517000396,423.4423517000396,423.4423517000396,,423.476279500057,z,423.47668339998927,423.4924985000398,424.49294600007124,424.47681520006154,0.31867499998770654,None,,,,,,,,,,,,,,,,,,,,,,,,,,,,,,,,,,,,,,,,,,,,,,,,,,,,,,,,,,,,,,,,,,,,,,,,,,,,,,,,,,,B_11,001,2024-11-29_16h48.57.479,untitled,2024.1.5,None,2024-11-29 16h49.13.193329 +0530,
square.png,you,1,M,,,,,,,,,32,2,130,0,,,,,,,,,424.49294600007124,,,,,,,,,,,,,,,,,,,,,,,,,,,,,,,,,,424.4771742000012,424.49294600007124,424.97654629999306,424.97654629999306,424.97654629999306,424.97654629999306,424.99323680007365,425.27675419999287,425.27675419999287,425.27675419999287,,425.2941110000247,m,425.2945206000004,425.30997390009,426.31045590003487,426.2942474000156,0.31667980004567653,None,,,,,,,,,,,,,,,,,,,,,,,,,,,,,,,,,,,,,,,,,,,,,,,,,,,,,,,,,,,,,,,,,,,,,,,,,,,,,,,,,,,B_11,001,2024-11-29_16h48.57.479,untitled,2024.1.5,None,2024-11-29 16h49.13.193329 +0530,
triangle.png,stranger,1,M,,,,,,,,,32,3,131,1,,,,,,,,,426.31045590003487,,,,,,,,,,,,,,,,,,,,,,,,,,,,,,,,,,426.2946102001006,426.31045590003487,426.7942099000793,426.7942099000793,426.7942099000793,426.7942099000793,426.81079620006494,,,,,426.94504170003347,z,426.9454629000975,426.96076560008805,427.96134999999776,427.94504620006774,0.1346366999205202,None,,,,,,,,,,,,,,,,,,,,,,,,,,,,,,,,,,,,,,,,,,,,,,,,,,,,,,,,,,,,,,,,,,,,,,,,,,,,,,,,,,,B_11,001,2024-11-29_16h48.57.479,untitled,2024.1.5,None,2024-11-29 16h49.13.193329 +0530,
square.png,you,1,M,,,,,,,,,33,0,132,0,,,,,,,,,427.96134999999776,,,,,,,,,,,,,,,,,,,,,,,,,,,,,,,,,,427.94541080005,427.96134999999776,428.4452814999968,428.4452814999968,428.4452814999968,428.4452814999968,428.46170220000204,428.7449893000303,428.7449893000303,428.7449893000303,,428.77936869999394,m,428.7797725000419,428.7951519000344,429.79564750008285,429.779472000082,0.332142100087367,None,,,,,,,,,,,,,,,,,,,,,,,,,,,,,,,,,,,,,,,,,,,,,,,,,,,,,,,,,,,,,,,,,,,,,,,,,,,,,,,,,,,B_11,001,2024-11-29_16h48.57.479,untitled,2024.1.5,None,2024-11-29 16h49.13.193329 +0530,
triangle.png,you,0,Z,,,,,,,,,33,1,133,3,,,,,,,,,429.79564750008285,,,,,,,,,,,,,,,,,,,,,,,,,,,,,,,,,,429.77982789999805,429.79564750008285,430.27947040006984,430.27947040006984,430.27947040006984,430.27947040006984,430.296209000051,430.5793222000357,430.5793222000357,430.5793222000357,,430.66355580009986,z,430.66396690008696,430.67928790010046,431.6801375000505,431.66362130001653,0.38229999993927777,None,,,,,,,,,,,,,,,,,,,,,,,,,,,,,,,,,,,,,,,,,,,,,,,,,,,,,,,,,,,,,,,,,,,,,,,,,,,,,,,,,,,B_11,001,2024-11-29_16h48.57.479,untitled,2024.1.5,None,2024-11-29 16h49.13.193329 +0530,
square.png,stranger,0,Z,,,,,,,,,33,2,134,2,,,,,,,,,431.6801375000505,,,,,,,,,,,,,,,,,,,,,,,,,,,,,,,,,,431.66397340002004,431.6801375000505,432.1637400999898,432.1637400999898,432.1637400999898,432.1637400999898,432.18045840004925,432.4635797000956,432.4635797000956,432.4635797000956,,432.581343100057,m,432.5817511000205,432.5971270999871,433.59771930007264,433.5813478000928,0.4064626001054421,None,,,,,,,,,,,,,,,,,,,,,,,,,,,,,,,,,,,,,,,,,,,,,,,,,,,,,,,,,,,,,,,,,,,,,,,,,,,,,,,,,,,B_11,001,2024-11-29_16h48.57.479,untitled,2024.1.5,None,2024-11-29 16h49.13.193329 +0530,
triangle.png,stranger,1,M,,,,,,,,,33,3,135,1,,,,,,,,,433.59771930007264,,,,,,,,,,,,,,,,,,,,,,,,,,,,,,,,,,433.5817037000088,433.59771930007264,434.0812457000138,434.0812457000138,434.0812457000138,434.0812457000138,434.09794560004957,434.3813817000482,434.3813817000482,434.3813817000482,,434.3821637000656,z,434.382575500058,434.39817380008753,435.3987200000556,435.382382000098,0.2955639000283554,None,,,,,,,,,,,,,,,,,,,,,,,,,,,,,,,,,,,,,,,,,,,,,,,,,,,,,,,,,,,,,,,,,,,,,,,,,,,,,,,,,,,B_11,001,2024-11-29_16h48.57.479,untitled,2024.1.5,None,2024-11-29 16h49.13.193329 +0530,
triangle.png,you,0,Z,,,,,,,,,34,0,136,3,,,,,,,,,435.3987200000556,,,,,,,,,,,,,,,,,,,,,,,,,,,,,,,,,,435.38273529999424,435.3987200000556,435.882062699995,435.882062699995,435.882062699995,435.882062699995,435.89870000001974,,,,,435.9997496000724,m,436.0001676999964,436.0155978000257,437.0161117000971,436.9997159000486,0.10686440009158105,None,,,,,,,,,,,,,,,,,,,,,,,,,,,,,,,,,,,,,,,,,,,,,,,,,,,,,,,,,,,,,,,,,,,,,,,,,,,,,,,,,,,B_11,001,2024-11-29_16h48.57.479,untitled,2024.1.5,None,2024-11-29 16h49.13.193329 +0530,
triangle.png,stranger,1,M,,,,,,,,,34,1,137,1,,,,,,,,,437.0161117000971,,,,,,,,,,,,,,,,,,,,,,,,,,,,,,,,,,437.0000704000704,437.0161117000971,437.49971970007755,437.49971970007755,437.49971970007755,437.49971970007755,437.5163370000664,437.79965390008874,437.79965390008874,437.79965390008874,,437.9339019000763,z,437.93431909999344,437.94968950003386,438.95028069999535,438.9341431000503,0.43021959997713566,None,,,,,,,,,,,,,,,,,,,,,,,,,,,,,,,,,,,,,,,,,,,,,,,,,,,,,,,,,,,,,,,,,,,,,,,,,,,,,,,,,,,B_11,001,2024-11-29_16h48.57.479,untitled,2024.1.5,None,2024-11-29 16h49.13.193329 +0530,
square.png,stranger,0,Z,,,,,,,,,34,2,138,2,,,,,,,,,438.95028069999535,,,,,,,,,,,,,,,,,,,,,,,,,,,,,,,,,,438.93449870008044,438.95028069999535,439.4341837000102,439.4341837000102,439.4341837000102,439.4341837000102,439.45063850004226,439.7341872000834,439.7341872000834,439.7341872000834,440.53468340006657,440.51808380009606,None,440.518274400034,440.53468340006657,441.5351224000333,441.51884840009734,,,,,,,,,,,,,,,,,,,,,,,,,,,,,,,,,,,,,,,,,,,,,,,,,,,,,,,,,,,,,,,,,,,,,,,,,,,,,,,,,,,,,B_11,001,2024-11-29_16h48.57.479,untitled,2024.1.5,None,2024-11-29 16h49.13.193329 +0530,
square.png,you,1,M,,,,,,,,,34,3,139,0,,,,,,,,,441.5351224000333,,,,,,,,,,,,,,,,,,,,,,,,,,,,,,,,,,441.5192100000568,441.5351224000333,442.0358150000684,442.0358150000684,442.0358150000684,442.0358150000684,442.0358150000684,442.3353742000181,442.3353742000181,442.3353742000181,443.135918200016,443.11966930003837,None,443.11986550001893,443.135918200016,444.1365658000577,444.12006260000635,,,,,,,,,,,,,,,,,,,,,,,,,,,,,,,,,,,,,,,,,,,,,,,,,,,,,,,,,,,,,,,,,,,,,,,,,,,,,,,,,,,,,B_11,001,2024-11-29_16h48.57.479,untitled,2024.1.5,None,2024-11-29 16h49.13.193329 +0530,
square.png,stranger,0,Z,,,,,,,,,35,0,140,2,,,,,,,,,444.1365658000577,,,,,,,,,,,,,,,,,,,,,,,,,,,,,,,,,,444.12042460008524,444.1365658000577,444.63665160001256,444.63665160001256,444.63665160001256,444.63665160001256,444.63665160001256,444.93686010001693,444.93686010001693,444.93686010001693,,445.1211478000041,m,445.12155500007793,445.13693899998907,446.137415300007,446.12096530001145,0.47783019999042153,None,,,,,,,,,,,,,,,,,,,,,,,,,,,,,,,,,,,,,,,,,,,,,,,,,,,,,,,,,,,,,,,,,,,,,,,,,,,,,,,,,,,B_11,001,2024-11-29_16h48.57.479,untitled,2024.1.5,None,2024-11-29 16h49.13.193329 +0530,
triangle.png,you,0,Z,,,,,,,,,35,1,141,3,,,,,,,,,446.137415300007,,,,,,,,,,,,,,,,,,,,,,,,,,,,,,,,,,446.12133140000515,446.137415300007,446.6210756000364,446.6210756000364,446.6210756000364,446.6210756000364,446.6379721000558,446.92101310007274,446.92101310007274,446.92101310007274,447.7214592000237,447.70532300008927,None,447.70551400003023,447.7214592000237,448.7218670999864,448.7056483000051,,,,,,,,,,,,,,,,,,,,,,,,,,,,,,,,,,,,,,,,,,,,,,,,,,,,,,,,,,,,,,,,,,,,,,,,,,,,,,,,,,,,,B_11,001,2024-11-29_16h48.57.479,untitled,2024.1.5,None,2024-11-29 16h49.13.193329 +0530,
triangle.png,stranger,1,M,,,,,,,,,35,2,142,1,,,,,,,,,448.7218670999864,,,,,,,,,,,,,,,,,,,,,,,,,,,,,,,,,,448.7060104000848,448.7218670999864,449.2223980000708,449.2223980000708,449.2223980000708,449.2223980000708,449.2223980000708,449.5224113999866,449.5224113999866,449.5224113999866,450.3229166000383,450.3067007000791,None,450.3068905000109,450.3229166000383,451.3234620000003,451.3071149000898,,,,,,,,,,,,,,,,,,,,,,,,,,,,,,,,,,,,,,,,,,,,,,,,,,,,,,,,,,,,,,,,,,,,,,,,,,,,,,,,,,,,,B_11,001,2024-11-29_16h48.57.479,untitled,2024.1.5,None,2024-11-29 16h49.13.193329 +0530,
square.png,you,1,M,,,,,,,,,35,3,143,0,,,,,,,,,451.3234620000003,,,,,,,,,,,,,,,,,,,,,,,,,,,,,,,,,,451.3074792000698,451.3234620000003,451.82379120006226,451.82379120006226,451.82379120006226,451.82379120006226,451.82379120006226,452.1237772000022,452.1237772000022,452.1237772000022,,452.2582992000971,m,452.2587067000568,452.2740057000192,453.27441790001467,453.25791510008276,0.43334719992708415,None,,,,,,,,,,,,,,,,,,,,,,,,,,,,,,,,,,,,,,,,,,,,,,,,,,,,,,,,,,,,,,,,,,,,,,,,,,,,,,,,,,,B_11,001,2024-11-29_16h48.57.479,untitled,2024.1.5,None,2024-11-29 16h49.13.193329 +0530,
square.png,you,1,M,,,,,,,,,36,0,144,0,,,,,,,,,453.27441790001467,,,,,,,,,,,,,,,,,,,,,,,,,,,,,,,,,,453.25827500002924,453.27441790001467,453.75836219999474,453.75836219999474,453.75836219999474,453.75836219999474,453.77466190000996,454.0582117000595,454.0582117000595,454.0582117000595,,454.1757560000988,z,454.1761632000562,454.19144439999945,455.1921905000927,455.1757657000562,0.4078379001002759,None,,,,,,,,,,,,,,,,,,,,,,,,,,,,,,,,,,,,,,,,,,,,,,,,,,,,,,,,,,,,,,,,,,,,,,,,,,,,,,,,,,,B_11,001,2024-11-29_16h48.57.479,untitled,2024.1.5,None,2024-11-29 16h49.13.193329 +0530,
triangle.png,stranger,1,M,,,,,,,,,36,1,145,1,,,,,,,,,455.1921905000927,,,,,,,,,,,,,,,,,,,,,,,,,,,,,,,,,,455.1761218000902,455.1921905000927,455.6757774000289,455.6757774000289,455.6757774000289,455.6757774000289,455.69222970004193,455.97567140008323,455.97567140008323,455.97567140008323,456.7763627000386,456.7597351000877,None,456.75992880004924,456.7763627000386,457.7766123000765,457.7605292000808,,,,,,,,,,,,,,,,,,,,,,,,,,,,,,,,,,,,,,,,,,,,,,,,,,,,,,,,,,,,,,,,,,,,,,,,,,,,,,,,,,,,,B_11,001,2024-11-29_16h48.57.479,untitled,2024.1.5,None,2024-11-29 16h49.13.193329 +0530,
