stimulus_b,label_b,is_match_b,shouldpress_b,stimulus_2b,label_2b,is_match_2b,shouldpress_2b,p_trials.thisRepN,p_trials.thisTrialN,p_trials.thisN,p_trials.thisIndex,trials.thisRepN,trials.thisTrialN,trials.thisN,trials.thisIndex,p_trials_2.thisRepN,p_trials_2.thisTrialN,p_trials_2.thisN,p_trials_2.thisIndex,trials_2.thisRepN,trials_2.thisTrialN,trials_2.thisN,trials_2.thisIndex,thisRow.t,notes,Intruduction.started,text_3.started,key_resp_2.started,Intruduction.stopped,key_resp_2.keys,key_resp_2.rt,key_resp_2.duration,self_other_instructions.started,text_4.started,key_resp_3.started,self_other_instructions.stopped,key_resp_3.keys,key_resp_3.rt,key_resp_3.duration,self_other_info.started,square_image.started,triangle_image.started,self_label.started,other_label.started,key_resp_4.started,text_5.started,self_other_info.stopped,key_resp_4.keys,key_resp_4.rt,key_resp_4.duration,self_other_starting_2.started,text_6.started,key_resp_5.started,self_other_starting_2.stopped,key_resp_5.keys,key_resp_5.rt,key_resp_5.duration,b1.started,p_fication.started,p_fixation_3.started,p_text.started,key_resp_p.started,p_image.started,p_fication.stopped,p_fixation_3.stopped,p_text.stopped,p_image.stopped,key_resp_p.stopped,b1.stopped,key_resp_p.keys,b_feedback.started,text_15.started,b_feedback.stopped,key_resp_p.rt,key_resp_p.duration,text_15.stopped,start2.started,start_2.started,key_resp_11.started,start2.stopped,key_resp_11.keys,key_resp_11.rt,key_resp_11.duration,break_3.started,text_13.started,text_14.started,key_resp_10.started,text_13.stopped,break_3.stopped,key_resp_10.keys,key_resp_10.rt,key_resp_10.duration,self_instructions_2.started,text_10.started,key_resp_7.started,self_instructions_2.stopped,key_resp_7.keys,key_resp_7.rt,key_resp_7.duration,self_intro_2.started,circle_image.started,diamond_image.started,Disgusting_self_lable.started,Desirable_self_lable.started,key_resp_8.started,text_11.started,self_intro_2.stopped,key_resp_8.keys,key_resp_8.rt,key_resp_8.duration,self_starting_3.started,text_12.started,key_resp_9.started,self_starting_3.stopped,key_resp_9.keys,key_resp_9.rt,key_resp_9.duration,practice2.started,p_fixation_2.started,p_fixation_2.stopped,p_fixation_4.started,p_text_8.started,key_resp_6_p.started,p_image_2.started,p_fixation_4.stopped,p_text_8.stopped,p_image_2.stopped,practice2.stopped,key_resp_6_p.keys,key_resp_6_p.rt,key_resp_6_p.duration,feedback_2_p.started,text_16.started,text_16.stopped,feedback_2_p.stopped,key_resp_6_p.stopped,trial_2.started,fixation_2.started,fixation_4.started,text_8.started,key_resp_6.started,image_2.started,fixation_2.stopped,fixation_4.stopped,text_8.stopped,image_2.stopped,trial_2.stopped,key_resp_6.keys,key_resp_6.rt,key_resp_6.duration,feedback_2.started,text_9.started,text_9.stopped,feedback_2.stopped,key_resp_6.stopped,Thank_you.started,text_7.started,text_7.stopped,Thank_you.stopped,participant,session,date,expName,psychopyVersion,frameRate,expStart,
,,,,,,,,,,,,,,,,,,,,,,,,,,0.002713399997446686,0.011089499996160157,0.011089499996160157,9.167408799999976,space,9.091282700006559,None,,,,,,,,,,,,,,,,,,,,,,,,,,,,,,,,,,,,,,,,,,,,,,,,,,,,,,,,,,,,,,,,,,,,,,,,,,,,,,,,,,,,,,,,,,,,,,,,,,,,,,,,,,,,,,,,,,,,,,,,,,,,,,,,B_12,001,2024-11-30_09h33.25.664,untitled,2024.1.5,None,2024-11-30 09h33.42.254250 +0530,
,,,,,,,,,,,,,,,,,,,,,,,,,,,,,,,,,9.167438199998287,9.172638199997891,9.172638199997891,41.488308599997254,space,32.3016656999971,None,,,,,,,,,,,,,,,,,,,,,,,,,,,,,,,,,,,,,,,,,,,,,,,,,,,,,,,,,,,,,,,,,,,,,,,,,,,,,,,,,,,,,,,,,,,,,,,,,,,,,,,,,,,,,,,,,,,,,,,,,B_12,001,2024-11-30_09h33.25.664,untitled,2024.1.5,None,2024-11-30 09h33.42.254250 +0530,
,,,,,,,,,,,,,,,,,,,,,,,,,,,,,,,,,,,,,,,,41.48833609999565,41.58343700000114,41.58343700000114,41.58343700000114,41.58343700000114,41.58343700000114,41.58343700000114,98.91658699999971,space,57.33002210000268,None,,,,,,,,,,,,,,,,,,,,,,,,,,,,,,,,,,,,,,,,,,,,,,,,,,,,,,,,,,,,,,,,,,,,,,,,,,,,,,,,,,,,,,,,,,,,,,,,,,,,,,,,,,,,,,B_12,001,2024-11-30_09h33.25.664,untitled,2024.1.5,None,2024-11-30 09h33.42.254250 +0530,
,,,,,,,,,,,,,,,,,,,,,,,,,,,,,,,,,,,,,,,,,,,,,,,,,,,98.9166155999992,98.93265989999782,98.93265989999782,103.80259049999586,space,4.853686300004483,None,,,,,,,,,,,,,,,,,,,,,,,,,,,,,,,,,,,,,,,,,,,,,,,,,,,,,,,,,,,,,,,,,,,,,,,,,,,,,,,,,,,,,,,,,,,,,,,,,,,,,,,B_12,001,2024-11-30_09h33.25.664,untitled,2024.1.5,None,2024-11-30 09h33.42.254250 +0530,
square.png,stranger,0,Z,,,,,0,0,0,2,,,,,,,,,,,,,103.85203960000217,,,,,,,,,,,,,,,,,,,,,,,,,,,,,,,,,,103.83978109999589,103.85203960000217,104.31835509999655,104.31835509999655,104.31835509999655,104.31835509999655,104.35169280000264,104.61826470000233,104.61826470000233,104.61826470000233,105.41861980000249,105.4025221999982,None,105.40272919999552,105.41861980000249,106.40272559999721,,,,,,,,,,,,,,,,,,,,,,,,,,,,,,,,,,,,,,,,,,,,,,,,,,,,,,,,,,,,,,,,,,,,,,,,,,,,,,,,,,,,,,,B_12,001,2024-11-30_09h33.25.664,untitled,2024.1.5,None,2024-11-30 09h33.42.254250 +0530,
triangle.png,stranger,1,M,,,,,0,1,1,1,,,,,,,,,,,,,106.41931140000088,,,,,,,,,,,,,,,,,,,,,,,,,,,,,,,,,,106.4029681999964,106.41931140000088,106.90289019999909,106.90289019999909,106.90289019999909,106.90289019999909,106.91951110000082,107.20312120000017,107.20312120000017,107.20312120000017,,107.7206950999971,z,107.72101739999925,107.73658489999798,108.72090020000178,0.8164973999955691,None,108.73735899999883,,,,,,,,,,,,,,,,,,,,,,,,,,,,,,,,,,,,,,,,,,,,,,,,,,,,,,,,,,,,,,,,,,,,,,,,,,,,,,,,,,,,B_12,001,2024-11-30_09h33.25.664,untitled,2024.1.5,None,2024-11-30 09h33.42.254250 +0530,
square.png,you,1,M,,,,,0,2,2,0,,,,,,,,,,,,,108.73735899999883,,,,,,,,,,,,,,,,,,,,,,,,,,,,,,,,,,108.72112999999808,108.73735899999883,109.22090049999679,109.22090049999679,109.22090049999679,109.22090049999679,109.23733440000069,109.52065510000102,109.52065510000102,109.52065510000102,,109.60485969999718,m,109.6051129999978,109.62093499999901,110.6052789000023,0.378255600000557,None,110.62141229999543,,,,,,,,,,,,,,,,,,,,,,,,,,,,,,,,,,,,,,,,,,,,,,,,,,,,,,,,,,,,,,,,,,,,,,,,,,,,,,,,,,,,B_12,001,2024-11-30_09h33.25.664,untitled,2024.1.5,None,2024-11-30 09h33.42.254250 +0530,
triangle.png,you,0,Z,,,,,0,3,3,3,,,,,,,,,,,,,110.62141229999543,,,,,,,,,,,,,,,,,,,,,,,,,,,,,,,,,,110.60552350000216,110.62141229999543,111.10544929999742,111.10544929999742,111.10544929999742,111.10544929999742,111.1217753000019,111.40519219999987,111.40519219999987,111.40519219999987,,111.62264999999752,m,111.62289469999814,111.63877089999733,112.62277290000202,0.5095894000041881,None,112.63906119999592,,,,,,,,,,,,,,,,,,,,,,,,,,,,,,,,,,,,,,,,,,,,,,,,,,,,,,,,,,,,,,,,,,,,,,,,,,,,,,,,,,,,B_12,001,2024-11-30_09h33.25.664,untitled,2024.1.5,None,2024-11-30 09h33.42.254250 +0530,
triangle.png,stranger,1,M,,,,,1,0,4,1,,,,,,,,,,,,,112.63906119999592,,,,,,,,,,,,,,,,,,,,,,,,,,,,,,,,,,112.62301099999604,112.63906119999592,113.12287049999577,113.12287049999577,113.12287049999577,113.12287049999577,113.1396425999992,113.42280529999698,113.42280529999698,113.42280529999698,,113.5903776999985,z,113.59062719999929,113.6064705999961,114.59035169999697,0.46418229999835603,None,114.60653820000152,,,,,,,,,,,,,,,,,,,,,,,,,,,,,,,,,,,,,,,,,,,,,,,,,,,,,,,,,,,,,,,,,,,,,,,,,,,,,,,,,,,,B_12,001,2024-11-30_09h33.25.664,untitled,2024.1.5,None,2024-11-30 09h33.42.254250 +0530,
triangle.png,you,0,Z,,,,,1,1,5,3,,,,,,,,,,,,,114.60653820000152,,,,,,,,,,,,,,,,,,,,,,,,,,,,,,,,,,114.59058699999878,114.60653820000152,115.09066979999625,115.09066979999625,115.09066979999625,115.09066979999625,115.10731649999798,115.39071210000111,115.39071210000111,115.39071210000111,,115.50827849999769,z,115.50852669999585,115.52408489999652,116.50821449999785,0.40819460000057006,None,116.52453850000165,,,,,,,,,,,,,,,,,,,,,,,,,,,,,,,,,,,,,,,,,,,,,,,,,,,,,,,,,,,,,,,,,,,,,,,,,,,,,,,,,,,,B_12,001,2024-11-30_09h33.25.664,untitled,2024.1.5,None,2024-11-30 09h33.42.254250 +0530,
square.png,stranger,0,Z,,,,,1,2,6,2,,,,,,,,,,,,,116.52453850000165,,,,,,,,,,,,,,,,,,,,,,,,,,,,,,,,,,116.50845729999855,116.52453850000165,117.00813699999708,117.00813699999708,117.00813699999708,117.00813699999708,117.02487889999611,117.30824929999653,117.30824929999653,117.30824929999653,,117.4923742999963,z,117.4926209999976,117.50823639999726,118.49245489999885,0.47809050000068964,None,118.50895650000166,,,,,,,,,,,,,,,,,,,,,,,,,,,,,,,,,,,,,,,,,,,,,,,,,,,,,,,,,,,,,,,,,,,,,,,,,,,,,,,,,,,,B_12,001,2024-11-30_09h33.25.664,untitled,2024.1.5,None,2024-11-30 09h33.42.254250 +0530,
square.png,you,1,M,,,,,1,3,7,0,,,,,,,,,,,,,118.50895650000166,,,,,,,,,,,,,,,,,,,,,,,,,,,,,,,,,,118.49268579999625,118.50895650000166,118.99243009999918,118.99243009999918,118.99243009999918,118.99243009999918,119.00904649999575,119.29270589999942,119.29270589999942,119.29270589999942,,119.45992750000005,m,119.46017510000092,119.47609540000121,120.46041369999875,0.4584210000029998,None,120.47670159999689,,,,,,,,,,,,,,,,,,,,,,,,,,,,,,,,,,,,,,,,,,,,,,,,,,,,,,,,,,,,,,,,,,,,,,,,,,,,,,,,,,,,B_12,001,2024-11-30_09h33.25.664,untitled,2024.1.5,None,2024-11-30 09h33.42.254250 +0530,
square.png,stranger,0,Z,,,,,2,0,8,2,,,,,,,,,,,,,120.47670159999689,,,,,,,,,,,,,,,,,,,,,,,,,,,,,,,,,,120.46067089999997,120.47670159999689,120.96025029999873,120.96025029999873,120.96025029999873,120.96025029999873,120.97679290000087,121.26014710000163,121.26014710000163,121.26014710000163,,121.37762549999752,m,121.37787219999882,121.39382929999556,122.37784609999653,0.40651839999918593,None,122.3942889999962,,,,,,,,,,,,,,,,,,,,,,,,,,,,,,,,,,,,,,,,,,,,,,,,,,,,,,,,,,,,,,,,,,,,,,,,,,,,,,,,,,,,B_12,001,2024-11-30_09h33.25.664,untitled,2024.1.5,None,2024-11-30 09h33.42.254250 +0530,
triangle.png,stranger,1,M,,,,,2,1,9,1,,,,,,,,,,,,,122.3942889999962,,,,,,,,,,,,,,,,,,,,,,,,,,,,,,,,,,122.37807739999698,122.3942889999962,122.8779521999968,122.8779521999968,122.8779521999968,122.8779521999968,122.8946219999998,123.17766390000179,123.17766390000179,123.17766390000179,,123.41193070000008,z,123.41217830000096,123.4281675999955,124.41239449999557,0.5283397999955923,None,124.42850229999749,,,,,,,,,,,,,,,,,,,,,,,,,,,,,,,,,,,,,,,,,,,,,,,,,,,,,,,,,,,,,,,,,,,,,,,,,,,,,,,,,,,,B_12,001,2024-11-30_09h33.25.664,untitled,2024.1.5,None,2024-11-30 09h33.42.254250 +0530,
square.png,you,1,M,,,,,2,2,10,0,,,,,,,,,,,,,124.42850229999749,,,,,,,,,,,,,,,,,,,,,,,,,,,,,,,,,,124.41262529999949,124.42850229999749,124.9122783999992,124.9122783999992,124.9122783999992,124.9122783999992,124.92895499999577,125.21238240000093,125.21238240000093,125.21238240000093,,125.42963040000177,m,125.42987819999689,125.44588629999635,126.42997920000198,0.5017244999980903,None,126.44615709999925,,,,,,,,,,,,,,,,,,,,,,,,,,,,,,,,,,,,,,,,,,,,,,,,,,,,,,,,,,,,,,,,,,,,,,,,,,,,,,,,,,,,B_12,001,2024-11-30_09h33.25.664,untitled,2024.1.5,None,2024-11-30 09h33.42.254250 +0530,
triangle.png,you,0,Z,,,,,2,3,11,3,,,,,,,,,,,,,126.44615709999925,,,,,,,,,,,,,,,,,,,,,,,,,,,,,,,,,,126.4302119999993,126.44615709999925,126.93005439999979,126.93005439999979,126.93005439999979,126.93005439999979,126.9465160999971,127.22984429999633,127.22984429999633,127.22984429999633,,127.7477293999982,z,127.74797519999993,127.76362489999883,128.7476983000015,0.804070900005172,None,128.76390759999776,,,,,,,,,,,,,,,,,,,,,,,,,,,,,,,,,,,,,,,,,,,,,,,,,,,,,,,,,,,,,,,,,,,,,,,,,,,,,,,,,,,,B_12,001,2024-11-30_09h33.25.664,untitled,2024.1.5,None,2024-11-30 09h33.42.254250 +0530,
square.png,you,1,M,,,,,3,0,12,0,,,,,,,,,,,,,128.76390759999776,,,,,,,,,,,,,,,,,,,,,,,,,,,,,,,,,,128.7479314000011,128.76390759999776,129.24794709999696,129.24794709999696,129.24794709999696,129.24794709999696,129.26450140000088,129.54785479999555,129.54785479999555,129.54785479999555,,129.9153879000005,m,129.9156409999996,129.93115709999984,130.91544689999864,0.6662353000065195,None,130.9319026000012,,,,,,,,,,,,,,,,,,,,,,,,,,,,,,,,,,,,,,,,,,,,,,,,,,,,,,,,,,,,,,,,,,,,,,,,,,,,,,,,,,,,B_12,001,2024-11-30_09h33.25.664,untitled,2024.1.5,None,2024-11-30 09h33.42.254250 +0530,
square.png,stranger,0,Z,,,,,3,1,13,2,,,,,,,,,,,,,130.9319026000012,,,,,,,,,,,,,,,,,,,,,,,,,,,,,,,,,,130.91567999999825,130.9319026000012,131.41544989999966,131.41544989999966,131.41544989999966,131.41544989999966,131.43229910000082,131.71546410000155,131.71546410000155,131.71546410000155,,131.8331315999967,z,131.83337819999724,131.84894740000163,132.83344439999928,0.41548279999551596,None,132.8494006999972,,,,,,,,,,,,,,,,,,,,,,,,,,,,,,,,,,,,,,,,,,,,,,,,,,,,,,,,,,,,,,,,,,,,,,,,,,,,,,,,,,,,B_12,001,2024-11-30_09h33.25.664,untitled,2024.1.5,None,2024-11-30 09h33.42.254250 +0530,
triangle.png,stranger,1,M,,,,,3,2,14,1,,,,,,,,,,,,,132.8494006999972,,,,,,,,,,,,,,,,,,,,,,,,,,,,,,,,,,132.83367510000244,132.8494006999972,133.33311169999797,133.33311169999797,133.33311169999797,133.33311169999797,133.3497342999981,133.6333225999988,133.6333225999988,133.6333225999988,,133.8005680999995,z,133.8008192999987,133.81658590000006,134.80102649999753,0.4653258999969694,None,134.81717570000183,,,,,,,,,,,,,,,,,,,,,,,,,,,,,,,,,,,,,,,,,,,,,,,,,,,,,,,,,,,,,,,,,,,,,,,,,,,,,,,,,,,,B_12,001,2024-11-30_09h33.25.664,untitled,2024.1.5,None,2024-11-30 09h33.42.254250 +0530,
triangle.png,you,0,Z,,,,,3,3,15,3,,,,,,,,,,,,,134.81717570000183,,,,,,,,,,,,,,,,,,,,,,,,,,,,,,,,,,134.8012613999963,134.81717570000183,135.300831200002,135.300831200002,135.300831200002,135.300831200002,135.3176248000018,135.60085009999602,135.60085009999602,135.60085009999602,,135.7850735999964,z,135.7853307999976,135.801034899996,136.78514809999615,0.48221129999728873,None,136.8015510999976,,,,,,,,,,,,,,,,,,,,,,,,,,,,,,,,,,,,,,,,,,,,,,,,,,,,,,,,,,,,,,,,,,,,,,,,,,,,,,,,,,,,B_12,001,2024-11-30_09h33.25.664,untitled,2024.1.5,None,2024-11-30 09h33.42.254250 +0530,
square.png,stranger,0,Z,,,,,4,0,16,2,,,,,,,,,,,,,136.8015510999976,,,,,,,,,,,,,,,,,,,,,,,,,,,,,,,,,,136.7853901999988,136.8015510999976,137.28546439999627,137.28546439999627,137.28546439999627,137.28546439999627,137.30174080000143,137.58506869999837,137.58506869999837,137.58506869999837,,137.9694165999972,m,137.9696702000001,137.98540030000004,138.96982359999674,0.6810546000051545,None,138.98596990000078,,,,,,,,,,,,,,,,,,,,,,,,,,,,,,,,,,,,,,,,,,,,,,,,,,,,,,,,,,,,,,,,,,,,,,,,,,,,,,,,,,,,B_12,001,2024-11-30_09h33.25.664,untitled,2024.1.5,None,2024-11-30 09h33.42.254250 +0530,
square.png,you,1,M,,,,,4,1,17,0,,,,,,,,,,,,,138.98596990000078,,,,,,,,,,,,,,,,,,,,,,,,,,,,,,,,,,138.9700623000026,138.98596990000078,139.4697498999958,139.4697498999958,139.4697498999958,139.4697498999958,139.48640670000168,139.76957350000157,139.76957350000157,139.76957350000157,,140.22059459999582,z,140.22084460000042,140.23660650000238,141.22081030000118,0.741233499997179,None,141.23700059999828,,,,,,,,,,,,,,,,,,,,,,,,,,,,,,,,,,,,,,,,,,,,,,,,,,,,,,,,,,,,,,,,,,,,,,,,,,,,,,,,,,,,B_12,001,2024-11-30_09h33.25.664,untitled,2024.1.5,None,2024-11-30 09h33.42.254250 +0530,
triangle.png,stranger,1,M,,,,,4,2,18,1,,,,,,,,,,,,,141.23700059999828,,,,,,,,,,,,,,,,,,,,,,,,,,,,,,,,,,141.22104079999554,141.23700059999828,141.7209772999995,141.7209772999995,141.7209772999995,141.7209772999995,141.7372749999995,142.0206165999989,142.0206165999989,142.0206165999989,,142.1382666999998,m,142.13851710000017,142.1542027999967,143.13851330000034,0.4052282999982708,None,143.15464559999964,,,,,,,,,,,,,,,,,,,,,,,,,,,,,,,,,,,,,,,,,,,,,,,,,,,,,,,,,,,,,,,,,,,,,,,,,,,,,,,,,,,,B_12,001,2024-11-30_09h33.25.664,untitled,2024.1.5,None,2024-11-30 09h33.42.254250 +0530,
triangle.png,you,0,Z,,,,,4,3,19,3,,,,,,,,,,,,,143.15464559999964,,,,,,,,,,,,,,,,,,,,,,,,,,,,,,,,,,143.1387448000023,143.15464559999964,143.63827039999887,143.63827039999887,143.63827039999887,143.63827039999887,143.65502079999715,143.93831160000263,143.93831160000263,143.93831160000263,,144.2227144999997,z,144.22296020000067,144.23878510000213,145.22301069999958,0.5806957999957376,None,145.23920419999922,,,,,,,,,,,,,,,,,,,,,,,,,,,,,,,,,,,,,,,,,,,,,,,,,,,,,,,,,,,,,,,,,,,,,,,,,,,,,,,,,,,,B_12,001,2024-11-30_09h33.25.664,untitled,2024.1.5,None,2024-11-30 09h33.42.254250 +0530,
,,,,,,,,,,,,,,,,,,,,,,,,,,,,,,,,,,,,,,,,,,,,,,,,,,,,,,,,,,,,,,,,,,,,,,,,,,,,,145.2230550000022,145.23920419999922,145.23920419999922,146.25726379999833,space,1.0033005000004778,None,,,,,,,,,,,,,,,,,,,,,,,,,,,,,,,,,,,,,,,,,,,,,,,,,,,,,,,,,,,,,,,,,,,,,,,,,,,,,B_12,001,2024-11-30_09h33.25.664,untitled,2024.1.5,None,2024-11-30 09h33.42.254250 +0530,
triangle.png,stranger,1,M,,,,,,,,,0,0,0,1,,,,,,,,,146.27324370000133,,,,,,,,,,,,,,,,,,,,,,,,,,,,,,,,,,146.26258409999718,146.27324370000133,146.75665689999732,146.75665689999732,146.75665689999732,146.75665689999732,146.77330500000244,147.0565923999966,147.0565923999966,147.0565923999966,,147.3242506999959,z,147.32490600000165,147.34020639999653,148.3245106999966,0.5538839000000735,None,148.34065209999972,,,,,,,,,,,,,,,,,,,,,,,,,,,,,,,,,,,,,,,,,,,,,,,,,,,,,,,,,,,,,,,,,,,,,,,,,,,,,,,,,,,,B_12,001,2024-11-30_09h33.25.664,untitled,2024.1.5,None,2024-11-30 09h33.42.254250 +0530,
square.png,stranger,0,Z,,,,,,,,,0,1,1,2,,,,,,,,,148.34065209999972,,,,,,,,,,,,,,,,,,,,,,,,,,,,,,,,,,148.32486400000198,148.34065209999972,148.82438829999592,148.82438829999592,148.82438829999592,148.82438829999592,148.841290999997,149.12463150000258,149.12463150000258,149.12463150000258,,149.30867399999988,z,149.30909319999773,149.32470620000095,150.30891210000118,0.47049479999986943,None,150.32516880000185,,,,,,,,,,,,,,,,,,,,,,,,,,,,,,,,,,,,,,,,,,,,,,,,,,,,,,,,,,,,,,,,,,,,,,,,,,,,,,,,,,,,B_12,001,2024-11-30_09h33.25.664,untitled,2024.1.5,None,2024-11-30 09h33.42.254250 +0530,
triangle.png,you,0,Z,,,,,,,,,0,2,2,3,,,,,,,,,150.32516880000185,,,,,,,,,,,,,,,,,,,,,,,,,,,,,,,,,,150.30929359999573,150.32516880000185,150.80888699999923,150.80888699999923,150.80888699999923,150.80888699999923,150.8256132999959,151.10880109999562,151.10880109999562,151.10880109999562,,151.15954010000132,m,151.1599750000023,151.17537340000126,152.1597991000017,0.3485304000059841,None,152.17593009999837,,,,,,,,,,,,,,,,,,,,,,,,,,,,,,,,,,,,,,,,,,,,,,,,,,,,,,,,,,,,,,,,,,,,,,,,,,,,,,,,,,,,B_12,001,2024-11-30_09h33.25.664,untitled,2024.1.5,None,2024-11-30 09h33.42.254250 +0530,
square.png,you,1,M,,,,,,,,,0,3,3,0,,,,,,,,,152.17593009999837,,,,,,,,,,,,,,,,,,,,,,,,,,,,,,,,,,152.16014259999793,152.17593009999837,152.65987129999849,152.65987129999849,152.65987129999849,152.65987129999849,152.6762830000007,152.95985839999776,152.95985839999776,152.95985839999776,,153.0437146999975,m,153.04414939999697,153.05972759999713,154.04423680000036,0.3788695000039297,None,154.06034460000228,,,,,,,,,,,,,,,,,,,,,,,,,,,,,,,,,,,,,,,,,,,,,,,,,,,,,,,,,,,,,,,,,,,,,,,,,,,,,,,,,,,,B_12,001,2024-11-30_09h33.25.664,untitled,2024.1.5,None,2024-11-30 09h33.42.254250 +0530,
square.png,you,1,M,,,,,,,,,1,0,4,0,,,,,,,,,154.06034460000228,,,,,,,,,,,,,,,,,,,,,,,,,,,,,,,,,,154.0445866000009,154.06034460000228,154.54409499999747,154.54409499999747,154.54409499999747,154.54409499999747,154.5605682000023,154.8441285000008,154.8441285000008,154.8441285000008,,155.0447742999968,z,155.04519240000081,155.06092029999854,156.0450669999991,0.4986711999954423,None,156.06119559999934,,,,,,,,,,,,,,,,,,,,,,,,,,,,,,,,,,,,,,,,,,,,,,,,,,,,,,,,,,,,,,,,,,,,,,,,,,,,,,,,,,,,B_12,001,2024-11-30_09h33.25.664,untitled,2024.1.5,None,2024-11-30 09h33.42.254250 +0530,
triangle.png,you,0,Z,,,,,,,,,1,1,5,3,,,,,,,,,156.06119559999934,,,,,,,,,,,,,,,,,,,,,,,,,,,,,,,,,,156.04542129999754,156.06119559999934,156.5449804000018,156.5449804000018,156.5449804000018,156.5449804000018,156.56182479999552,156.84498919999896,156.84498919999896,156.84498919999896,,156.92920050000248,z,156.92962689999695,156.94509870000184,157.92943650000234,0.37367799999628915,None,157.9455925000002,,,,,,,,,,,,,,,,,,,,,,,,,,,,,,,,,,,,,,,,,,,,,,,,,,,,,,,,,,,,,,,,,,,,,,,,,,,,,,,,,,,,B_12,001,2024-11-30_09h33.25.664,untitled,2024.1.5,None,2024-11-30 09h33.42.254250 +0530,
triangle.png,stranger,1,M,,,,,,,,,1,2,6,1,,,,,,,,,157.9455925000002,,,,,,,,,,,,,,,,,,,,,,,,,,,,,,,,,,157.9297915999996,157.9455925000002,158.42957490000117,158.42957490000117,158.42957490000117,158.42957490000117,158.44594159999542,158.7293662000011,158.7293662000011,158.7293662000011,,158.81354299999657,z,158.8139747000023,158.8293207999959,159.81387079999695,0.3797889999987092,None,159.8300278999959,,,,,,,,,,,,,,,,,,,,,,,,,,,,,,,,,,,,,,,,,,,,,,,,,,,,,,,,,,,,,,,,,,,,,,,,,,,,,,,,,,,,B_12,001,2024-11-30_09h33.25.664,untitled,2024.1.5,None,2024-11-30 09h33.42.254250 +0530,
square.png,stranger,0,Z,,,,,,,,,1,3,7,2,,,,,,,,,159.8300278999959,,,,,,,,,,,,,,,,,,,,,,,,,,,,,,,,,,159.81422079999902,159.8300278999959,160.31363430000056,160.31363430000056,160.31363430000056,160.31363430000056,160.33018640000228,,,,,160.5643396000014,m,160.56478219999553,160.58019500000228,161.5644706000021,0.24032599999918602,None,161.58090509999602,,,,,,,,,,,,,,,,,,,,,,,,,,,,,,,,,,,,,,,,,,,,,,,,,,,,,,,,,,,,,,,,,,,,,,,,,,,,,,,,,,,,B_12,001,2024-11-30_09h33.25.664,untitled,2024.1.5,None,2024-11-30 09h33.42.254250 +0530,
square.png,you,1,M,,,,,,,,,2,0,8,0,,,,,,,,,161.58090509999602,,,,,,,,,,,,,,,,,,,,,,,,,,,,,,,,,,161.56482239999605,161.58090509999602,162.06441629999608,162.06441629999608,162.06441629999608,162.06441629999608,162.08125660000223,162.3643882999968,162.3643882999968,162.3643882999968,,162.41528200000175,z,162.4157159000024,162.43131220000214,163.41548440000042,0.3386067999963416,None,163.43187039999611,,,,,,,,,,,,,,,,,,,,,,,,,,,,,,,,,,,,,,,,,,,,,,,,,,,,,,,,,,,,,,,,,,,,,,,,,,,,,,,,,,,,B_12,001,2024-11-30_09h33.25.664,untitled,2024.1.5,None,2024-11-30 09h33.42.254250 +0530,
square.png,stranger,0,Z,,,,,,,,,2,1,9,2,,,,,,,,,163.43187039999611,,,,,,,,,,,,,,,,,,,,,,,,,,,,,,,,,,163.41583399999945,163.43187039999611,163.9157641999991,163.9157641999991,163.9157641999991,163.9157641999991,163.9320471999963,164.21557570000004,164.21557570000004,164.21557570000004,,164.39955899999768,z,164.39997720000247,164.4157275999969,165.39978669999982,0.4786367999986396,None,165.41613669999788,,,,,,,,,,,,,,,,,,,,,,,,,,,,,,,,,,,,,,,,,,,,,,,,,,,,,,,,,,,,,,,,,,,,,,,,,,,,,,,,,,,,B_12,001,2024-11-30_09h33.25.664,untitled,2024.1.5,None,2024-11-30 09h33.42.254250 +0530,
triangle.png,stranger,1,M,,,,,,,,,2,2,10,1,,,,,,,,,165.41613669999788,,,,,,,,,,,,,,,,,,,,,,,,,,,,,,,,,,165.4001397999964,165.41613669999788,165.9000339999984,165.9000339999984,165.9000339999984,165.9000339999984,165.91635790000146,166.19976899999892,166.19976899999892,166.19976899999892,,166.6675652999984,m,166.66798559999734,166.6834211000023,167.66784399999597,0.7581162999995286,None,167.68405899999925,,,,,,,,,,,,,,,,,,,,,,,,,,,,,,,,,,,,,,,,,,,,,,,,,,,,,,,,,,,,,,,,,,,,,,,,,,,,,,,,,,,,B_12,001,2024-11-30_09h33.25.664,untitled,2024.1.5,None,2024-11-30 09h33.42.254250 +0530,
triangle.png,you,0,Z,,,,,,,,,2,3,11,3,,,,,,,,,167.68405899999925,,,,,,,,,,,,,,,,,,,,,,,,,,,,,,,,,,167.66819789999863,167.68405899999925,168.1675733000011,168.1675733000011,168.1675733000011,168.1675733000011,168.184290899997,168.46753219999664,168.46753219999664,168.46753219999664,,168.76872770000045,m,168.76915179999924,168.7845479000025,169.7689984000026,0.590993999998318,None,169.78488780000043,,,,,,,,,,,,,,,,,,,,,,,,,,,,,,,,,,,,,,,,,,,,,,,,,,,,,,,,,,,,,,,,,,,,,,,,,,,,,,,,,,,,B_12,001,2024-11-30_09h33.25.664,untitled,2024.1.5,None,2024-11-30 09h33.42.254250 +0530,
square.png,you,1,M,,,,,,,,,3,0,12,0,,,,,,,,,169.78488780000043,,,,,,,,,,,,,,,,,,,,,,,,,,,,,,,,,,169.76935689999664,169.78488780000043,170.2688799000025,170.2688799000025,170.2688799000025,170.2688799000025,170.28520919999573,170.56869169999845,170.56869169999845,170.56869169999845,,170.66950519999955,z,170.6699277000007,170.68542159999924,171.66972720000194,0.3938664000015706,None,171.68615649999992,,,,,,,,,,,,,,,,,,,,,,,,,,,,,,,,,,,,,,,,,,,,,,,,,,,,,,,,,,,,,,,,,,,,,,,,,,,,,,,,,,,,B_12,001,2024-11-30_09h33.25.664,untitled,2024.1.5,None,2024-11-30 09h33.42.254250 +0530,
triangle.png,you,0,Z,,,,,,,,,3,1,13,3,,,,,,,,,171.68615649999992,,,,,,,,,,,,,,,,,,,,,,,,,,,,,,,,,,171.67007120000198,171.68615649999992,172.16959810000117,172.16959810000117,172.16959810000117,172.16959810000117,172.1865020999976,172.46958240000095,172.46958240000095,172.46958240000095,,172.45358799999667,z,172.45405169999867,172.46958240000095,173.4539683999974,0.28012499999749707,None,173.4702574999974,,,,,,,,,,,,,,,,,,,,,,,,,,,,,,,,,,,,,,,,,,,,,,,,,,,,,,,,,,,,,,,,,,,,,,,,,,,,,,,,,,,,B_12,001,2024-11-30_09h33.25.664,untitled,2024.1.5,None,2024-11-30 09h33.42.254250 +0530,
square.png,stranger,0,Z,,,,,,,,,3,2,14,2,,,,,,,,,173.4702574999974,,,,,,,,,,,,,,,,,,,,,,,,,,,,,,,,,,173.45431509999617,173.4702574999974,173.95392859999993,173.95392859999993,173.95392859999993,173.95392859999993,173.97056169999996,174.25410669999837,174.25410669999837,174.25410669999837,,174.68813029999728,m,174.68855549999716,174.70425370000157,175.68839429999935,0.7206881000020076,None,175.70477720000054,,,,,,,,,,,,,,,,,,,,,,,,,,,,,,,,,,,,,,,,,,,,,,,,,,,,,,,,,,,,,,,,,,,,,,,,,,,,,,,,,,,,B_12,001,2024-11-30_09h33.25.664,untitled,2024.1.5,None,2024-11-30 09h33.42.254250 +0530,
triangle.png,stranger,1,M,,,,,,,,,3,3,15,1,,,,,,,,,175.70477720000054,,,,,,,,,,,,,,,,,,,,,,,,,,,,,,,,,,175.68874140000116,175.70477720000054,176.1885553999964,176.1885553999964,176.1885553999964,176.1885553999964,176.2051838999978,176.48854359999677,176.48854359999677,176.48854359999677,,176.80580190000182,z,176.80622690000018,176.8220119999969,177.8063938999985,0.6022159000058309,None,177.82264030000078,,,,,,,,,,,,,,,,,,,,,,,,,,,,,,,,,,,,,,,,,,,,,,,,,,,,,,,,,,,,,,,,,,,,,,,,,,,,,,,,,,,,B_12,001,2024-11-30_09h33.25.664,untitled,2024.1.5,None,2024-11-30 09h33.42.254250 +0530,
square.png,you,1,M,,,,,,,,,4,0,16,0,,,,,,,,,177.82264030000078,,,,,,,,,,,,,,,,,,,,,,,,,,,,,,,,,,177.80674229999568,177.82264030000078,178.30625429999782,178.30625429999782,178.30625429999782,178.30625429999782,178.32269059999817,178.6063578999965,178.6063578999965,178.6063578999965,,178.77370050000172,m,178.77413530000194,178.7896247999961,179.7739830999999,0.45139129999733996,None,179.7902752000009,,,,,,,,,,,,,,,,,,,,,,,,,,,,,,,,,,,,,,,,,,,,,,,,,,,,,,,,,,,,,,,,,,,,,,,,,,,,,,,,,,,,B_12,001,2024-11-30_09h33.25.664,untitled,2024.1.5,None,2024-11-30 09h33.42.254250 +0530,
triangle.png,you,0,Z,,,,,,,,,4,1,17,3,,,,,,,,,179.7902752000009,,,,,,,,,,,,,,,,,,,,,,,,,,,,,,,,,,179.77434179999545,179.7902752000009,180.27393080000184,180.27393080000184,180.27393080000184,180.27393080000184,180.29059440000128,180.57404710000264,180.57404710000264,180.57404710000264,,180.74125819999608,m,180.7416818999991,180.75731970000197,181.7417800999974,0.45939720000023954,None,181.75784259999637,,,,,,,,,,,,,,,,,,,,,,,,,,,,,,,,,,,,,,,,,,,,,,,,,,,,,,,,,,,,,,,,,,,,,,,,,,,,,,,,,,,,B_12,001,2024-11-30_09h33.25.664,untitled,2024.1.5,None,2024-11-30 09h33.42.254250 +0530,
square.png,stranger,0,Z,,,,,,,,,4,2,18,2,,,,,,,,,181.75784259999637,,,,,,,,,,,,,,,,,,,,,,,,,,,,,,,,,,181.7421622999973,181.75784259999637,182.24148659999628,182.24148659999628,182.24148659999628,182.24148659999628,182.25829959999828,182.54166350000014,182.54166350000014,182.54166350000014,,182.75913880000007,z,182.75957339999877,182.7751053999964,183.75939059999655,0.5125637000019196,None,183.77567199999612,,,,,,,,,,,,,,,,,,,,,,,,,,,,,,,,,,,,,,,,,,,,,,,,,,,,,,,,,,,,,,,,,,,,,,,,,,,,,,,,,,,,B_12,001,2024-11-30_09h33.25.664,untitled,2024.1.5,None,2024-11-30 09h33.42.254250 +0530,
triangle.png,stranger,1,M,,,,,,,,,4,3,19,1,,,,,,,,,183.77567199999612,,,,,,,,,,,,,,,,,,,,,,,,,,,,,,,,,,183.75978519999626,183.77567199999612,184.25938679999672,184.25938679999672,184.25938679999672,184.25938679999672,184.27580589999707,184.559222099997,184.559222099997,184.559222099997,,184.91036570000142,m,184.91079349999927,184.92632679999952,185.91040310000244,0.6435576000003493,None,185.9266376000014,,,,,,,,,,,,,,,,,,,,,,,,,,,,,,,,,,,,,,,,,,,,,,,,,,,,,,,,,,,,,,,,,,,,,,,,,,,,,,,,,,,,B_12,001,2024-11-30_09h33.25.664,untitled,2024.1.5,None,2024-11-30 09h33.42.254250 +0530,
square.png,you,1,M,,,,,,,,,5,0,20,0,,,,,,,,,185.9266376000014,,,,,,,,,,,,,,,,,,,,,,,,,,,,,,,,,,185.91075139999884,185.9266376000014,186.41038639999897,186.41038639999897,186.41038639999897,186.41038639999897,186.4268607999984,186.7104562999957,186.7104562999957,186.7104562999957,,187.11110180000105,m,187.11153270000068,187.12732600000163,188.11163529999612,0.68500689999928,None,188.12774450000143,,,,,,,,,,,,,,,,,,,,,,,,,,,,,,,,,,,,,,,,,,,,,,,,,,,,,,,,,,,,,,,,,,,,,,,,,,,,,,,,,,,,B_12,001,2024-11-30_09h33.25.664,untitled,2024.1.5,None,2024-11-30 09h33.42.254250 +0530,
triangle.png,stranger,1,M,,,,,,,,,5,1,21,1,,,,,,,,,188.12774450000143,,,,,,,,,,,,,,,,,,,,,,,,,,,,,,,,,,188.11198380000133,188.12774450000143,188.6116112000018,188.6116112000018,188.6116112000018,188.6116112000018,188.62797119999595,188.91157949999615,188.91157949999615,188.91157949999615,,189.2125307000024,z,189.21295870000176,189.22832009999547,190.21268350000173,0.5990267000015592,None,190.22883649999858,,,,,,,,,,,,,,,,,,,,,,,,,,,,,,,,,,,,,,,,,,,,,,,,,,,,,,,,,,,,,,,,,,,,,,,,,,,,,,,,,,,,B_12,001,2024-11-30_09h33.25.664,untitled,2024.1.5,None,2024-11-30 09h33.42.254250 +0530,
square.png,stranger,0,Z,,,,,,,,,5,2,22,2,,,,,,,,,190.22883649999858,,,,,,,,,,,,,,,,,,,,,,,,,,,,,,,,,,190.2130421999973,190.22883649999858,190.71252020000247,190.71252020000247,190.71252020000247,190.71252020000247,190.7290748000014,191.01266249999753,191.01266249999753,191.01266249999753,,191.34657429999788,m,191.3470154999959,191.3627966999993,192.34694039999886,0.6258843999967212,None,192.3634288999965,,,,,,,,,,,,,,,,,,,,,,,,,,,,,,,,,,,,,,,,,,,,,,,,,,,,,,,,,,,,,,,,,,,,,,,,,,,,,,,,,,,,B_12,001,2024-11-30_09h33.25.664,untitled,2024.1.5,None,2024-11-30 09h33.42.254250 +0530,
triangle.png,you,0,Z,,,,,,,,,5,3,23,3,,,,,,,,,192.3634288999965,,,,,,,,,,,,,,,,,,,,,,,,,,,,,,,,,,192.3472855,192.3634288999965,192.84698950000165,192.84698950000165,192.84698950000165,192.84698950000165,192.8633961000014,193.1470449999979,193.1470449999979,193.1470449999979,,193.43123940000078,m,193.43172870000126,193.44727789999888,194.43141430000105,0.5744273000018438,None,194.4477132999964,,,,,,,,,,,,,,,,,,,,,,,,,,,,,,,,,,,,,,,,,,,,,,,,,,,,,,,,,,,,,,,,,,,,,,,,,,,,,,,,,,,,B_12,001,2024-11-30_09h33.25.664,untitled,2024.1.5,None,2024-11-30 09h33.42.254250 +0530,
square.png,stranger,0,Z,,,,,,,,,6,0,24,2,,,,,,,,,194.4477132999964,,,,,,,,,,,,,,,,,,,,,,,,,,,,,,,,,,194.43177869999636,194.4477132999964,194.93151819999912,194.93151819999912,194.93151819999912,194.93151819999912,194.94800389999727,195.23147590000008,195.23147590000008,195.23147590000008,,195.48210909999761,z,195.48254079999606,195.49825350000174,196.48255519999657,0.5458217000050354,None,196.49874769999587,,,,,,,,,,,,,,,,,,,,,,,,,,,,,,,,,,,,,,,,,,,,,,,,,,,,,,,,,,,,,,,,,,,,,,,,,,,,,,,,,,,,B_12,001,2024-11-30_09h33.25.664,untitled,2024.1.5,None,2024-11-30 09h33.42.254250 +0530,
square.png,you,1,M,,,,,,,,,6,1,25,0,,,,,,,,,196.49874769999587,,,,,,,,,,,,,,,,,,,,,,,,,,,,,,,,,,196.4829189000011,196.49874769999587,196.98264349999954,196.98264349999954,196.98264349999954,196.98264349999954,196.99910989999626,197.28255530000024,197.28255530000024,197.28255530000024,,197.6501874999958,m,197.65064490000077,197.66611679999914,198.65040399999998,0.6593397000033292,None,198.6664619000003,,,,,,,,,,,,,,,,,,,,,,,,,,,,,,,,,,,,,,,,,,,,,,,,,,,,,,,,,,,,,,,,,,,,,,,,,,,,,,,,,,,,B_12,001,2024-11-30_09h33.25.664,untitled,2024.1.5,None,2024-11-30 09h33.42.254250 +0530,
triangle.png,you,0,Z,,,,,,,,,6,2,26,3,,,,,,,,,198.6664619000003,,,,,,,,,,,,,,,,,,,,,,,,,,,,,,,,,,198.6507507999995,198.6664619000003,199.15010469999834,199.15010469999834,199.15010469999834,199.15010469999834,199.16682890000084,199.450336599999,199.450336599999,199.450336599999,,199.650988399997,m,199.65148049999698,199.66717049999716,200.65111479999905,0.4968208999998751,None,200.66760919999797,,,,,,,,,,,,,,,,,,,,,,,,,,,,,,,,,,,,,,,,,,,,,,,,,,,,,,,,,,,,,,,,,,,,,,,,,,,,,,,,,,,,B_12,001,2024-11-30_09h33.25.664,untitled,2024.1.5,None,2024-11-30 09h33.42.254250 +0530,
triangle.png,stranger,1,M,,,,,,,,,6,3,27,1,,,,,,,,,200.66760919999797,,,,,,,,,,,,,,,,,,,,,,,,,,,,,,,,,,200.65146269999968,200.66760919999797,201.15141779999976,201.15141779999976,201.15141779999976,201.15141779999976,201.16773609999655,201.45117680000112,201.45117680000112,201.45117680000112,,201.9355899000002,m,201.936011400001,201.95157779999863,202.93586359999608,0.7818760999944061,None,202.95197599999665,,,,,,,,,,,,,,,,,,,,,,,,,,,,,,,,,,,,,,,,,,,,,,,,,,,,,,,,,,,,,,,,,,,,,,,,,,,,,,,,,,,,B_12,001,2024-11-30_09h33.25.664,untitled,2024.1.5,None,2024-11-30 09h33.42.254250 +0530,
square.png,you,1,M,,,,,,,,,7,0,28,0,,,,,,,,,202.95197599999665,,,,,,,,,,,,,,,,,,,,,,,,,,,,,,,,,,202.93621480000002,202.95197599999665,203.4357777999976,203.4357777999976,203.4357777999976,203.4357777999976,203.45244850000017,203.7358172999957,203.7358172999957,203.7358172999957,,203.91973390000203,m,203.92017060000217,203.9357508999965,204.92002639999555,0.47513480000634445,None,204.9364975999997,,,,,,,,,,,,,,,,,,,,,,,,,,,,,,,,,,,,,,,,,,,,,,,,,,,,,,,,,,,,,,,,,,,,,,,,,,,,,,,,,,,,B_12,001,2024-11-30_09h33.25.664,untitled,2024.1.5,None,2024-11-30 09h33.42.254250 +0530,
triangle.png,stranger,1,M,,,,,,,,,7,1,29,1,,,,,,,,,204.9364975999997,,,,,,,,,,,,,,,,,,,,,,,,,,,,,,,,,,204.92037519999576,204.9364975999997,205.4198933000007,205.4198933000007,205.4198933000007,205.4198933000007,205.43651030000183,205.72016399999848,205.72016399999848,205.72016399999848,,206.03783739999926,m,206.03825610000058,206.05369359999895,207.03784630000155,0.6148964000021806,None,207.05392910000228,,,,,,,,,,,,,,,,,,,,,,,,,,,,,,,,,,,,,,,,,,,,,,,,,,,,,,,,,,,,,,,,,,,,,,,,,,,,,,,,,,,,B_12,001,2024-11-30_09h33.25.664,untitled,2024.1.5,None,2024-11-30 09h33.42.254250 +0530,
triangle.png,you,0,Z,,,,,,,,,7,2,30,3,,,,,,,,,207.05392910000228,,,,,,,,,,,,,,,,,,,,,,,,,,,,,,,,,,207.03822260000015,207.05392910000228,207.5379264000003,207.5379264000003,207.5379264000003,207.5379264000003,207.5543833999982,207.83762410000054,207.83762410000054,207.83762410000054,,207.92201480000222,m,207.9224350000004,207.93777430000046,208.92206859999715,0.37644770000042627,None,208.93853329999547,,,,,,,,,,,,,,,,,,,,,,,,,,,,,,,,,,,,,,,,,,,,,,,,,,,,,,,,,,,,,,,,,,,,,,,,,,,,,,,,,,,,B_12,001,2024-11-30_09h33.25.664,untitled,2024.1.5,None,2024-11-30 09h33.42.254250 +0530,
square.png,stranger,0,Z,,,,,,,,,7,3,31,2,,,,,,,,,208.93853329999547,,,,,,,,,,,,,,,,,,,,,,,,,,,,,,,,,,208.92241869999998,208.93853329999547,209.42208140000002,209.42208140000002,209.42208140000002,209.42208140000002,209.4386947000021,209.72210549999727,209.72210549999727,209.72210549999727,,210.15633309999976,z,210.1567630999998,210.17241869999998,211.15670469999895,0.7282210000048508,None,211.1729594999997,,,,,,,,,,,,,,,,,,,,,,,,,,,,,,,,,,,,,,,,,,,,,,,,,,,,,,,,,,,,,,,,,,,,,,,,,,,,,,,,,,,,B_12,001,2024-11-30_09h33.25.664,untitled,2024.1.5,None,2024-11-30 09h33.42.254250 +0530,
square.png,you,1,M,,,,,,,,,8,0,32,0,,,,,,,,,211.1729594999997,,,,,,,,,,,,,,,,,,,,,,,,,,,,,,,,,,211.1570569999967,211.1729594999997,211.65655960000004,211.65655960000004,211.65655960000004,211.65655960000004,211.6730674999999,211.95642889999726,211.95642889999726,211.95642889999726,,212.19061639999563,m,212.19103209999594,212.2069080000001,213.19101460000093,0.5176072999965982,None,213.20715070000006,,,,,,,,,,,,,,,,,,,,,,,,,,,,,,,,,,,,,,,,,,,,,,,,,,,,,,,,,,,,,,,,,,,,,,,,,,,,,,,,,,,,B_12,001,2024-11-30_09h33.25.664,untitled,2024.1.5,None,2024-11-30 09h33.42.254250 +0530,
triangle.png,you,0,Z,,,,,,,,,8,1,33,3,,,,,,,,,213.20715070000006,,,,,,,,,,,,,,,,,,,,,,,,,,,,,,,,,,213.19136089999665,213.20715070000006,213.6910549000022,213.6910549000022,213.6910549000022,213.6910549000022,213.70736880000186,213.99106179999944,213.99106179999944,213.99106179999944,,214.32518410000193,z,214.32563700000173,214.3413131999987,215.32539259999612,0.6191298999983701,None,215.34148019999702,,,,,,,,,,,,,,,,,,,,,,,,,,,,,,,,,,,,,,,,,,,,,,,,,,,,,,,,,,,,,,,,,,,,,,,,,,,,,,,,,,,,B_12,001,2024-11-30_09h33.25.664,untitled,2024.1.5,None,2024-11-30 09h33.42.254250 +0530,
square.png,stranger,0,Z,,,,,,,,,8,2,34,2,,,,,,,,,215.34148019999702,,,,,,,,,,,,,,,,,,,,,,,,,,,,,,,,,,215.32574190000014,215.34148019999702,215.82539579999866,215.82539579999866,215.82539579999866,215.82539579999866,215.8419780999975,216.12534929999674,216.12534929999674,216.12534929999674,216.92576420000114,216.90970150000066,None,216.90989249999984,216.92576420000114,217.91016439999657,,,217.92627730000095,,,,,,,,,,,,,,,,,,,,,,,,,,,,,,,,,,,,,,,,,,,,,,,,,,,,,,,,,,,,,,,,,,,,,,,,,,,,,,,,,,,,B_12,001,2024-11-30_09h33.25.664,untitled,2024.1.5,None,2024-11-30 09h33.42.254250 +0530,
triangle.png,stranger,1,M,,,,,,,,,8,3,35,1,,,,,,,,,217.92627730000095,,,,,,,,,,,,,,,,,,,,,,,,,,,,,,,,,,217.91051460000017,217.92627730000095,218.42689979999705,218.42689979999705,218.42689979999705,218.42689979999705,218.42689979999705,218.72650050000084,218.72650050000084,218.72650050000084,,219.4611911999964,m,219.4616176999989,219.47712119999778,220.4613771000004,1.031210100001772,None,220.47748229999706,,,,,,,,,,,,,,,,,,,,,,,,,,,,,,,,,,,,,,,,,,,,,,,,,,,,,,,,,,,,,,,,,,,,,,,,,,,,,,,,,,,,B_12,001,2024-11-30_09h33.25.664,untitled,2024.1.5,None,2024-11-30 09h33.42.254250 +0530,
square.png,stranger,0,Z,,,,,,,,,9,0,36,2,,,,,,,,,220.47748229999706,,,,,,,,,,,,,,,,,,,,,,,,,,,,,,,,,,220.4617333999995,220.47748229999706,220.9615382999982,220.9615382999982,220.9615382999982,220.9615382999982,220.97810469999968,221.26144009999553,221.26144009999553,221.26144009999553,,221.54557850000128,z,221.5460028000016,221.561609700002,222.54565799999546,0.5676375000039116,None,222.5618082000001,,,,,,,,,,,,,,,,,,,,,,,,,,,,,,,,,,,,,,,,,,,,,,,,,,,,,,,,,,,,,,,,,,,,,,,,,,,,,,,,,,,,B_12,001,2024-11-30_09h33.25.664,untitled,2024.1.5,None,2024-11-30 09h33.42.254250 +0530,
triangle.png,stranger,1,M,,,,,,,,,9,1,37,1,,,,,,,,,222.5618082000001,,,,,,,,,,,,,,,,,,,,,,,,,,,,,,,,,,222.5460149999999,222.5618082000001,223.04580030000216,223.04580030000216,223.04580030000216,223.04580030000216,223.06230289999803,223.34575190000032,223.34575190000032,223.34575190000032,,223.8131573999999,m,223.8135837000009,223.82932289999735,224.8134401999996,0.7526810999988811,None,224.8298156000019,,,,,,,,,,,,,,,,,,,,,,,,,,,,,,,,,,,,,,,,,,,,,,,,,,,,,,,,,,,,,,,,,,,,,,,,,,,,,,,,,,,,B_12,001,2024-11-30_09h33.25.664,untitled,2024.1.5,None,2024-11-30 09h33.42.254250 +0530,
square.png,you,1,M,,,,,,,,,9,2,38,0,,,,,,,,,224.8298156000019,,,,,,,,,,,,,,,,,,,,,,,,,,,,,,,,,,224.81379200000083,224.8298156000019,225.3133827999991,225.3133827999991,225.3133827999991,225.3133827999991,225.32998979999684,225.61353940000117,225.61353940000117,225.61353940000117,,225.81434900000022,m,225.8147841999962,225.8303758999973,226.8146345999994,0.4967832999973325,None,226.83089279999695,,,,,,,,,,,,,,,,,,,,,,,,,,,,,,,,,,,,,,,,,,,,,,,,,,,,,,,,,,,,,,,,,,,,,,,,,,,,,,,,,,,,B_12,001,2024-11-30_09h33.25.664,untitled,2024.1.5,None,2024-11-30 09h33.42.254250 +0530,
triangle.png,you,0,Z,,,,,,,,,9,3,39,3,,,,,,,,,226.83089279999695,,,,,,,,,,,,,,,,,,,,,,,,,,,,,,,,,,226.8149967999998,226.83089279999695,227.31453409999813,227.31453409999813,227.31453409999813,227.31453409999813,227.33135509999556,227.61451249999664,227.61451249999664,227.61451249999664,,227.9154387000017,z,227.91585889999988,227.93137410000054,228.91581829999632,0.59624640000402,None,228.93211359999987,,,,,,,,,,,,,,,,,,,,,,,,,,,,,,,,,,,,,,,,,,,,,,,,,,,,,,,,,,,,,,,,,,,,,,,,,,,,,,,,,,,,B_12,001,2024-11-30_09h33.25.664,untitled,2024.1.5,None,2024-11-30 09h33.42.254250 +0530,
triangle.png,stranger,1,M,,,,,,,,,10,0,40,1,,,,,,,,,228.93211359999987,,,,,,,,,,,,,,,,,,,,,,,,,,,,,,,,,,228.916169600001,228.93211359999987,229.4157608999958,229.4157608999958,229.4157608999958,229.4157608999958,229.43237679999584,229.71553100000165,229.71553100000165,229.71553100000165,,230.31672049999906,m,230.3171427999987,230.33258470000146,231.3171194000024,0.8853534000008949,None,231.33317869999883,,,,,,,,,,,,,,,,,,,,,,,,,,,,,,,,,,,,,,,,,,,,,,,,,,,,,,,,,,,,,,,,,,,,,,,,,,,,,,,,,,,,B_12,001,2024-11-30_09h33.25.664,untitled,2024.1.5,None,2024-11-30 09h33.42.254250 +0530,
triangle.png,you,0,Z,,,,,,,,,10,1,41,3,,,,,,,,,231.33317869999883,,,,,,,,,,,,,,,,,,,,,,,,,,,,,,,,,,231.31746869999915,231.33317869999883,231.81692259999545,231.81692259999545,231.81692259999545,231.81692259999545,231.83358939999744,232.11686239999835,232.11686239999835,232.11686239999835,,232.26784880000196,z,232.2682879999993,232.28359980000096,233.26783939999586,0.4487294999998994,None,233.2842365999968,,,,,,,,,,,,,,,,,,,,,,,,,,,,,,,,,,,,,,,,,,,,,,,,,,,,,,,,,,,,,,,,,,,,,,,,,,,,,,,,,,,,B_12,001,2024-11-30_09h33.25.664,untitled,2024.1.5,None,2024-11-30 09h33.42.254250 +0530,
square.png,stranger,0,Z,,,,,,,,,10,2,42,2,,,,,,,,,233.2842365999968,,,,,,,,,,,,,,,,,,,,,,,,,,,,,,,,,,233.26819109999633,233.2842365999968,233.76773110000067,233.76773110000067,233.76773110000067,233.76773110000067,233.78440389999741,234.06787149999582,234.06787149999582,234.06787149999582,,234.43557259999943,z,234.435994200001,234.45131499999843,235.4355859999996,0.6581480000022566,None,235.4520446999959,,,,,,,,,,,,,,,,,,,,,,,,,,,,,,,,,,,,,,,,,,,,,,,,,,,,,,,,,,,,,,,,,,,,,,,,,,,,,,,,,,,,B_12,001,2024-11-30_09h33.25.664,untitled,2024.1.5,None,2024-11-30 09h33.42.254250 +0530,
square.png,you,1,M,,,,,,,,,10,3,43,0,,,,,,,,,235.4520446999959,,,,,,,,,,,,,,,,,,,,,,,,,,,,,,,,,,235.435934299996,235.4520446999959,235.93564129999868,235.93564129999868,235.93564129999868,235.93564129999868,235.95229429999745,236.23552409999684,236.23552409999684,236.23552409999684,,236.45302699999593,m,236.45344849999674,236.46910750000097,237.4532831999968,0.5016735999961384,None,237.46972010000172,,,,,,,,,,,,,,,,,,,,,,,,,,,,,,,,,,,,,,,,,,,,,,,,,,,,,,,,,,,,,,,,,,,,,,,,,,,,,,,,,,,,B_12,001,2024-11-30_09h33.25.664,untitled,2024.1.5,None,2024-11-30 09h33.42.254250 +0530,
square.png,stranger,0,Z,,,,,,,,,11,0,44,2,,,,,,,,,237.46972010000172,,,,,,,,,,,,,,,,,,,,,,,,,,,,,,,,,,237.45363029999862,237.46972010000172,237.95340069999656,237.95340069999656,237.95340069999656,237.95340069999656,237.97003299999778,238.25314739999885,238.25314739999885,238.25314739999885,,238.47102599999926,z,238.47145150000142,238.4868545999998,239.4709989999974,0.5093099000005168,None,239.48737640000036,,,,,,,,,,,,,,,,,,,,,,,,,,,,,,,,,,,,,,,,,,,,,,,,,,,,,,,,,,,,,,,,,,,,,,,,,,,,,,,,,,,,B_12,001,2024-11-30_09h33.25.664,untitled,2024.1.5,None,2024-11-30 09h33.42.254250 +0530,
square.png,you,1,M,,,,,,,,,11,1,45,0,,,,,,,,,239.48737640000036,,,,,,,,,,,,,,,,,,,,,,,,,,,,,,,,,,239.4713483000014,239.48737640000036,239.97102050000103,239.97102050000103,239.97102050000103,239.97102050000103,239.98766510000132,240.27104819999659,240.27104819999659,240.27104819999659,,240.50536570000259,m,240.50578490000044,240.52119089999906,241.50547469999583,0.5314846000037505,None,241.52166739999666,,,,,,,,,,,,,,,,,,,,,,,,,,,,,,,,,,,,,,,,,,,,,,,,,,,,,,,,,,,,,,,,,,,,,,,,,,,,,,,,,,,,B_12,001,2024-11-30_09h33.25.664,untitled,2024.1.5,None,2024-11-30 09h33.42.254250 +0530,
triangle.png,you,0,Z,,,,,,,,,11,2,46,3,,,,,,,,,241.52166739999666,,,,,,,,,,,,,,,,,,,,,,,,,,,,,,,,,,241.50582900000154,241.52166739999666,242.00553899999795,242.00553899999795,242.00553899999795,242.00553899999795,242.0221642999968,242.30528319999576,242.30528319999576,242.30528319999576,,242.47279159999744,m,242.47320469999977,242.48880110000027,243.47312090000196,0.4557658000048832,None,243.48923289999948,,,,,,,,,,,,,,,,,,,,,,,,,,,,,,,,,,,,,,,,,,,,,,,,,,,,,,,,,,,,,,,,,,,,,,,,,,,,,,,,,,,,B_12,001,2024-11-30_09h33.25.664,untitled,2024.1.5,None,2024-11-30 09h33.42.254250 +0530,
triangle.png,stranger,1,M,,,,,,,,,11,3,47,1,,,,,,,,,243.48923289999948,,,,,,,,,,,,,,,,,,,,,,,,,,,,,,,,,,243.47348829999828,243.48923289999948,243.9730488999994,243.9730488999994,243.9730488999994,243.9730488999994,243.98969090000173,244.27324589999625,244.27324589999625,244.27324589999625,,244.44060819999868,z,244.4410579999967,244.45660700000008,245.44082309999794,0.46152470000379253,None,245.4569255000024,,,,,,,,,,,,,,,,,,,,,,,,,,,,,,,,,,,,,,,,,,,,,,,,,,,,,,,,,,,,,,,,,,,,,,,,,,,,,,,,,,,,B_12,001,2024-11-30_09h33.25.664,untitled,2024.1.5,None,2024-11-30 09h33.42.254250 +0530,
triangle.png,stranger,1,M,,,,,,,,,12,0,48,1,,,,,,,,,245.4569255000024,,,,,,,,,,,,,,,,,,,,,,,,,,,,,,,,,,245.4411753999957,245.4569255000024,245.94083559999854,245.94083559999854,245.94083559999854,245.94083559999854,245.95743799999764,246.24065939999855,246.24065939999855,246.24065939999855,,246.77499720000196,z,246.77541709999787,246.791023400001,247.77553169999737,0.8213980000000447,None,247.79144979999546,,,,,,,,,,,,,,,,,,,,,,,,,,,,,,,,,,,,,,,,,,,,,,,,,,,,,,,,,,,,,,,,,,,,,,,,,,,,,,,,,,,,B_12,001,2024-11-30_09h33.25.664,untitled,2024.1.5,None,2024-11-30 09h33.42.254250 +0530,
square.png,stranger,0,Z,,,,,,,,,12,1,49,2,,,,,,,,,247.79144979999546,,,,,,,,,,,,,,,,,,,,,,,,,,,,,,,,,,247.77588770000148,247.79144979999546,248.27538900000218,248.27538900000218,248.27538900000218,248.27538900000218,248.29210359999706,248.575388199999,248.575388199999,248.575388199999,249.3758272999985,249.35928550000244,None,249.35947719999967,249.3758272999985,250.3598662000004,,,250.37625709999702,,,,,,,,,,,,,,,,,,,,,,,,,,,,,,,,,,,,,,,,,,,,,,,,,,,,,,,,,,,,,,,,,,,,,,,,,,,,,,,,,,,,B_12,001,2024-11-30_09h33.25.664,untitled,2024.1.5,None,2024-11-30 09h33.42.254250 +0530,
square.png,you,1,M,,,,,,,,,12,2,50,0,,,,,,,,,250.37625709999702,,,,,,,,,,,,,,,,,,,,,,,,,,,,,,,,,,250.36021159999655,250.37625709999702,250.87643109999772,250.87643109999772,250.87643109999772,250.87643109999772,250.87643109999772,251.1765402999954,251.1765402999954,251.1765402999954,,251.37745449999784,m,251.3778725000011,251.39329700000235,252.37765589999617,0.4846873999995296,None,252.39383729999827,,,,,,,,,,,,,,,,,,,,,,,,,,,,,,,,,,,,,,,,,,,,,,,,,,,,,,,,,,,,,,,,,,,,,,,,,,,,,,,,,,,,B_12,001,2024-11-30_09h33.25.664,untitled,2024.1.5,None,2024-11-30 09h33.42.254250 +0530,
triangle.png,you,0,Z,,,,,,,,,12,3,51,3,,,,,,,,,252.39383729999827,,,,,,,,,,,,,,,,,,,,,,,,,,,,,,,,,,252.37800509999943,252.39383729999827,252.87766230000125,252.87766230000125,252.87766230000125,252.87766230000125,252.89421810000204,253.177614799999,253.177614799999,253.177614799999,,253.51175440000225,z,253.5121732999978,253.52796890000172,254.5121450000006,0.6290920000028564,None,254.52825909999956,,,,,,,,,,,,,,,,,,,,,,,,,,,,,,,,,,,,,,,,,,,,,,,,,,,,,,,,,,,,,,,,,,,,,,,,,,,,,,,,,,,,B_12,001,2024-11-30_09h33.25.664,untitled,2024.1.5,None,2024-11-30 09h33.42.254250 +0530,
triangle.png,stranger,1,M,,,,,,,,,13,0,52,1,,,,,,,,,254.52825909999956,,,,,,,,,,,,,,,,,,,,,,,,,,,,,,,,,,254.51249709999684,254.52825909999956,255.01214569999865,255.01214569999865,255.01214569999865,255.01214569999865,255.02846449999925,255.31186870000238,255.31186870000238,255.31186870000238,,255.5796074999962,m,255.58002919999853,255.59551459999784,256.5800817999989,0.5529051000048639,None,256.59622890000173,,,,,,,,,,,,,,,,,,,,,,,,,,,,,,,,,,,,,,,,,,,,,,,,,,,,,,,,,,,,,,,,,,,,,,,,,,,,,,,,,,,,B_12,001,2024-11-30_09h33.25.664,untitled,2024.1.5,None,2024-11-30 09h33.42.254250 +0530,
square.png,you,1,M,,,,,,,,,13,1,53,0,,,,,,,,,256.59622890000173,,,,,,,,,,,,,,,,,,,,,,,,,,,,,,,,,,256.5804339000024,256.59622890000173,257.07988289999776,257.07988289999776,257.07988289999776,257.07988289999776,257.09650949999923,257.37985130000015,257.37985130000015,257.37985130000015,,257.6306914000015,m,257.6311147000015,257.6467365999997,258.6310306000014,0.534423400000378,None,258.646986300002,,,,,,,,,,,,,,,,,,,,,,,,,,,,,,,,,,,,,,,,,,,,,,,,,,,,,,,,,,,,,,,,,,,,,,,,,,,,,,,,,,,,B_12,001,2024-11-30_09h33.25.664,untitled,2024.1.5,None,2024-11-30 09h33.42.254250 +0530,
square.png,stranger,0,Z,,,,,,,,,13,2,54,2,,,,,,,,,258.646986300002,,,,,,,,,,,,,,,,,,,,,,,,,,,,,,,,,,258.6313924999995,258.646986300002,259.13084700000036,259.13084700000036,259.13084700000036,259.13084700000036,259.14740860000165,259.43076769999607,259.43076769999607,259.43076769999607,,259.7150232999993,z,259.71543949999614,259.7308770000018,260.7151546000023,0.5798543999990216,None,260.73140799999965,,,,,,,,,,,,,,,,,,,,,,,,,,,,,,,,,,,,,,,,,,,,,,,,,,,,,,,,,,,,,,,,,,,,,,,,,,,,,,,,,,,,B_12,001,2024-11-30_09h33.25.664,untitled,2024.1.5,None,2024-11-30 09h33.42.254250 +0530,
triangle.png,you,0,Z,,,,,,,,,13,3,55,3,,,,,,,,,260.73140799999965,,,,,,,,,,,,,,,,,,,,,,,,,,,,,,,,,,260.7155061000012,260.73140799999965,261.2153868000023,261.2153868000023,261.2153868000023,261.2153868000023,261.2317650999976,261.51535010000225,261.51535010000225,261.51535010000225,,261.9158663999988,z,261.9162939000016,261.932089599999,262.9163789000013,0.6991994999989402,None,262.9325047999955,,,,,,,,,,,,,,,,,,,,,,,,,,,,,,,,,,,,,,,,,,,,,,,,,,,,,,,,,,,,,,,,,,,,,,,,,,,,,,,,,,,,B_12,001,2024-11-30_09h33.25.664,untitled,2024.1.5,None,2024-11-30 09h33.42.254250 +0530,
triangle.png,you,0,Z,,,,,,,,,14,0,56,3,,,,,,,,,262.9325047999955,,,,,,,,,,,,,,,,,,,,,,,,,,,,,,,,,,262.9167321999994,262.9325047999955,263.4162230000002,263.4162230000002,263.4162230000002,263.4162230000002,263.4328677000012,263.7164358000009,263.7164358000009,263.7164358000009,,264.1005681999959,z,264.10099600000103,264.1165746999977,265.1010230999964,0.6740017000047374,None,265.11703249999846,,,,,,,,,,,,,,,,,,,,,,,,,,,,,,,,,,,,,,,,,,,,,,,,,,,,,,,,,,,,,,,,,,,,,,,,,,,,,,,,,,,,B_12,001,2024-11-30_09h33.25.664,untitled,2024.1.5,None,2024-11-30 09h33.42.254250 +0530,
triangle.png,stranger,1,M,,,,,,,,,14,1,57,1,,,,,,,,,265.11703249999846,,,,,,,,,,,,,,,,,,,,,,,,,,,,,,,,,,265.10137620000023,265.11703249999846,265.60067379999964,265.60067379999964,265.60067379999964,265.60067379999964,265.61751509999885,265.90085140000156,265.90085140000156,265.90085140000156,,266.1181185999958,m,266.1185497999977,266.13431229999696,267.11845200000243,0.5133143999992171,None,267.1348966000005,,,,,,,,,,,,,,,,,,,,,,,,,,,,,,,,,,,,,,,,,,,,,,,,,,,,,,,,,,,,,,,,,,,,,,,,,,,,,,,,,,,,B_12,001,2024-11-30_09h33.25.664,untitled,2024.1.5,None,2024-11-30 09h33.42.254250 +0530,
square.png,you,1,M,,,,,,,,,14,2,58,0,,,,,,,,,267.1348966000005,,,,,,,,,,,,,,,,,,,,,,,,,,,,,,,,,,267.1188342999958,267.1348966000005,267.61848779999855,267.61848779999855,267.61848779999855,267.61848779999855,267.6350964000012,267.9183208999966,267.9183208999966,267.9183208999966,,268.0360731999972,m,268.03649510000105,268.05189729999984,269.03624809999747,0.41545350000524195,None,269.0525916999977,,,,,,,,,,,,,,,,,,,,,,,,,,,,,,,,,,,,,,,,,,,,,,,,,,,,,,,,,,,,,,,,,,,,,,,,,,,,,,,,,,,,B_12,001,2024-11-30_09h33.25.664,untitled,2024.1.5,None,2024-11-30 09h33.42.254250 +0530,
square.png,stranger,0,Z,,,,,,,,,14,3,59,2,,,,,,,,,269.0525916999977,,,,,,,,,,,,,,,,,,,,,,,,,,,,,,,,,,269.03660500000115,269.0525916999977,269.53625060000195,269.53625060000195,269.53625060000195,269.53625060000195,269.55281020000257,269.8360305000024,269.8360305000024,269.8360305000024,,269.9870817999981,z,269.98750550000113,270.00289129999874,270.9871501000016,0.4339040999984718,None,271.0033048999976,,,,,,,,,,,,,,,,,,,,,,,,,,,,,,,,,,,,,,,,,,,,,,,,,,,,,,,,,,,,,,,,,,,,,,,,,,,,,,,,,,,,B_12,001,2024-11-30_09h33.25.664,untitled,2024.1.5,None,2024-11-30 09h33.42.254250 +0530,
square.png,stranger,0,Z,,,,,,,,,15,0,60,2,,,,,,,,,271.0033048999976,,,,,,,,,,,,,,,,,,,,,,,,,,,,,,,,,,270.98749490000046,271.0033048999976,271.4871400999982,271.4871400999982,271.4871400999982,271.4871400999982,271.5038260000001,271.78696019999916,271.78696019999916,271.78696019999916,,272.3548692999975,z,272.35529159999714,272.3709028000012,273.3551107999956,0.8634442999973544,None,273.3716194000008,,,,,,,,,,,,,,,,,,,,,,,,,,,,,,,,,,,,,,,,,,,,,,,,,,,,,,,,,,,,,,,,,,,,,,,,,,,,,,,,,,,,B_12,001,2024-11-30_09h33.25.664,untitled,2024.1.5,None,2024-11-30 09h33.42.254250 +0530,
triangle.png,stranger,1,M,,,,,,,,,15,1,61,1,,,,,,,,,273.3716194000008,,,,,,,,,,,,,,,,,,,,,,,,,,,,,,,,,,273.35546469999827,273.3716194000008,273.85489750000124,273.85489750000124,273.85489750000124,273.85489750000124,273.87178219999623,274.15521389999776,274.15521389999776,274.15521389999776,,274.5391501999984,m,274.53957329999685,274.55531289999635,275.53960579999693,0.6795243999949889,None,275.55571029999555,,,,,,,,,,,,,,,,,,,,,,,,,,,,,,,,,,,,,,,,,,,,,,,,,,,,,,,,,,,,,,,,,,,,,,,,,,,,,,,,,,,,B_12,001,2024-11-30_09h33.25.664,untitled,2024.1.5,None,2024-11-30 09h33.42.254250 +0530,
triangle.png,you,0,Z,,,,,,,,,15,2,62,3,,,,,,,,,275.55571029999555,,,,,,,,,,,,,,,,,,,,,,,,,,,,,,,,,,275.53995069999655,275.55571029999555,276.0396447000021,276.0396447000021,276.0396447000021,276.0396447000021,276.0561663999979,276.339338400001,276.339338400001,276.339338400001,,276.5568923999963,z,276.55734200000006,276.57302479999635,277.5573927000005,0.5102250999989337,None,277.5734827999986,,,,,,,,,,,,,,,,,,,,,,,,,,,,,,,,,,,,,,,,,,,,,,,,,,,,,,,,,,,,,,,,,,,,,,,,,,,,,,,,,,,,B_12,001,2024-11-30_09h33.25.664,untitled,2024.1.5,None,2024-11-30 09h33.42.254250 +0530,
square.png,you,1,M,,,,,,,,,15,3,63,0,,,,,,,,,277.5734827999986,,,,,,,,,,,,,,,,,,,,,,,,,,,,,,,,,,277.5577381999974,277.5734827999986,278.05725849999726,278.05725849999726,278.05725849999726,278.05725849999726,278.0738810999974,278.35710459999973,278.35710459999973,278.35710459999973,,278.641606899997,m,278.6420309000023,278.6573281000019,279.64161140000215,0.5812403999952949,None,279.65770650000195,,,,,,,,,,,,,,,,,,,,,,,,,,,,,,,,,,,,,,,,,,,,,,,,,,,,,,,,,,,,,,,,,,,,,,,,,,,,,,,,,,,,B_12,001,2024-11-30_09h33.25.664,untitled,2024.1.5,None,2024-11-30 09h33.42.254250 +0530,
triangle.png,you,0,Z,,,,,,,,,16,0,64,3,,,,,,,,,279.65770650000195,,,,,,,,,,,,,,,,,,,,,,,,,,,,,,,,,,279.6419834999979,279.65770650000195,280.1416922999997,280.1416922999997,280.1416922999997,280.1416922999997,280.1582086999988,280.44153039999946,280.44153039999946,280.44153039999946,,280.77593499999784,z,280.77639239999553,280.79185750000033,281.77599989999726,0.6321671000041533,None,281.7920929999964,,,,,,,,,,,,,,,,,,,,,,,,,,,,,,,,,,,,,,,,,,,,,,,,,,,,,,,,,,,,,,,,,,,,,,,,,,,,,,,,,,,,B_12,001,2024-11-30_09h33.25.664,untitled,2024.1.5,None,2024-11-30 09h33.42.254250 +0530,
triangle.png,stranger,1,M,,,,,,,,,16,1,65,1,,,,,,,,,281.7920929999964,,,,,,,,,,,,,,,,,,,,,,,,,,,,,,,,,,281.7763491000005,281.7920929999964,282.2759444999974,282.2759444999974,282.2759444999974,282.2759444999974,282.2926703999983,282.57606680000026,282.57606680000026,282.57606680000026,,282.810063799996,m,282.81048369999917,282.82622499999707,283.8103493000017,0.5259322000056272,None,283.82666739999695,,,,,,,,,,,,,,,,,,,,,,,,,,,,,,,,,,,,,,,,,,,,,,,,,,,,,,,,,,,,,,,,,,,,,,,,,,,,,,,,,,,,B_12,001,2024-11-30_09h33.25.664,untitled,2024.1.5,None,2024-11-30 09h33.42.254250 +0530,
square.png,you,1,M,,,,,,,,,16,2,66,0,,,,,,,,,283.82666739999695,,,,,,,,,,,,,,,,,,,,,,,,,,,,,,,,,,283.8107086000018,283.82666739999695,284.3100107999999,284.3100107999999,284.3100107999999,284.3100107999999,284.3266592,284.61025349999545,284.61025349999545,284.61025349999545,,284.8944224000006,m,284.8948526999957,284.9102559000021,285.89483889999974,0.5796231999993324,None,285.91074359999766,,,,,,,,,,,,,,,,,,,,,,,,,,,,,,,,,,,,,,,,,,,,,,,,,,,,,,,,,,,,,,,,,,,,,,,,,,,,,,,,,,,,B_12,001,2024-11-30_09h33.25.664,untitled,2024.1.5,None,2024-11-30 09h33.42.254250 +0530,
square.png,stranger,0,Z,,,,,,,,,16,3,67,2,,,,,,,,,285.91074359999766,,,,,,,,,,,,,,,,,,,,,,,,,,,,,,,,,,285.895199999999,285.91074359999766,286.39465570000175,286.39465570000175,286.39465570000175,286.39465570000175,286.4116403000007,286.6947691999958,286.6947691999958,286.6947691999958,,287.1291882000005,z,287.1296144000007,287.14517189999606,288.12939840000035,0.7236319000003277,None,288.14555090000067,,,,,,,,,,,,,,,,,,,,,,,,,,,,,,,,,,,,,,,,,,,,,,,,,,,,,,,,,,,,,,,,,,,,,,,,,,,,,,,,,,,,B_12,001,2024-11-30_09h33.25.664,untitled,2024.1.5,None,2024-11-30 09h33.42.254250 +0530,
triangle.png,you,0,Z,,,,,,,,,17,0,68,3,,,,,,,,,288.14555090000067,,,,,,,,,,,,,,,,,,,,,,,,,,,,,,,,,,288.1297545999987,288.14555090000067,288.6293532999989,288.6293532999989,288.6293532999989,288.6293532999989,288.6458727999998,288.9292934999976,288.9292934999976,288.9292934999976,,289.3637387999988,z,289.36419690000184,289.3796274999986,290.3636828000017,0.7324857999992673,None,290.38006060000043,,,,,,,,,,,,,,,,,,,,,,,,,,,,,,,,,,,,,,,,,,,,,,,,,,,,,,,,,,,,,,,,,,,,,,,,,,,,,,,,,,,,B_12,001,2024-11-30_09h33.25.664,untitled,2024.1.5,None,2024-11-30 09h33.42.254250 +0530,
square.png,you,1,M,,,,,,,,,17,1,69,0,,,,,,,,,290.38006060000043,,,,,,,,,,,,,,,,,,,,,,,,,,,,,,,,,,290.3640394999966,290.38006060000043,290.8636886000022,290.8636886000022,290.8636886000022,290.8636886000022,290.88014739999926,291.1636940000026,291.1636940000026,291.1636940000026,,291.5311752999987,m,291.53161530000216,291.5473162999988,292.5315569000013,0.6586567000049399,None,292.54768219999823,,,,,,,,,,,,,,,,,,,,,,,,,,,,,,,,,,,,,,,,,,,,,,,,,,,,,,,,,,,,,,,,,,,,,,,,,,,,,,,,,,,,B_12,001,2024-11-30_09h33.25.664,untitled,2024.1.5,None,2024-11-30 09h33.42.254250 +0530,
square.png,stranger,0,Z,,,,,,,,,17,2,70,2,,,,,,,,,292.54768219999823,,,,,,,,,,,,,,,,,,,,,,,,,,,,,,,,,,292.5319174999968,292.54768219999823,293.03157320000173,293.03157320000173,293.03157320000173,293.03157320000173,293.0480888999955,293.33163929999864,293.33163929999864,293.33163929999864,,293.682310199998,z,293.68272669999715,293.69823319999705,294.6827745999981,0.6429474999968079,None,294.698905199999,,,,,,,,,,,,,,,,,,,,,,,,,,,,,,,,,,,,,,,,,,,,,,,,,,,,,,,,,,,,,,,,,,,,,,,,,,,,,,,,,,,,B_12,001,2024-11-30_09h33.25.664,untitled,2024.1.5,None,2024-11-30 09h33.42.254250 +0530,
triangle.png,stranger,1,M,,,,,,,,,17,3,71,1,,,,,,,,,294.698905199999,,,,,,,,,,,,,,,,,,,,,,,,,,,,,,,,,,294.6831321999998,294.698905199999,295.1826738000018,295.1826738000018,295.1826738000018,295.1826738000018,295.19917120000173,295.4825187999959,295.4825187999959,295.4825187999959,,296.25037259999954,m,296.25080719999823,296.2666984000025,297.2506854000021,1.0597094999975525,None,297.2667672000025,,,,,,,,,,,,,,,,,,,,,,,,,,,,,,,,,,,,,,,,,,,,,,,,,,,,,,,,,,,,,,,,,,,,,,,,,,,,,,,,,,,,B_12,001,2024-11-30_09h33.25.664,untitled,2024.1.5,None,2024-11-30 09h33.42.254250 +0530,
square.png,you,1,M,,,,,,,,,18,0,72,0,,,,,,,,,297.2667672000025,,,,,,,,,,,,,,,,,,,,,,,,,,,,,,,,,,297.25103659999877,297.2667672000025,297.7504766999991,297.7504766999991,297.7504766999991,297.7504766999991,297.76699609999923,298.0506172999958,298.0506172999958,298.0506172999958,,298.3682544999974,m,298.36867699999857,298.38404029999947,299.3684972999981,0.6163757000031183,None,299.38459449999937,,,,,,,,,,,,,,,,,,,,,,,,,,,,,,,,,,,,,,,,,,,,,,,,,,,,,,,,,,,,,,,,,,,,,,,,,,,,,,,,,,,,B_12,001,2024-11-30_09h33.25.664,untitled,2024.1.5,None,2024-11-30 09h33.42.254250 +0530,
triangle.png,you,0,Z,,,,,,,,,18,1,73,3,,,,,,,,,299.38459449999937,,,,,,,,,,,,,,,,,,,,,,,,,,,,,,,,,,299.36884570000257,299.38459449999937,299.8683394999971,299.8683394999971,299.8683394999971,299.8683394999971,299.8850947999963,300.16833269999916,300.16833269999916,300.16833269999916,,300.51920699999755,z,300.5196403000009,300.53510319999623,301.51953199999843,0.649064700002782,None,301.53562950000196,,,,,,,,,,,,,,,,,,,,,,,,,,,,,,,,,,,,,,,,,,,,,,,,,,,,,,,,,,,,,,,,,,,,,,,,,,,,,,,,,,,,B_12,001,2024-11-30_09h33.25.664,untitled,2024.1.5,None,2024-11-30 09h33.42.254250 +0530,
triangle.png,stranger,1,M,,,,,,,,,18,2,74,1,,,,,,,,,301.53562950000196,,,,,,,,,,,,,,,,,,,,,,,,,,,,,,,,,,301.51988210000127,301.53562950000196,302.0194440999985,302.0194440999985,302.0194440999985,302.0194440999985,302.035982399997,302.3194580999989,302.3194580999989,302.3194580999989,,302.83692509999673,z,302.8373525999996,302.85283940000227,303.83740269999544,0.814607000000251,None,303.85352740000235,,,,,,,,,,,,,,,,,,,,,,,,,,,,,,,,,,,,,,,,,,,,,,,,,,,,,,,,,,,,,,,,,,,,,,,,,,,,,,,,,,,,B_12,001,2024-11-30_09h33.25.664,untitled,2024.1.5,None,2024-11-30 09h33.42.254250 +0530,
square.png,stranger,0,Z,,,,,,,,,18,3,75,2,,,,,,,,,303.85352740000235,,,,,,,,,,,,,,,,,,,,,,,,,,,,,,,,,,303.83775559999776,303.85352740000235,304.33713619999617,304.33713619999617,304.33713619999617,304.33713619999617,304.3537762999986,304.6370876000001,304.6370876000001,304.6370876000001,,305.25500559999637,z,305.2554270999972,305.2710686999999,306.2552261999954,0.90563999999722,None,306.2716033999968,,,,,,,,,,,,,,,,,,,,,,,,,,,,,,,,,,,,,,,,,,,,,,,,,,,,,,,,,,,,,,,,,,,,,,,,,,,,,,,,,,,,B_12,001,2024-11-30_09h33.25.664,untitled,2024.1.5,None,2024-11-30 09h33.42.254250 +0530,
triangle.png,you,0,Z,,,,,,,,,19,0,76,3,,,,,,,,,306.2716033999968,,,,,,,,,,,,,,,,,,,,,,,,,,,,,,,,,,306.2555729000014,306.2716033999968,306.7552055999986,306.7552055999986,306.7552055999986,306.7552055999986,306.77163379999547,307.0549630000023,307.0549630000023,307.0549630000023,,307.4562444999974,m,307.45666150000034,307.47230149999814,308.45641089999845,0.6908884000004036,None,308.4725677000024,,,,,,,,,,,,,,,,,,,,,,,,,,,,,,,,,,,,,,,,,,,,,,,,,,,,,,,,,,,,,,,,,,,,,,,,,,,,,,,,,,,,B_12,001,2024-11-30_09h33.25.664,untitled,2024.1.5,None,2024-11-30 09h33.42.254250 +0530,
square.png,stranger,0,Z,,,,,,,,,19,1,77,2,,,,,,,,,308.4725677000024,,,,,,,,,,,,,,,,,,,,,,,,,,,,,,,,,,308.4567634999985,308.4725677000024,308.95640399999684,308.95640399999684,308.95640399999684,308.95640399999684,308.97276050000073,309.2563244999983,309.2563244999983,309.2563244999983,,309.89063200000237,m,309.8910637000008,309.90646410000045,310.8909749000013,0.9177116999999271,None,310.90726999999606,,,,,,,,,,,,,,,,,,,,,,,,,,,,,,,,,,,,,,,,,,,,,,,,,,,,,,,,,,,,,,,,,,,,,,,,,,,,,,,,,,,,B_12,001,2024-11-30_09h33.25.664,untitled,2024.1.5,None,2024-11-30 09h33.42.254250 +0530,
triangle.png,stranger,1,M,,,,,,,,,19,2,78,1,,,,,,,,,310.90726999999606,,,,,,,,,,,,,,,,,,,,,,,,,,,,,,,,,,310.891320499999,310.90726999999606,311.39066230000026,311.39066230000026,311.39066230000026,311.39066230000026,311.4074515999964,311.69096490000084,311.69096490000084,311.69096490000084,,312.30850040000223,m,312.30892660000245,312.324592799996,313.3088594000001,0.90749379999761,None,313.3251011999964,,,,,,,,,,,,,,,,,,,,,,,,,,,,,,,,,,,,,,,,,,,,,,,,,,,,,,,,,,,,,,,,,,,,,,,,,,,,,,,,,,,,B_12,001,2024-11-30_09h33.25.664,untitled,2024.1.5,None,2024-11-30 09h33.42.254250 +0530,
square.png,you,1,M,,,,,,,,,19,3,79,0,,,,,,,,,313.3251011999964,,,,,,,,,,,,,,,,,,,,,,,,,,,,,,,,,,313.3092065999954,313.3251011999964,313.80862949999573,313.80862949999573,313.80862949999573,313.80862949999573,313.82523409999703,314.1088324000011,314.1088324000011,314.1088324000011,,314.3095753000016,m,314.30999560000055,314.3257164999959,315.3100254000019,0.4940414000011515,None,315.3262090999997,,,,,,,,,,,,,,,,,,,,,,,,,,,,,,,,,,,,,,,,,,,,,,,,,,,,,,,,,,,,,,,,,,,,,,,,,,,,,,,,,,,,B_12,001,2024-11-30_09h33.25.664,untitled,2024.1.5,None,2024-11-30 09h33.42.254250 +0530,
triangle.png,stranger,1,M,,,,,,,,,20,0,80,1,,,,,,,,,315.3262090999997,,,,,,,,,,,,,,,,,,,,,,,,,,,,,,,,,,315.3103695999962,315.3262090999997,315.8096168999982,315.8096168999982,315.8096168999982,315.8096168999982,315.82623579999927,316.109847599997,316.109847599997,316.109847599997,,316.4772784000015,z,316.477695900001,316.49323249999725,317.4775374000019,0.6520104999945033,None,317.4937875999967,,,,,,,,,,,,,,,,,,,,,,,,,,,,,,,,,,,,,,,,,,,,,,,,,,,,,,,,,,,,,,,,,,,,,,,,,,,,,,,,,,,,B_12,001,2024-11-30_09h33.25.664,untitled,2024.1.5,None,2024-11-30 09h33.42.254250 +0530,
square.png,stranger,0,Z,,,,,,,,,20,1,81,2,,,,,,,,,317.4937875999967,,,,,,,,,,,,,,,,,,,,,,,,,,,,,,,,,,317.4778865999979,317.4937875999967,317.9775321999987,317.9775321999987,317.9775321999987,317.9775321999987,317.99433670000144,318.2777344999995,318.2777344999995,318.2777344999995,,318.5950357999973,z,318.59546039999987,318.6110417000018,319.59533419999934,0.6122227000014391,None,319.6117263999986,,,,,,,,,,,,,,,,,,,,,,,,,,,,,,,,,,,,,,,,,,,,,,,,,,,,,,,,,,,,,,,,,,,,,,,,,,,,,,,,,,,,B_12,001,2024-11-30_09h33.25.664,untitled,2024.1.5,None,2024-11-30 09h33.42.254250 +0530,
square.png,you,1,M,,,,,,,,,20,2,82,0,,,,,,,,,319.6117263999986,,,,,,,,,,,,,,,,,,,,,,,,,,,,,,,,,,319.5956864999971,319.6117263999986,320.09522709999874,320.09522709999874,320.09522709999874,320.09522709999874,320.11201319999964,320.395239999998,320.395239999998,320.395239999998,,320.69623709999723,m,320.69665630000236,320.7123004000023,321.6962495999978,0.5896357000019634,None,321.71279859999777,,,,,,,,,,,,,,,,,,,,,,,,,,,,,,,,,,,,,,,,,,,,,,,,,,,,,,,,,,,,,,,,,,,,,,,,,,,,,,,,,,,,B_12,001,2024-11-30_09h33.25.664,untitled,2024.1.5,None,2024-11-30 09h33.42.254250 +0530,
triangle.png,you,0,Z,,,,,,,,,20,3,83,3,,,,,,,,,321.71279859999777,,,,,,,,,,,,,,,,,,,,,,,,,,,,,,,,,,321.69660560000193,321.71279859999777,322.1965141999972,322.1965141999972,322.1965141999972,322.1965141999972,322.21309859999747,322.49647469999763,322.49647469999763,322.49647469999763,,322.8637163999956,z,322.86414140000124,322.8799360999983,323.86411919999955,0.6610777000023518,None,323.88037059999624,,,,,,,,,,,,,,,,,,,,,,,,,,,,,,,,,,,,,,,,,,,,,,,,,,,,,,,,,,,,,,,,,,,,,,,,,,,,,,,,,,,,B_12,001,2024-11-30_09h33.25.664,untitled,2024.1.5,None,2024-11-30 09h33.42.254250 +0530,
square.png,stranger,0,Z,,,,,,,,,21,0,84,2,,,,,,,,,323.88037059999624,,,,,,,,,,,,,,,,,,,,,,,,,,,,,,,,,,323.86446419999993,323.88037059999624,324.36427040000126,324.36427040000126,324.36427040000126,324.36427040000126,324.38089670000045,324.6639630999998,324.6639630999998,324.6639630999998,,325.248608599999,z,325.2490949999992,325.26451449999877,326.24888949999877,0.8741698000012548,None,326.26502379999874,,,,,,,,,,,,,,,,,,,,,,,,,,,,,,,,,,,,,,,,,,,,,,,,,,,,,,,,,,,,,,,,,,,,,,,,,,,,,,,,,,,,B_12,001,2024-11-30_09h33.25.664,untitled,2024.1.5,None,2024-11-30 09h33.42.254250 +0530,
square.png,you,1,M,,,,,,,,,21,1,85,0,,,,,,,,,326.26502379999874,,,,,,,,,,,,,,,,,,,,,,,,,,,,,,,,,,326.2492345999999,326.26502379999874,326.7486878999989,326.7486878999989,326.7486878999989,326.7486878999989,326.7653121999974,327.0489199000003,327.0489199000003,327.0489199000003,,327.49954839999555,m,327.4999983000016,327.51551749999635,328.4999852999972,0.749611699997331,None,328.5162219999984,,,,,,,,,,,,,,,,,,,,,,,,,,,,,,,,,,,,,,,,,,,,,,,,,,,,,,,,,,,,,,,,,,,,,,,,,,,,,,,,,,,,B_12,001,2024-11-30_09h33.25.664,untitled,2024.1.5,None,2024-11-30 09h33.42.254250 +0530,
triangle.png,you,0,Z,,,,,,,,,21,2,86,3,,,,,,,,,328.5162219999984,,,,,,,,,,,,,,,,,,,,,,,,,,,,,,,,,,328.5003341999982,328.5162219999984,328.9999672999984,328.9999672999984,328.9999672999984,328.9999672999984,329.01668470000004,329.3000944000014,329.3000944000014,329.3000944000014,,329.6007686000012,z,329.60118689999945,329.6167959000013,330.6010985999965,0.5977446999968379,None,330.6172357999967,,,,,,,,,,,,,,,,,,,,,,,,,,,,,,,,,,,,,,,,,,,,,,,,,,,,,,,,,,,,,,,,,,,,,,,,,,,,,,,,,,,,B_12,001,2024-11-30_09h33.25.664,untitled,2024.1.5,None,2024-11-30 09h33.42.254250 +0530,
triangle.png,stranger,1,M,,,,,,,,,21,3,87,1,,,,,,,,,330.6172357999967,,,,,,,,,,,,,,,,,,,,,,,,,,,,,,,,,,330.60145609999745,330.6172357999967,331.1010496000017,331.1010496000017,331.1010496000017,331.1010496000017,331.1176781999966,331.4010812999986,331.4010812999986,331.4010812999986,,331.63526139999885,z,331.6356842000023,331.65098910000233,332.63545539999905,0.5289833999995608,None,332.6516086999982,,,,,,,,,,,,,,,,,,,,,,,,,,,,,,,,,,,,,,,,,,,,,,,,,,,,,,,,,,,,,,,,,,,,,,,,,,,,,,,,,,,,B_12,001,2024-11-30_09h33.25.664,untitled,2024.1.5,None,2024-11-30 09h33.42.254250 +0530,
square.png,stranger,0,Z,,,,,,,,,22,0,88,2,,,,,,,,,332.6516086999982,,,,,,,,,,,,,,,,,,,,,,,,,,,,,,,,,,332.6358054000011,332.6516086999982,333.1351357999956,333.1351357999956,333.1351357999956,333.1351357999956,333.15192820000084,333.435433300001,333.435433300001,333.435433300001,,334.0031325000018,z,334.0035554999995,334.0189797999992,335.00329729999794,0.8628954999949201,None,335.0197046999965,,,,,,,,,,,,,,,,,,,,,,,,,,,,,,,,,,,,,,,,,,,,,,,,,,,,,,,,,,,,,,,,,,,,,,,,,,,,,,,,,,,,B_12,001,2024-11-30_09h33.25.664,untitled,2024.1.5,None,2024-11-30 09h33.42.254250 +0530,
triangle.png,you,0,Z,,,,,,,,,22,1,89,3,,,,,,,,,335.0197046999965,,,,,,,,,,,,,,,,,,,,,,,,,,,,,,,,,,335.0036459999974,335.0197046999965,335.50332389999676,335.50332389999676,335.50332389999676,335.50332389999676,335.5198079999973,335.8032200000016,335.8032200000016,335.8032200000016,,336.1707061999987,m,336.17113979999704,336.18660319999617,337.17082220000157,0.6505828000008478,None,337.1874045000004,,,,,,,,,,,,,,,,,,,,,,,,,,,,,,,,,,,,,,,,,,,,,,,,,,,,,,,,,,,,,,,,,,,,,,,,,,,,,,,,,,,,B_12,001,2024-11-30_09h33.25.664,untitled,2024.1.5,None,2024-11-30 09h33.42.254250 +0530,
triangle.png,stranger,1,M,,,,,,,,,22,2,90,1,,,,,,,,,337.1874045000004,,,,,,,,,,,,,,,,,,,,,,,,,,,,,,,,,,337.1711854000023,337.1874045000004,337.67102950000117,337.67102950000117,337.67102950000117,337.67102950000117,337.6875759999966,337.9708210000026,337.9708210000026,337.9708210000026,,338.2554206999994,z,338.2558398999972,338.27101559999574,339.25549619999947,0.5794501999989734,None,339.27156880000257,,,,,,,,,,,,,,,,,,,,,,,,,,,,,,,,,,,,,,,,,,,,,,,,,,,,,,,,,,,,,,,,,,,,,,,,,,,,,,,,,,,,B_12,001,2024-11-30_09h33.25.664,untitled,2024.1.5,None,2024-11-30 09h33.42.254250 +0530,
square.png,you,1,M,,,,,,,,,22,3,91,0,,,,,,,,,339.27156880000257,,,,,,,,,,,,,,,,,,,,,,,,,,,,,,,,,,339.2558518000005,339.27156880000257,339.7553082000013,339.7553082000013,339.7553082000013,339.7553082000013,339.7718109999987,340.05522489999566,340.05522489999566,340.05522489999566,,340.406187200002,m,340.4066096999959,340.42226259999734,341.40660869999556,0.6352342999962275,None,341.42283920000045,,,,,,,,,,,,,,,,,,,,,,,,,,,,,,,,,,,,,,,,,,,,,,,,,,,,,,,,,,,,,,,,,,,,,,,,,,,,,,,,,,,,B_12,001,2024-11-30_09h33.25.664,untitled,2024.1.5,None,2024-11-30 09h33.42.254250 +0530,
square.png,you,1,M,,,,,,,,,23,0,92,0,,,,,,,,,341.42283920000045,,,,,,,,,,,,,,,,,,,,,,,,,,,,,,,,,,341.40695779999805,341.42283920000045,341.9064470000012,341.9064470000012,341.9064470000012,341.9064470000012,341.9232209999973,342.2063532999964,342.2063532999964,342.2063532999964,,342.50732399999833,m,342.50774129999627,342.52331669999694,343.50746719999734,0.5955862000046181,None,343.5238745000024,,,,,,,,,,,,,,,,,,,,,,,,,,,,,,,,,,,,,,,,,,,,,,,,,,,,,,,,,,,,,,,,,,,,,,,,,,,,,,,,,,,,B_12,001,2024-11-30_09h33.25.664,untitled,2024.1.5,None,2024-11-30 09h33.42.254250 +0530,
square.png,stranger,0,Z,,,,,,,,,23,1,93,2,,,,,,,,,343.5238745000024,,,,,,,,,,,,,,,,,,,,,,,,,,,,,,,,,,343.50782289999916,343.5238745000024,344.00748079999903,344.00748079999903,344.00748079999903,344.00748079999903,344.0242395000023,344.3076213000022,344.3076213000022,344.3076213000022,,344.82504399999743,z,344.8254702999984,344.8412795999975,345.82545969999774,0.8109792999966885,None,345.8417152999973,,,,,,,,,,,,,,,,,,,,,,,,,,,,,,,,,,,,,,,,,,,,,,,,,,,,,,,,,,,,,,,,,,,,,,,,,,,,,,,,,,,,B_12,001,2024-11-30_09h33.25.664,untitled,2024.1.5,None,2024-11-30 09h33.42.254250 +0530,
triangle.png,you,0,Z,,,,,,,,,23,2,94,3,,,,,,,,,345.8417152999973,,,,,,,,,,,,,,,,,,,,,,,,,,,,,,,,,,345.8258070000011,345.8417152999973,346.3251975000021,346.3251975000021,346.3251975000021,346.3251975000021,346.34195270000055,346.6252358999991,346.6252358999991,346.6252358999991,,347.0764296999987,z,347.0768610000014,347.09239230000094,348.0764227999971,0.7451064999986556,None,348.09270639999886,,,,,,,,,,,,,,,,,,,,,,,,,,,,,,,,,,,,,,,,,,,,,,,,,,,,,,,,,,,,,,,,,,,,,,,,,,,,,,,,,,,,B_12,001,2024-11-30_09h33.25.664,untitled,2024.1.5,None,2024-11-30 09h33.42.254250 +0530,
triangle.png,stranger,1,M,,,,,,,,,23,3,95,1,,,,,,,,,348.09270639999886,,,,,,,,,,,,,,,,,,,,,,,,,,,,,,,,,,348.0767782999974,348.09270639999886,348.57661689999804,348.57661689999804,348.57661689999804,348.57661689999804,348.59310330000153,348.8763936999967,348.8763936999967,348.8763936999967,,349.24410969999735,m,349.2445501999973,349.2602007000023,350.24432449999586,0.6657160999966436,None,350.2604973999987,,,,,,,,,,,,,,,,,,,,,,,,,,,,,,,,,,,,,,,,,,,,,,,,,,,,,,,,,,,,,,,,,,,,,,,,,,,,,,,,,,,,B_12,001,2024-11-30_09h33.25.664,untitled,2024.1.5,None,2024-11-30 09h33.42.254250 +0530,
triangle.png,you,0,Z,,,,,,,,,24,0,96,3,,,,,,,,,350.2604973999987,,,,,,,,,,,,,,,,,,,,,,,,,,,,,,,,,,350.24467659999937,350.2604973999987,350.7443975999995,350.7443975999995,350.7443975999995,350.7443975999995,350.7610044999965,351.0441770999969,351.0441770999969,351.0441770999969,,351.42846160000045,z,351.4288768999977,351.4446775999968,352.42897329999687,0.6763629999986733,None,352.4451674000011,,,,,,,,,,,,,,,,,,,,,,,,,,,,,,,,,,,,,,,,,,,,,,,,,,,,,,,,,,,,,,,,,,,,,,,,,,,,,,,,,,,,B_12,001,2024-11-30_09h33.25.664,untitled,2024.1.5,None,2024-11-30 09h33.42.254250 +0530,
square.png,stranger,0,Z,,,,,,,,,24,1,97,2,,,,,,,,,352.4451674000011,,,,,,,,,,,,,,,,,,,,,,,,,,,,,,,,,,352.42931990000216,352.4451674000011,352.92858839999826,352.92858839999826,352.92858839999826,352.92858839999826,352.9455756000025,353.2288856000014,353.2288856000014,353.2288856000014,,353.6299386999963,z,353.6303573999976,353.64581299999554,354.6298367999989,0.6889512999987346,None,354.64643680000154,,,,,,,,,,,,,,,,,,,,,,,,,,,,,,,,,,,,,,,,,,,,,,,,,,,,,,,,,,,,,,,,,,,,,,,,,,,,,,,,,,,,B_12,001,2024-11-30_09h33.25.664,untitled,2024.1.5,None,2024-11-30 09h33.42.254250 +0530,
triangle.png,stranger,1,M,,,,,,,,,24,2,98,1,,,,,,,,,354.64643680000154,,,,,,,,,,,,,,,,,,,,,,,,,,,,,,,,,,354.6301852999968,354.64643680000154,355.1299242000023,355.1299242000023,355.1299242000023,355.1299242000023,355.1463281999968,355.42986250000104,355.42986250000104,355.42986250000104,,355.74759249999624,z,355.74801170000137,355.7634560000006,356.7477951999972,0.6116095000033965,None,356.76411659999576,,,,,,,,,,,,,,,,,,,,,,,,,,,,,,,,,,,,,,,,,,,,,,,,,,,,,,,,,,,,,,,,,,,,,,,,,,,,,,,,,,,,B_12,001,2024-11-30_09h33.25.664,untitled,2024.1.5,None,2024-11-30 09h33.42.254250 +0530,
square.png,you,1,M,,,,,,,,,24,3,99,0,,,,,,,,,356.76411659999576,,,,,,,,,,,,,,,,,,,,,,,,,,,,,,,,,,356.74815279999893,356.76411659999576,357.24771599999804,357.24771599999804,357.24771599999804,357.24771599999804,357.264173800002,357.54769269999815,357.54769269999815,357.54769269999815,,357.898432199996,m,357.8988601999954,357.91459609999583,358.8988401999959,0.6421181999976397,None,358.91516959999717,,,,,,,,,,,,,,,,,,,,,,,,,,,,,,,,,,,,,,,,,,,,,,,,,,,,,,,,,,,,,,,,,,,,,,,,,,,,,,,,,,,,B_12,001,2024-11-30_09h33.25.664,untitled,2024.1.5,None,2024-11-30 09h33.42.254250 +0530,
triangle.png,you,0,Z,,,,,,,,,25,0,100,3,,,,,,,,,358.91516959999717,,,,,,,,,,,,,,,,,,,,,,,,,,,,,,,,,,358.89926430000196,358.91516959999717,359.3986775000012,359.3986775000012,359.3986775000012,359.3986775000012,359.4152052999998,359.6988420999987,359.6988420999987,359.6988420999987,,360.06639229999564,z,360.06681579999713,360.0822225000011,361.0665183999954,0.6625163999997312,None,361.0828524000026,,,,,,,,,,,,,,,,,,,,,,,,,,,,,,,,,,,,,,,,,,,,,,,,,,,,,,,,,,,,,,,,,,,,,,,,,,,,,,,,,,,,B_12,001,2024-11-30_09h33.25.664,untitled,2024.1.5,None,2024-11-30 09h33.42.254250 +0530,
triangle.png,stranger,1,M,,,,,,,,,25,1,101,1,,,,,,,,,361.0828524000026,,,,,,,,,,,,,,,,,,,,,,,,,,,,,,,,,,361.0668740999972,361.0828524000026,361.5666951000021,361.5666951000021,361.5666951000021,361.5666951000021,361.5831204999995,361.8665155999988,361.8665155999988,361.8665155999988,,362.26767349999864,m,362.2680975999974,362.28340220000246,363.26782280000043,0.698660000001837,None,363.28394339999795,,,,,,,,,,,,,,,,,,,,,,,,,,,,,,,,,,,,,,,,,,,,,,,,,,,,,,,,,,,,,,,,,,,,,,,,,,,,,,,,,,,,B_12,001,2024-11-30_09h33.25.664,untitled,2024.1.5,None,2024-11-30 09h33.42.254250 +0530,
square.png,stranger,0,Z,,,,,,,,,25,2,102,2,,,,,,,,,363.28394339999795,,,,,,,,,,,,,,,,,,,,,,,,,,,,,,,,,,363.2681805999964,363.28394339999795,363.76766710000084,363.76766710000084,363.76766710000084,363.76766710000084,363.78414019999764,364.06754229999933,364.06754229999933,364.06754229999933,,364.4185237999991,z,364.4189428999962,364.4346132999999,365.41876559999946,0.6344915000008768,None,365.4349061999965,,,,,,,,,,,,,,,,,,,,,,,,,,,,,,,,,,,,,,,,,,,,,,,,,,,,,,,,,,,,,,,,,,,,,,,,,,,,,,,,,,,,B_12,001,2024-11-30_09h33.25.664,untitled,2024.1.5,None,2024-11-30 09h33.42.254250 +0530,
square.png,you,1,M,,,,,,,,,25,3,103,0,,,,,,,,,365.4349061999965,,,,,,,,,,,,,,,,,,,,,,,,,,,,,,,,,,365.4191127000013,365.4349061999965,365.9186122999963,365.9186122999963,365.9186122999963,365.9186122999963,365.9351661999972,366.2187993999978,366.2187993999978,366.2187993999978,,366.5196949999954,m,366.52011639999546,366.5355574999994,367.51997019999544,0.5873621999999159,None,367.53609940000024,,,,,,,,,,,,,,,,,,,,,,,,,,,,,,,,,,,,,,,,,,,,,,,,,,,,,,,,,,,,,,,,,,,,,,,,,,,,,,,,,,,,B_12,001,2024-11-30_09h33.25.664,untitled,2024.1.5,None,2024-11-30 09h33.42.254250 +0530,
square.png,stranger,0,Z,,,,,,,,,26,0,104,2,,,,,,,,,367.53609940000024,,,,,,,,,,,,,,,,,,,,,,,,,,,,,,,,,,367.5203179000018,367.53609940000024,368.01987189999636,368.01987189999636,368.01987189999636,368.01987189999636,368.03635499999655,368.31973189999553,368.31973189999553,368.31973189999553,,368.63753539999743,z,368.6379564000017,368.6531825999991,369.63755890000175,0.6020187000031001,None,369.6539150000026,,,,,,,,,,,,,,,,,,,,,,,,,,,,,,,,,,,,,,,,,,,,,,,,,,,,,,,,,,,,,,,,,,,,,,,,,,,,,,,,,,,,B_12,001,2024-11-30_09h33.25.664,untitled,2024.1.5,None,2024-11-30 09h33.42.254250 +0530,
square.png,you,1,M,,,,,,,,,26,1,105,0,,,,,,,,,369.6539150000026,,,,,,,,,,,,,,,,,,,,,,,,,,,,,,,,,,369.6379081999985,369.6539150000026,370.1376584999962,370.1376584999962,370.1376584999962,370.1376584999962,370.1541352999993,370.4376379000023,370.4376379000023,370.4376379000023,,370.7221814000004,m,370.7226098999963,370.73779739999736,371.7220201000018,0.5836591000042972,None,371.73834910000005,,,,,,,,,,,,,,,,,,,,,,,,,,,,,,,,,,,,,,,,,,,,,,,,,,,,,,,,,,,,,,,,,,,,,,,,,,,,,,,,,,,,B_12,001,2024-11-30_09h33.25.664,untitled,2024.1.5,None,2024-11-30 09h33.42.254250 +0530,
triangle.png,stranger,1,M,,,,,,,,,26,2,106,1,,,,,,,,,371.73834910000005,,,,,,,,,,,,,,,,,,,,,,,,,,,,,,,,,,371.7223679000017,371.73834910000005,372.2219136999993,372.2219136999993,372.2219136999993,372.2219136999993,372.2384428000005,372.52197960000194,372.52197960000194,372.52197960000194,,373.0561941999986,m,373.05661770000006,373.07229070000176,374.0564188999997,0.8320465999931912,None,374.07268119999935,,,,,,,,,,,,,,,,,,,,,,,,,,,,,,,,,,,,,,,,,,,,,,,,,,,,,,,,,,,,,,,,,,,,,,,,,,,,,,,,,,,,B_12,001,2024-11-30_09h33.25.664,untitled,2024.1.5,None,2024-11-30 09h33.42.254250 +0530,
triangle.png,you,0,Z,,,,,,,,,26,3,107,3,,,,,,,,,374.07268119999935,,,,,,,,,,,,,,,,,,,,,,,,,,,,,,,,,,374.05676479999966,374.07268119999935,374.5567538999967,374.5567538999967,374.5567538999967,374.5567538999967,374.5731597999984,374.85636330000125,374.85636330000125,374.85636330000125,,375.2740221999993,z,375.2744756999964,375.29000789999554,376.2743838000024,0.7017189000034705,None,376.29068389999884,,,,,,,,,,,,,,,,,,,,,,,,,,,,,,,,,,,,,,,,,,,,,,,,,,,,,,,,,,,,,,,,,,,,,,,,,,,,,,,,,,,,B_12,001,2024-11-30_09h33.25.664,untitled,2024.1.5,None,2024-11-30 09h33.42.254250 +0530,
square.png,you,1,M,,,,,,,,,27,0,108,0,,,,,,,,,376.29068389999884,,,,,,,,,,,,,,,,,,,,,,,,,,,,,,,,,,376.2747392999954,376.29068389999884,376.7743477999975,376.7743477999975,376.7743477999975,376.7743477999975,376.790708200002,377.07432300000073,377.07432300000073,377.07432300000073,,377.4253026000006,m,377.4257235999976,377.4412349999984,378.4250667000015,0.647963700001128,None,378.4413035999969,,,,,,,,,,,,,,,,,,,,,,,,,,,,,,,,,,,,,,,,,,,,,,,,,,,,,,,,,,,,,,,,,,,,,,,,,,,,,,,,,,,,B_12,001,2024-11-30_09h33.25.664,untitled,2024.1.5,None,2024-11-30 09h33.42.254250 +0530,
triangle.png,you,0,Z,,,,,,,,,27,1,109,3,,,,,,,,,378.4413035999969,,,,,,,,,,,,,,,,,,,,,,,,,,,,,,,,,,378.42541650000203,378.4413035999969,378.92525639999803,378.92525639999803,378.92525639999803,378.92525639999803,378.9421408999988,379.22540180000215,379.22540180000215,379.22540180000215,,379.92670989999897,z,379.92713060000096,379.9424988999963,380.92689640000026,0.9931098999950336,None,380.94305280000117,,,,,,,,,,,,,,,,,,,,,,,,,,,,,,,,,,,,,,,,,,,,,,,,,,,,,,,,,,,,,,,,,,,,,,,,,,,,,,,,,,,,B_12,001,2024-11-30_09h33.25.664,untitled,2024.1.5,None,2024-11-30 09h33.42.254250 +0530,
triangle.png,stranger,1,M,,,,,,,,,27,2,110,1,,,,,,,,,380.94305280000117,,,,,,,,,,,,,,,,,,,,,,,,,,,,,,,,,,380.92724579999776,380.94305280000117,381.42667880000226,381.42667880000226,381.42667880000226,381.42667880000226,381.44319440000254,381.7267558999956,381.7267558999956,381.7267558999956,,382.01112479999574,z,382.0115836999976,382.0267597999991,383.01102289999835,0.5702654999986407,None,383.0274419999987,,,,,,,,,,,,,,,,,,,,,,,,,,,,,,,,,,,,,,,,,,,,,,,,,,,,,,,,,,,,,,,,,,,,,,,,,,,,,,,,,,,,B_12,001,2024-11-30_09h33.25.664,untitled,2024.1.5,None,2024-11-30 09h33.42.254250 +0530,
square.png,stranger,0,Z,,,,,,,,,27,3,111,2,,,,,,,,,383.0274419999987,,,,,,,,,,,,,,,,,,,,,,,,,,,,,,,,,,383.01137229999586,383.0274419999987,383.5112367999973,383.5112367999973,383.5112367999973,383.5112367999973,383.52786919999926,383.8110119999983,383.8110119999983,383.8110119999983,,384.36203089999617,z,384.36245529999724,384.3779702999964,385.36239390000264,0.8495030000049155,None,385.37850479999906,,,,,,,,,,,,,,,,,,,,,,,,,,,,,,,,,,,,,,,,,,,,,,,,,,,,,,,,,,,,,,,,,,,,,,,,,,,,,,,,,,,,B_12,001,2024-11-30_09h33.25.664,untitled,2024.1.5,None,2024-11-30 09h33.42.254250 +0530,
triangle.png,stranger,1,M,,,,,,,,,28,0,112,1,,,,,,,,,385.37850479999906,,,,,,,,,,,,,,,,,,,,,,,,,,,,,,,,,,385.362744500002,385.37850479999906,385.8624344999989,385.8624344999989,385.8624344999989,385.8624344999989,385.8788213000007,386.16239289999794,386.16239289999794,386.16239289999794,,386.73011399999814,z,386.73053359999903,386.7457635999963,387.73023139999714,0.8550419000021066,None,387.7464553999962,,,,,,,,,,,,,,,,,,,,,,,,,,,,,,,,,,,,,,,,,,,,,,,,,,,,,,,,,,,,,,,,,,,,,,,,,,,,,,,,,,,,B_12,001,2024-11-30_09h33.25.664,untitled,2024.1.5,None,2024-11-30 09h33.42.254250 +0530,
triangle.png,you,0,Z,,,,,,,,,28,1,113,3,,,,,,,,,387.7464553999962,,,,,,,,,,,,,,,,,,,,,,,,,,,,,,,,,,387.7305880999993,387.7464553999962,388.2300310999999,388.2300310999999,388.2300310999999,388.2300310999999,388.24678570000106,388.53007649999927,388.53007649999927,388.53007649999927,,388.84766410000157,z,388.8480942000024,388.86354449999635,389.8478601999959,0.6123913999981596,None,389.8642466999954,,,,,,,,,,,,,,,,,,,,,,,,,,,,,,,,,,,,,,,,,,,,,,,,,,,,,,,,,,,,,,,,,,,,,,,,,,,,,,,,,,,,B_12,001,2024-11-30_09h33.25.664,untitled,2024.1.5,None,2024-11-30 09h33.42.254250 +0530,
square.png,stranger,0,Z,,,,,,,,,28,2,114,2,,,,,,,,,389.8642466999954,,,,,,,,,,,,,,,,,,,,,,,,,,,,,,,,,,389.84821389999706,389.8642466999954,390.34771609999734,390.34771609999734,390.34771609999734,390.34771609999734,390.36447439999756,390.64795059999597,390.64795059999597,390.64795059999597,,391.0322516000015,z,391.0326719000004,391.0481979999968,392.0323600999982,0.677154299999529,None,392.0485645000008,,,,,,,,,,,,,,,,,,,,,,,,,,,,,,,,,,,,,,,,,,,,,,,,,,,,,,,,,,,,,,,,,,,,,,,,,,,,,,,,,,,,B_12,001,2024-11-30_09h33.25.664,untitled,2024.1.5,None,2024-11-30 09h33.42.254250 +0530,
square.png,you,1,M,,,,,,,,,28,3,115,0,,,,,,,,,392.0485645000008,,,,,,,,,,,,,,,,,,,,,,,,,,,,,,,,,,392.03271369999857,392.0485645000008,392.5324455000009,392.5324455000009,392.5324455000009,392.5324455000009,392.54908969999815,392.83230979999644,392.83230979999644,392.83230979999644,,393.5500652999981,m,393.5504895999984,393.56613559999823,394.5503557999982,1.0083127999969292,None,394.5665792,,,,,,,,,,,,,,,,,,,,,,,,,,,,,,,,,,,,,,,,,,,,,,,,,,,,,,,,,,,,,,,,,,,,,,,,,,,,,,,,,,,,B_12,001,2024-11-30_09h33.25.664,untitled,2024.1.5,None,2024-11-30 09h33.42.254250 +0530,
triangle.png,you,0,Z,,,,,,,,,29,0,116,3,,,,,,,,,394.5665792,,,,,,,,,,,,,,,,,,,,,,,,,,,,,,,,,,394.5507013000024,394.5665792,395.05036259999906,395.05036259999906,395.05036259999906,395.05036259999906,395.06683789999806,395.350388400002,395.350388400002,395.350388400002,,395.7512396999955,z,395.7516594999979,395.76723279999715,396.75137440000253,0.6952114999949117,None,396.76777109999966,,,,,,,,,,,,,,,,,,,,,,,,,,,,,,,,,,,,,,,,,,,,,,,,,,,,,,,,,,,,,,,,,,,,,,,,,,,,,,,,,,,,B_12,001,2024-11-30_09h33.25.664,untitled,2024.1.5,None,2024-11-30 09h33.42.254250 +0530,
square.png,stranger,0,Z,,,,,,,,,29,1,117,2,,,,,,,,,396.76777109999966,,,,,,,,,,,,,,,,,,,,,,,,,,,,,,,,,,396.7517252999969,396.76777109999966,397.25145820000034,397.25145820000034,397.25145820000034,397.25145820000034,397.26794489999884,397.55124509999587,397.55124509999587,397.55124509999587,398.35182740000164,398.335616999997,None,398.3358053999982,398.35182740000164,399.33600760000263,,,399.35222200000135,,,,,,,,,,,,,,,,,,,,,,,,,,,,,,,,,,,,,,,,,,,,,,,,,,,,,,,,,,,,,,,,,,,,,,,,,,,,,,,,,,,,B_12,001,2024-11-30_09h33.25.664,untitled,2024.1.5,None,2024-11-30 09h33.42.254250 +0530,
triangle.png,stranger,1,M,,,,,,,,,29,2,118,1,,,,,,,,,399.35222200000135,,,,,,,,,,,,,,,,,,,,,,,,,,,,,,,,,,399.33635309999954,399.35222200000135,399.85279530000116,399.85279530000116,399.85279530000116,399.85279530000116,399.85279530000116,400.15262719999737,400.15262719999737,400.15262719999737,,400.53694240000186,m,400.53735869999946,400.5531384999995,401.5371954000002,0.6689293000017642,None,401.5534614999997,,,,,,,,,,,,,,,,,,,,,,,,,,,,,,,,,,,,,,,,,,,,,,,,,,,,,,,,,,,,,,,,,,,,,,,,,,,,,,,,,,,,B_12,001,2024-11-30_09h33.25.664,untitled,2024.1.5,None,2024-11-30 09h33.42.254250 +0530,
square.png,you,1,M,,,,,,,,,29,3,119,0,,,,,,,,,401.5534614999997,,,,,,,,,,,,,,,,,,,,,,,,,,,,,,,,,,401.537548399996,401.5534614999997,402.03709040000103,402.03709040000103,402.03709040000103,402.03709040000103,402.05395080000017,402.33720280000125,402.33720280000125,402.33720280000125,,402.58804840000084,m,402.5884700000024,402.6041547999994,403.5882275999975,0.5477316999968025,None,403.60439359999873,,,,,,,,,,,,,,,,,,,,,,,,,,,,,,,,,,,,,,,,,,,,,,,,,,,,,,,,,,,,,,,,,,,,,,,,,,,,,,,,,,,,B_12,001,2024-11-30_09h33.25.664,untitled,2024.1.5,None,2024-11-30 09h33.42.254250 +0530,
triangle.png,you,0,Z,,,,,,,,,30,0,120,3,,,,,,,,,403.60439359999873,,,,,,,,,,,,,,,,,,,,,,,,,,,,,,,,,,403.58857739999803,403.60439359999873,404.0883662999986,404.0883662999986,404.0883662999986,404.0883662999986,404.10471519999555,404.3880624000012,404.3880624000012,404.3880624000012,,404.9058625999969,z,404.90628339999967,404.921846199999,405.9059821999981,0.8051486000040313,None,405.9224919999979,,,,,,,,,,,,,,,,,,,,,,,,,,,,,,,,,,,,,,,,,,,,,,,,,,,,,,,,,,,,,,,,,,,,,,,,,,,,,,,,,,,,B_12,001,2024-11-30_09h33.25.664,untitled,2024.1.5,None,2024-11-30 09h33.42.254250 +0530,
square.png,stranger,0,Z,,,,,,,,,30,1,121,2,,,,,,,,,405.9224919999979,,,,,,,,,,,,,,,,,,,,,,,,,,,,,,,,,,405.9063271999985,405.9224919999979,406.40611750000244,406.40611750000244,406.40611750000244,406.40611750000244,406.42255589999695,406.705941799999,406.705941799999,406.705941799999,,407.3570514999956,z,407.3574862999958,407.37295459999586,408.3573483,0.9396349999951781,None,408.37343859999964,,,,,,,,,,,,,,,,,,,,,,,,,,,,,,,,,,,,,,,,,,,,,,,,,,,,,,,,,,,,,,,,,,,,,,,,,,,,,,,,,,,,B_12,001,2024-11-30_09h33.25.664,untitled,2024.1.5,None,2024-11-30 09h33.42.254250 +0530,
square.png,you,1,M,,,,,,,,,30,2,122,0,,,,,,,,,408.37343859999964,,,,,,,,,,,,,,,,,,,,,,,,,,,,,,,,,,408.35771179999574,408.37343859999964,408.85713789999863,408.85713789999863,408.85713789999863,408.85713789999863,408.8739276999986,409.157283499997,409.157283499997,409.157283499997,,409.3249579999974,m,409.32559760000004,409.3409457000016,410.3249035999979,0.4559993000002578,None,410.3412035000001,,,,,,,,,,,,,,,,,,,,,,,,,,,,,,,,,,,,,,,,,,,,,,,,,,,,,,,,,,,,,,,,,,,,,,,,,,,,,,,,,,,,B_12,001,2024-11-30_09h33.25.664,untitled,2024.1.5,None,2024-11-30 09h33.42.254250 +0530,
triangle.png,stranger,1,M,,,,,,,,,30,3,123,1,,,,,,,,,410.3412035000001,,,,,,,,,,,,,,,,,,,,,,,,,,,,,,,,,,410.3252510999955,410.3412035000001,410.82495789999666,410.82495789999666,410.82495789999666,410.82495789999666,410.8415060999978,411.1248489999998,411.1248489999998,411.1248489999998,,411.29249269999855,z,411.29291699999885,411.3086473000003,412.29256069999974,0.4518333999949391,None,412.30906900000264,,,,,,,,,,,,,,,,,,,,,,,,,,,,,,,,,,,,,,,,,,,,,,,,,,,,,,,,,,,,,,,,,,,,,,,,,,,,,,,,,,,,B_12,001,2024-11-30_09h33.25.664,untitled,2024.1.5,None,2024-11-30 09h33.42.254250 +0530,
square.png,you,1,M,,,,,,,,,31,0,124,0,,,,,,,,,412.30906900000264,,,,,,,,,,,,,,,,,,,,,,,,,,,,,,,,,,412.2929132999998,412.30906900000264,412.79252299999644,412.79252299999644,412.79252299999644,412.79252299999644,412.80928129999666,413.0925636999964,413.0925636999964,413.0925636999964,,413.31020259999787,m,413.31062830000155,413.3260878000001,414.3104400000011,0.5049705999990692,None,414.3267770999955,,,,,,,,,,,,,,,,,,,,,,,,,,,,,,,,,,,,,,,,,,,,,,,,,,,,,,,,,,,,,,,,,,,,,,,,,,,,,,,,,,,,B_12,001,2024-11-30_09h33.25.664,untitled,2024.1.5,None,2024-11-30 09h33.42.254250 +0530,
triangle.png,you,0,Z,,,,,,,,,31,1,125,3,,,,,,,,,414.3267770999955,,,,,,,,,,,,,,,,,,,,,,,,,,,,,,,,,,414.3107874999987,414.3267770999955,414.8103201999984,414.8103201999984,414.8103201999984,414.8103201999984,414.8268012999979,415.11023849999765,415.11023849999765,415.11023849999765,,415.56135569999606,z,415.5617800999971,415.57709030000115,416.561526999998,0.7424432000043453,None,416.5776277999976,,,,,,,,,,,,,,,,,,,,,,,,,,,,,,,,,,,,,,,,,,,,,,,,,,,,,,,,,,,,,,,,,,,,,,,,,,,,,,,,,,,,B_12,001,2024-11-30_09h33.25.664,untitled,2024.1.5,None,2024-11-30 09h33.42.254250 +0530,
square.png,stranger,0,Z,,,,,,,,,31,2,126,2,,,,,,,,,416.5776277999976,,,,,,,,,,,,,,,,,,,,,,,,,,,,,,,,,,416.5618766999978,416.5776277999976,417.06151719999616,417.06151719999616,417.06151719999616,417.06151719999616,417.0782300999999,417.3615372999993,417.3615372999993,417.3615372999993,,418.02930639999977,z,418.02976269999635,418.04505970000173,419.02962470000057,0.9552078999986406,None,419.045887100001,,,,,,,,,,,,,,,,,,,,,,,,,,,,,,,,,,,,,,,,,,,,,,,,,,,,,,,,,,,,,,,,,,,,,,,,,,,,,,,,,,,,B_12,001,2024-11-30_09h33.25.664,untitled,2024.1.5,None,2024-11-30 09h33.42.254250 +0530,
triangle.png,stranger,1,M,,,,,,,,,31,3,127,1,,,,,,,,,419.045887100001,,,,,,,,,,,,,,,,,,,,,,,,,,,,,,,,,,419.0299784000017,419.045887100001,419.5296015999993,419.5296015999993,419.5296015999993,419.5296015999993,419.54604339999787,419.82952049999585,419.82952049999585,419.82952049999585,,420.2140164000011,m,420.21443790000194,420.22960859999876,421.21408579999843,0.6833641000048374,None,421.2301109999971,,,,,,,,,,,,,,,,,,,,,,,,,,,,,,,,,,,,,,,,,,,,,,,,,,,,,,,,,,,,,,,,,,,,,,,,,,,,,,,,,,,,B_12,001,2024-11-30_09h33.25.664,untitled,2024.1.5,None,2024-11-30 09h33.42.254250 +0530,
square.png,stranger,0,Z,,,,,,,,,32,0,128,2,,,,,,,,,421.2301109999971,,,,,,,,,,,,,,,,,,,,,,,,,,,,,,,,,,421.2144468999977,421.2301109999971,421.71390009999595,421.71390009999595,421.71390009999595,421.71390009999595,421.7305254000021,422.0139993999983,422.0139993999983,422.0139993999983,,422.3149080000003,z,422.31533219999983,422.33071259999997,423.3150272999992,0.5883361000014702,None,423.33134040000004,,,,,,,,,,,,,,,,,,,,,,,,,,,,,,,,,,,,,,,,,,,,,,,,,,,,,,,,,,,,,,,,,,,,,,,,,,,,,,,,,,,,B_12,001,2024-11-30_09h33.25.664,untitled,2024.1.5,None,2024-11-30 09h33.42.254250 +0530,
triangle.png,you,0,Z,,,,,,,,,32,1,129,3,,,,,,,,,423.33134040000004,,,,,,,,,,,,,,,,,,,,,,,,,,,,,,,,,,423.31537019999814,423.33134040000004,423.8149134999985,423.8149134999985,423.8149134999985,423.8149134999985,423.8314554999961,424.1149760999979,424.1149760999979,424.1149760999979,,424.51594599999953,z,424.5163678999961,424.5319490999973,425.51626369999576,0.6986824000050547,None,425.5323986000003,,,,,,,,,,,,,,,,,,,,,,,,,,,,,,,,,,,,,,,,,,,,,,,,,,,,,,,,,,,,,,,,,,,,,,,,,,,,,,,,,,,,B_12,001,2024-11-30_09h33.25.664,untitled,2024.1.5,None,2024-11-30 09h33.42.254250 +0530,
square.png,you,1,M,,,,,,,,,32,2,130,0,,,,,,,,,425.5323986000003,,,,,,,,,,,,,,,,,,,,,,,,,,,,,,,,,,425.5166113000014,425.5323986000003,426.0162177999955,426.0162177999955,426.0162177999955,426.0162177999955,426.03289439999935,426.315918399996,426.315918399996,426.315918399996,,426.7669590000005,m,426.7673807999963,426.7829159999965,427.7672170000005,0.7420018999982858,None,427.7836098999978,,,,,,,,,,,,,,,,,,,,,,,,,,,,,,,,,,,,,,,,,,,,,,,,,,,,,,,,,,,,,,,,,,,,,,,,,,,,,,,,,,,,B_12,001,2024-11-30_09h33.25.664,untitled,2024.1.5,None,2024-11-30 09h33.42.254250 +0530,
triangle.png,stranger,1,M,,,,,,,,,32,3,131,1,,,,,,,,,427.7836098999978,,,,,,,,,,,,,,,,,,,,,,,,,,,,,,,,,,427.7675620000009,427.7836098999978,428.26743590000115,428.26743590000115,428.26743590000115,428.26743590000115,428.2837471000021,428.56730799999787,428.56730799999787,428.56730799999787,,428.91835719999654,z,428.91877479999675,428.9341193,429.91853419999825,0.6348901999954251,None,429.9347676999969,,,,,,,,,,,,,,,,,,,,,,,,,,,,,,,,,,,,,,,,,,,,,,,,,,,,,,,,,,,,,,,,,,,,,,,,,,,,,,,,,,,,B_12,001,2024-11-30_09h33.25.664,untitled,2024.1.5,None,2024-11-30 09h33.42.254250 +0530,
square.png,you,1,M,,,,,,,,,33,0,132,0,,,,,,,,,429.9347676999969,,,,,,,,,,,,,,,,,,,,,,,,,,,,,,,,,,429.91888440000184,429.9347676999969,430.418456899999,430.418456899999,430.418456899999,430.418456899999,430.4350401999982,430.7183277000004,430.7183277000004,430.7183277000004,,431.002510899998,m,431.00293399999646,431.01864419999765,432.0028156999979,0.5826635999983409,None,432.01896670000133,,,,,,,,,,,,,,,,,,,,,,,,,,,,,,,,,,,,,,,,,,,,,,,,,,,,,,,,,,,,,,,,,,,,,,,,,,,,,,,,,,,,B_12,001,2024-11-30_09h33.25.664,untitled,2024.1.5,None,2024-11-30 09h33.42.254250 +0530,
triangle.png,you,0,Z,,,,,,,,,33,1,133,3,,,,,,,,,432.01896670000133,,,,,,,,,,,,,,,,,,,,,,,,,,,,,,,,,,432.00316319999547,432.01896670000133,432.50264349999634,432.50264349999634,432.50264349999634,432.50264349999634,432.51943649999885,432.8026849000016,432.8026849000016,432.8026849000016,,433.1369878999976,z,433.13741409999784,433.15289029999985,434.1373967999971,0.6298980999999912,None,434.1533743999971,,,,,,,,,,,,,,,,,,,,,,,,,,,,,,,,,,,,,,,,,,,,,,,,,,,,,,,,,,,,,,,,,,,,,,,,,,,,,,,,,,,,B_12,001,2024-11-30_09h33.25.664,untitled,2024.1.5,None,2024-11-30 09h33.42.254250 +0530,
triangle.png,stranger,1,M,,,,,,,,,33,2,134,1,,,,,,,,,434.1533743999971,,,,,,,,,,,,,,,,,,,,,,,,,,,,,,,,,,434.13774569999805,434.1533743999971,434.6373056000011,434.6373056000011,434.6373056000011,434.6373056000011,434.6537516000026,434.9372437999991,434.9372437999991,434.9372437999991,,435.08809699999983,m,435.0885137000005,435.1041000999976,436.0883476000017,0.44448349999584025,None,436.1046273999964,,,,,,,,,,,,,,,,,,,,,,,,,,,,,,,,,,,,,,,,,,,,,,,,,,,,,,,,,,,,,,,,,,,,,,,,,,,,,,,,,,,,B_12,001,2024-11-30_09h33.25.664,untitled,2024.1.5,None,2024-11-30 09h33.42.254250 +0530,
square.png,stranger,0,Z,,,,,,,,,33,3,135,2,,,,,,,,,436.1046273999964,,,,,,,,,,,,,,,,,,,,,,,,,,,,,,,,,,436.08869440000126,436.1046273999964,436.5881859000001,436.5881859000001,436.5881859000001,436.5881859000001,436.6047120000003,436.8881626000002,436.8881626000002,436.8881626000002,,437.12231020000036,z,437.12273070000083,437.13843890000135,438.1226941999994,0.5259948000020813,None,438.1388048000008,,,,,,,,,,,,,,,,,,,,,,,,,,,,,,,,,,,,,,,,,,,,,,,,,,,,,,,,,,,,,,,,,,,,,,,,,,,,,,,,,,,,B_12,001,2024-11-30_09h33.25.664,untitled,2024.1.5,None,2024-11-30 09h33.42.254250 +0530,
triangle.png,you,0,Z,,,,,,,,,34,0,136,3,,,,,,,,,438.1388048000008,,,,,,,,,,,,,,,,,,,,,,,,,,,,,,,,,,438.1230463999964,438.1388048000008,438.6224332999991,438.6224332999991,438.6224332999991,438.6224332999991,438.63905579999846,438.9226825000005,438.9226825000005,438.9226825000005,,439.42344720000256,z,439.42387410000083,439.4395697,440.42358579999564,0.7873873999997159,None,440.4398871000012,,,,,,,,,,,,,,,,,,,,,,,,,,,,,,,,,,,,,,,,,,,,,,,,,,,,,,,,,,,,,,,,,,,,,,,,,,,,,,,,,,,,B_12,001,2024-11-30_09h33.25.664,untitled,2024.1.5,None,2024-11-30 09h33.42.254250 +0530,
square.png,stranger,0,Z,,,,,,,,,34,1,137,2,,,,,,,,,440.4398871000012,,,,,,,,,,,,,,,,,,,,,,,,,,,,,,,,,,440.42394010000135,440.4398871000012,440.92356850000215,440.92356850000215,440.92356850000215,440.92356850000215,440.940554599998,441.2236064999961,441.2236064999961,441.2236064999961,,441.77469980000023,m,441.7751330999963,441.79066310000053,442.7747139999992,0.8425917999993544,None,442.79097889999684,,,,,,,,,,,,,,,,,,,,,,,,,,,,,,,,,,,,,,,,,,,,,,,,,,,,,,,,,,,,,,,,,,,,,,,,,,,,,,,,,,,,B_12,001,2024-11-30_09h33.25.664,untitled,2024.1.5,None,2024-11-30 09h33.42.254250 +0530,
triangle.png,stranger,1,M,,,,,,,,,34,2,138,1,,,,,,,,,442.79097889999684,,,,,,,,,,,,,,,,,,,,,,,,,,,,,,,,,,442.7750711999979,442.79097889999684,443.2748262000023,443.2748262000023,443.2748262000023,443.2748262000023,443.2914355999965,443.5748248000018,443.5748248000018,443.5748248000018,,443.8090460999956,z,443.8095172999965,443.82489959999657,444.8091964999985,0.522566799998458,None,444.8254823000025,,,,,,,,,,,,,,,,,,,,,,,,,,,,,,,,,,,,,,,,,,,,,,,,,,,,,,,,,,,,,,,,,,,,,,,,,,,,,,,,,,,,B_12,001,2024-11-30_09h33.25.664,untitled,2024.1.5,None,2024-11-30 09h33.42.254250 +0530,
square.png,you,1,M,,,,,,,,,34,3,139,0,,,,,,,,,444.8254823000025,,,,,,,,,,,,,,,,,,,,,,,,,,,,,,,,,,444.80954879999626,444.8254823000025,445.309445699997,445.309445699997,445.309445699997,445.309445699997,445.3260394000026,445.60930630000075,445.60930630000075,445.60930630000075,,445.67663119999634,m,445.67705349999596,445.69250889999967,446.6770226000008,0.35204610000073444,None,446.6931714999955,,,,,,,,,,,,,,,,,,,,,,,,,,,,,,,,,,,,,,,,,,,,,,,,,,,,,,,,,,,,,,,,,,,,,,,,,,,,,,,,,,,,B_12,001,2024-11-30_09h33.25.664,untitled,2024.1.5,None,2024-11-30 09h33.42.254250 +0530,
triangle.png,you,0,Z,,,,,,,,,35,0,140,3,,,,,,,,,446.6931714999955,,,,,,,,,,,,,,,,,,,,,,,,,,,,,,,,,,446.6773730999994,446.6931714999955,447.1770364999975,447.1770364999975,447.1770364999975,447.1770364999975,447.19346100000257,447.4768294999958,447.4768294999958,447.4768294999958,,447.6610636999976,z,447.66155640000215,447.6768770999988,448.6614039999986,0.468338999999105,None,448.6773965999964,,,,,,,,,,,,,,,,,,,,,,,,,,,,,,,,,,,,,,,,,,,,,,,,,,,,,,,,,,,,,,,,,,,,,,,,,,,,,,,,,,,,B_12,001,2024-11-30_09h33.25.664,untitled,2024.1.5,None,2024-11-30 09h33.42.254250 +0530,
triangle.png,stranger,1,M,,,,,,,,,35,1,141,1,,,,,,,,,448.6773965999964,,,,,,,,,,,,,,,,,,,,,,,,,,,,,,,,,,448.6617505999966,448.6773965999964,449.1613357000024,449.1613357000024,449.1613357000024,449.1613357000024,449.1777607999975,449.46143799999845,449.46143799999845,449.46143799999845,,449.76210829999764,z,449.76253809999616,449.77813149999565,450.76247539999895,0.5956562999999733,None,450.7786417000025,,,,,,,,,,,,,,,,,,,,,,,,,,,,,,,,,,,,,,,,,,,,,,,,,,,,,,,,,,,,,,,,,,,,,,,,,,,,,,,,,,,,B_12,001,2024-11-30_09h33.25.664,untitled,2024.1.5,None,2024-11-30 09h33.42.254250 +0530,
square.png,stranger,0,Z,,,,,,,,,35,2,142,2,,,,,,,,,450.7786417000025,,,,,,,,,,,,,,,,,,,,,,,,,,,,,,,,,,450.76282679999713,450.7786417000025,451.26247650000005,451.26247650000005,451.26247650000005,451.26247650000005,451.2790845999989,451.56249099999695,451.56249099999695,451.56249099999695,,451.79652910000004,z,451.7969531999988,451.8124888999955,452.7968019999971,0.5182112999973469,None,452.8128604000012,,,,,,,,,,,,,,,,,,,,,,,,,,,,,,,,,,,,,,,,,,,,,,,,,,,,,,,,,,,,,,,,,,,,,,,,,,,,,,,,,,,,B_12,001,2024-11-30_09h33.25.664,untitled,2024.1.5,None,2024-11-30 09h33.42.254250 +0530,
square.png,you,1,M,,,,,,,,,35,3,143,0,,,,,,,,,452.8128604000012,,,,,,,,,,,,,,,,,,,,,,,,,,,,,,,,,,452.79714899999817,452.8128604000012,453.2967632,453.2967632,453.2967632,453.2967632,453.31340479999926,453.5968148999964,453.5968148999964,453.5968148999964,,453.7142339999991,m,453.71468620000087,453.7300350000005,454.71423119999963,0.403853199997684,None,454.73074669999914,,,,,,,,,,,,,,,,,,,,,,,,,,,,,,,,,,,,,,,,,,,,,,,,,,,,,,,,,,,,,,,,,,,,,,,,,,,,,,,,,,,,B_12,001,2024-11-30_09h33.25.664,untitled,2024.1.5,None,2024-11-30 09h33.42.254250 +0530,
square.png,stranger,0,Z,,,,,,,,,36,0,144,2,,,,,,,,,454.73074669999914,,,,,,,,,,,,,,,,,,,,,,,,,,,,,,,,,,454.7145826999986,454.73074669999914,455.21443039999576,455.21443039999576,455.21443039999576,455.21443039999576,455.23089489999984,455.51421449999907,455.51421449999907,455.51421449999907,,455.89851449999696,z,455.8989347999959,455.9147778999977,456.898709699999,0.667774699999427,None,456.9150202999954,,,,,,,,,,,,,,,,,,,,,,,,,,,,,,,,,,,,,,,,,,,,,,,,,,,,,,,,,,,,,,,,,,,,,,,,,,,,,,,,,,,,B_12,001,2024-11-30_09h33.25.664,untitled,2024.1.5,None,2024-11-30 09h33.42.254250 +0530,
