stimulus_b,label_b,is_match_b,shouldpress_b,stimulus_2b,label_2b,is_match_2b,shouldpress_2b,p_trials.thisRepN,p_trials.thisTrialN,p_trials.thisN,p_trials.thisIndex,trials.thisRepN,trials.thisTrialN,trials.thisN,trials.thisIndex,p_trials_2.thisRepN,p_trials_2.thisTrialN,p_trials_2.thisN,p_trials_2.thisIndex,trials_2.thisRepN,trials_2.thisTrialN,trials_2.thisN,trials_2.thisIndex,thisRow.t,notes,Intruduction.started,text_3.started,key_resp_2.started,Intruduction.stopped,key_resp_2.keys,key_resp_2.rt,key_resp_2.duration,self_other_instructions.started,text_4.started,key_resp_3.started,self_other_instructions.stopped,key_resp_3.keys,key_resp_3.rt,key_resp_3.duration,self_other_info.started,square_image.started,triangle_image.started,self_label.started,other_label.started,key_resp_4.started,text_5.started,self_other_info.stopped,key_resp_4.keys,key_resp_4.rt,key_resp_4.duration,self_other_starting_2.started,text_6.started,key_resp_5.started,self_other_starting_2.stopped,key_resp_5.keys,key_resp_5.rt,key_resp_5.duration,b1.started,p_fication.started,p_fixation_3.started,p_text.started,key_resp_p.started,p_image.started,p_fication.stopped,p_fixation_3.stopped,p_text.stopped,p_image.stopped,key_resp_p.stopped,b1.stopped,key_resp_p.keys,b_feedback.started,text_15.started,b_feedback.stopped,text_15.stopped,key_resp_p.rt,key_resp_p.duration,start2.started,start_2.started,key_resp_11.started,start2.stopped,key_resp_11.keys,key_resp_11.rt,key_resp_11.duration,break_3.started,text_13.started,text_14.started,key_resp_10.started,text_13.stopped,break_3.stopped,key_resp_10.keys,key_resp_10.rt,key_resp_10.duration,self_instructions_2.started,text_10.started,key_resp_7.started,self_instructions_2.stopped,key_resp_7.keys,key_resp_7.rt,key_resp_7.duration,self_intro_2.started,circle_image.started,diamond_image.started,Disgusting_self_lable.started,Desirable_self_lable.started,key_resp_8.started,text_11.started,self_intro_2.stopped,key_resp_8.keys,key_resp_8.rt,key_resp_8.duration,self_starting_3.started,text_12.started,key_resp_9.started,self_starting_3.stopped,key_resp_9.keys,key_resp_9.rt,key_resp_9.duration,practice2.started,p_fixation_2.started,p_fixation_4.started,p_text_8.started,key_resp_6_p.started,p_image_2.started,p_fixation_2.stopped,p_fixation_4.stopped,p_text_8.stopped,p_image_2.stopped,practice2.stopped,key_resp_6_p.keys,key_resp_6_p.rt,key_resp_6_p.duration,feedback_2_p.started,text_16.started,text_16.stopped,feedback_2_p.stopped,key_resp_6_p.stopped,trial_2.started,fixation_2.started,fixation_4.started,text_8.started,key_resp_6.started,image_2.started,fixation_2.stopped,fixation_4.stopped,text_8.stopped,image_2.stopped,key_resp_6.stopped,trial_2.stopped,key_resp_6.keys,feedback_2.started,text_9.started,text_9.stopped,feedback_2.stopped,key_resp_6.rt,key_resp_6.duration,Thank_you.started,text_7.started,text_7.stopped,Thank_you.stopped,participant,session,date,expName,psychopyVersion,frameRate,expStart,
,,,,,,,,,,,,,,,,,,,,,,,,,,0.0027680999992298894,0.006591400000615977,0.006591400000615977,5.474583700000949,space,5.44279010000173,None,,,,,,,,,,,,,,,,,,,,,,,,,,,,,,,,,,,,,,,,,,,,,,,,,,,,,,,,,,,,,,,,,,,,,,,,,,,,,,,,,,,,,,,,,,,,,,,,,,,,,,,,,,,,,,,,,,,,,,,,,,,,,,,,B_13,001,2024-11-30_11h44.07.012,untitled,2024.1.5,None,2024-11-30 11h44.21.858727 +0530,
,,,,,,,,,,,,,,,,,,,,,,,,,,,,,,,,,5.474612099998922,5.479688899999019,5.479688899999019,28.849995000004128,space,23.357330899998487,None,,,,,,,,,,,,,,,,,,,,,,,,,,,,,,,,,,,,,,,,,,,,,,,,,,,,,,,,,,,,,,,,,,,,,,,,,,,,,,,,,,,,,,,,,,,,,,,,,,,,,,,,,,,,,,,,,,,,,,,,,B_13,001,2024-11-30_11h44.07.012,untitled,2024.1.5,None,2024-11-30 11h44.21.858727 +0530,
,,,,,,,,,,,,,,,,,,,,,,,,,,,,,,,,,,,,,,,,28.850021500002185,28.883111000002827,28.883111000002827,28.883111000002827,28.883111000002827,28.883111000002827,28.883111000002827,81.05875820000074,space,52.161616599994886,None,,,,,,,,,,,,,,,,,,,,,,,,,,,,,,,,,,,,,,,,,,,,,,,,,,,,,,,,,,,,,,,,,,,,,,,,,,,,,,,,,,,,,,,,,,,,,,,,,,,,,,,,,,,,,,B_13,001,2024-11-30_11h44.07.012,untitled,2024.1.5,None,2024-11-30 11h44.21.858727 +0530,
,,,,,,,,,,,,,,,,,,,,,,,,,,,,,,,,,,,,,,,,,,,,,,,,,,,81.0587863000037,81.07530470000347,81.07530470000347,86.04507100000046,space,4.968915700002981,None,,,,,,,,,,,,,,,,,,,,,,,,,,,,,,,,,,,,,,,,,,,,,,,,,,,,,,,,,,,,,,,,,,,,,,,,,,,,,,,,,,,,,,,,,,,,,,,,,,,,,,,B_13,001,2024-11-30_11h44.07.012,untitled,2024.1.5,None,2024-11-30 11h44.21.858727 +0530,
square.png,stranger,0,Z,,,,,0,0,0,2,,,,,,,,,,,,,86.06634830000257,,,,,,,,,,,,,,,,,,,,,,,,,,,,,,,,,,86.05433320000157,86.06634830000257,86.56089400000201,86.56089400000201,86.56089400000201,86.56089400000201,86.5773599000022,86.86081569999806,86.86081569999806,86.86081569999806,87.6613056999995,87.64505640000425,None,87.64527169999928,87.6613056999995,88.64518600000156,,,,,,,,,,,,,,,,,,,,,,,,,,,,,,,,,,,,,,,,,,,,,,,,,,,,,,,,,,,,,,,,,,,,,,,,,,,,,,,,,,,,,,,B_13,001,2024-11-30_11h44.07.012,untitled,2024.1.5,None,2024-11-30 11h44.21.858727 +0530,
triangle.png,you,0,Z,,,,,0,1,1,3,,,,,,,,,,,,,88.66168830000242,,,,,,,,,,,,,,,,,,,,,,,,,,,,,,,,,,88.6454389999999,88.66168830000242,89.14579760000197,89.14579760000197,89.14579760000197,89.14579760000197,89.16215419999935,89.44570589999785,89.44570589999785,89.44570589999785,90.24588429999858,90.22974629999953,None,90.22988359999727,90.24588429999858,91.23019799999747,91.24633690000337,,,,,,,,,,,,,,,,,,,,,,,,,,,,,,,,,,,,,,,,,,,,,,,,,,,,,,,,,,,,,,,,,,,,,,,,,,,,,,,,,,,,,,B_13,001,2024-11-30_11h44.07.012,untitled,2024.1.5,None,2024-11-30 11h44.21.858727 +0530,
square.png,you,1,M,,,,,0,2,2,0,,,,,,,,,,,,,91.24633690000337,,,,,,,,,,,,,,,,,,,,,,,,,,,,,,,,,,91.2304437999992,91.24633690000337,91.7468119000041,91.7468119000041,91.7468119000041,91.7468119000041,91.7468119000041,92.04690320000373,92.04690320000373,92.04690320000373,92.8473840000006,92.83093190000363,None,92.83107120000204,92.8473840000006,93.83157310000388,93.8478615999993,,,,,,,,,,,,,,,,,,,,,,,,,,,,,,,,,,,,,,,,,,,,,,,,,,,,,,,,,,,,,,,,,,,,,,,,,,,,,,,,,,,,,,B_13,001,2024-11-30_11h44.07.012,untitled,2024.1.5,None,2024-11-30 11h44.21.858727 +0530,
triangle.png,stranger,1,M,,,,,0,3,3,1,,,,,,,,,,,,,93.8478615999993,,,,,,,,,,,,,,,,,,,,,,,,,,,,,,,,,,93.83181280000281,93.8478615999993,94.34822659999918,94.34822659999918,94.34822659999918,94.34822659999918,94.34822659999918,94.64811980000377,94.64811980000377,94.64811980000377,,94.74888490000012,z,94.74923080000008,94.76492590000271,95.7490816999998,95.76556349999737,0.3884440000038012,None,,,,,,,,,,,,,,,,,,,,,,,,,,,,,,,,,,,,,,,,,,,,,,,,,,,,,,,,,,,,,,,,,,,,,,,,,,,,,,,,,,,,B_13,001,2024-11-30_11h44.07.012,untitled,2024.1.5,None,2024-11-30 11h44.21.858727 +0530,
triangle.png,you,0,Z,,,,,1,0,4,3,,,,,,,,,,,,,95.76556349999737,,,,,,,,,,,,,,,,,,,,,,,,,,,,,,,,,,95.74932350000017,95.76556349999737,96.24926470000355,96.24926470000355,96.24926470000355,96.24926470000355,96.26586769999994,96.54917269999714,96.54917269999714,96.54917269999714,97.34970759999851,97.33346660000097,None,97.33359890000429,97.34970759999851,98.33372670000244,98.3501940999995,,,,,,,,,,,,,,,,,,,,,,,,,,,,,,,,,,,,,,,,,,,,,,,,,,,,,,,,,,,,,,,,,,,,,,,,,,,,,,,,,,,,,,B_13,001,2024-11-30_11h44.07.012,untitled,2024.1.5,None,2024-11-30 11h44.21.858727 +0530,
square.png,stranger,0,Z,,,,,1,1,5,2,,,,,,,,,,,,,98.3501940999995,,,,,,,,,,,,,,,,,,,,,,,,,,,,,,,,,,98.33396489999723,98.3501940999995,98.85045420000097,98.85045420000097,98.85045420000097,98.85045420000097,98.85045420000097,99.15038359999744,99.15038359999744,99.15038359999744,99.95078949999879,99.93455610000092,None,99.93469180000102,99.95078949999879,100.93523799999821,100.95143330000428,,,,,,,,,,,,,,,,,,,,,,,,,,,,,,,,,,,,,,,,,,,,,,,,,,,,,,,,,,,,,,,,,,,,,,,,,,,,,,,,,,,,,,B_13,001,2024-11-30_11h44.07.012,untitled,2024.1.5,None,2024-11-30 11h44.21.858727 +0530,
triangle.png,stranger,1,M,,,,,1,2,6,1,,,,,,,,,,,,,100.95143330000428,,,,,,,,,,,,,,,,,,,,,,,,,,,,,,,,,,100.93547899999976,100.95143330000428,101.45188800000324,101.45188800000324,101.45188800000324,101.45188800000324,101.45188800000324,101.75184250000166,101.75184250000166,101.75184250000166,102.55211560000316,102.53598059999786,None,102.53611359999923,102.55211560000316,103.5365002000035,103.55260319999798,,,,,,,,,,,,,,,,,,,,,,,,,,,,,,,,,,,,,,,,,,,,,,,,,,,,,,,,,,,,,,,,,,,,,,,,,,,,,,,,,,,,,,B_13,001,2024-11-30_11h44.07.012,untitled,2024.1.5,None,2024-11-30 11h44.21.858727 +0530,
square.png,you,1,M,,,,,1,3,7,0,,,,,,,,,,,,,103.55260319999798,,,,,,,,,,,,,,,,,,,,,,,,,,,,,,,,,,103.53673559999879,103.55260319999798,104.05327270000271,104.05327270000271,104.05327270000271,104.05327270000271,104.05327270000271,104.35321600000316,104.35321600000316,104.35321600000316,105.1534501999995,105.13738179999928,None,105.13751620000403,105.1534501999995,106.1377524999989,106.15419069999916,,,,,,,,,,,,,,,,,,,,,,,,,,,,,,,,,,,,,,,,,,,,,,,,,,,,,,,,,,,,,,,,,,,,,,,,,,,,,,,,,,,,,,B_13,001,2024-11-30_11h44.07.012,untitled,2024.1.5,None,2024-11-30 11h44.21.858727 +0530,
square.png,stranger,0,Z,,,,,2,0,8,2,,,,,,,,,,,,,106.15419069999916,,,,,,,,,,,,,,,,,,,,,,,,,,,,,,,,,,106.13799470000231,106.15419069999916,106.65434860000096,106.65434860000096,106.65434860000096,106.65434860000096,106.65434860000096,106.95452120000118,106.95452120000118,106.95452120000118,107.75487969999813,107.73852949999855,None,107.73868190000212,107.75487969999813,108.73923859999923,108.75559069999872,,,,,,,,,,,,,,,,,,,,,,,,,,,,,,,,,,,,,,,,,,,,,,,,,,,,,,,,,,,,,,,,,,,,,,,,,,,,,,,,,,,,,,B_13,001,2024-11-30_11h44.07.012,untitled,2024.1.5,None,2024-11-30 11h44.21.858727 +0530,
triangle.png,you,0,Z,,,,,2,1,9,3,,,,,,,,,,,,,108.75559069999872,,,,,,,,,,,,,,,,,,,,,,,,,,,,,,,,,,108.73947639999824,108.75559069999872,109.25591390000045,109.25591390000045,109.25591390000045,109.25591390000045,109.25591390000045,109.55583950000437,109.55583950000437,109.55583950000437,,110.25701220000337,m,110.25726389999909,110.27292329999909,111.25721770000382,111.27331180000328,0.9968588999981876,None,,,,,,,,,,,,,,,,,,,,,,,,,,,,,,,,,,,,,,,,,,,,,,,,,,,,,,,,,,,,,,,,,,,,,,,,,,,,,,,,,,,,B_13,001,2024-11-30_11h44.07.012,untitled,2024.1.5,None,2024-11-30 11h44.21.858727 +0530,
square.png,you,1,M,,,,,2,2,10,0,,,,,,,,,,,,,111.27331180000328,,,,,,,,,,,,,,,,,,,,,,,,,,,,,,,,,,111.25745399999869,111.27331180000328,111.75699970000278,111.75699970000278,111.75699970000278,111.75699970000278,111.77384760000132,112.05724790000386,112.05724790000386,112.05724790000386,,112.32487180000317,m,112.32511610000074,112.3406399000014,113.32486040000367,113.34123230000114,0.5586372000034316,None,,,,,,,,,,,,,,,,,,,,,,,,,,,,,,,,,,,,,,,,,,,,,,,,,,,,,,,,,,,,,,,,,,,,,,,,,,,,,,,,,,,,B_13,001,2024-11-30_11h44.07.012,untitled,2024.1.5,None,2024-11-30 11h44.21.858727 +0530,
triangle.png,stranger,1,M,,,,,2,3,11,1,,,,,,,,,,,,,113.34123230000114,,,,,,,,,,,,,,,,,,,,,,,,,,,,,,,,,,113.32509559999744,113.34123230000114,113.82509500000015,113.82509500000015,113.82509500000015,113.82509500000015,113.84147030000167,114.12475039999845,114.12475039999845,114.12475039999845,,114.37560420000227,z,114.37585660000332,114.39162650000071,115.37591470000189,115.3921141000028,0.5353064999944763,None,,,,,,,,,,,,,,,,,,,,,,,,,,,,,,,,,,,,,,,,,,,,,,,,,,,,,,,,,,,,,,,,,,,,,,,,,,,,,,,,,,,,B_13,001,2024-11-30_11h44.07.012,untitled,2024.1.5,None,2024-11-30 11h44.21.858727 +0530,
triangle.png,stranger,1,M,,,,,3,0,12,1,,,,,,,,,,,,,115.3921141000028,,,,,,,,,,,,,,,,,,,,,,,,,,,,,,,,,,115.37615570000344,115.3921141000028,115.87596360000316,115.87596360000316,115.87596360000316,115.87596360000316,115.89261560000159,116.17593270000361,116.17593270000361,116.17593270000361,,116.59355869999854,z,116.59381260000373,116.6093611000033,117.59377320000203,117.60991710000235,0.7090447999944445,None,,,,,,,,,,,,,,,,,,,,,,,,,,,,,,,,,,,,,,,,,,,,,,,,,,,,,,,,,,,,,,,,,,,,,,,,,,,,,,,,,,,,B_13,001,2024-11-30_11h44.07.012,untitled,2024.1.5,None,2024-11-30 11h44.21.858727 +0530,
square.png,stranger,0,Z,,,,,3,1,13,2,,,,,,,,,,,,,117.60991710000235,,,,,,,,,,,,,,,,,,,,,,,,,,,,,,,,,,117.59400979999918,117.60991710000235,118.09366350000346,118.09366350000346,118.09366350000346,118.09366350000346,118.11018940000213,118.39379770000232,118.39379770000232,118.39379770000232,119.19380649999948,119.17759220000153,None,119.17773180000222,119.19380649999948,120.17820249999932,120.19456139999966,,,,,,,,,,,,,,,,,,,,,,,,,,,,,,,,,,,,,,,,,,,,,,,,,,,,,,,,,,,,,,,,,,,,,,,,,,,,,,,,,,,,,,B_13,001,2024-11-30_11h44.07.012,untitled,2024.1.5,None,2024-11-30 11h44.21.858727 +0530,
triangle.png,you,0,Z,,,,,3,2,14,3,,,,,,,,,,,,,120.19456139999966,,,,,,,,,,,,,,,,,,,,,,,,,,,,,,,,,,120.17844039999909,120.19456139999966,120.6951715000032,120.6951715000032,120.6951715000032,120.6951715000032,120.6951715000032,120.9948463000037,120.9948463000037,120.9948463000037,,121.69581540000218,z,121.6960698000039,121.71176810000179,122.69622740000341,122.71241480000026,0.9964063000006718,None,,,,,,,,,,,,,,,,,,,,,,,,,,,,,,,,,,,,,,,,,,,,,,,,,,,,,,,,,,,,,,,,,,,,,,,,,,,,,,,,,,,,B_13,001,2024-11-30_11h44.07.012,untitled,2024.1.5,None,2024-11-30 11h44.21.858727 +0530,
square.png,you,1,M,,,,,3,3,15,0,,,,,,,,,,,,,122.71241480000026,,,,,,,,,,,,,,,,,,,,,,,,,,,,,,,,,,122.69646490000014,122.71241480000026,123.19633759999851,123.19633759999851,123.19633759999851,123.19633759999851,123.21289329999854,123.49618700000428,123.49618700000428,123.49618700000428,,123.94747780000034,m,123.94772199999716,123.96319360000052,124.94764620000205,124.96383780000178,0.7480329000027268,None,,,,,,,,,,,,,,,,,,,,,,,,,,,,,,,,,,,,,,,,,,,,,,,,,,,,,,,,,,,,,,,,,,,,,,,,,,,,,,,,,,,,B_13,001,2024-11-30_11h44.07.012,untitled,2024.1.5,None,2024-11-30 11h44.21.858727 +0530,
square.png,you,1,M,,,,,4,0,16,0,,,,,,,,,,,,,124.96383780000178,,,,,,,,,,,,,,,,,,,,,,,,,,,,,,,,,,124.94787760000327,124.96383780000178,125.44760980000137,125.44760980000137,125.44760980000137,125.44760980000137,125.46416090000275,125.7474160999991,125.7474160999991,125.7474160999991,,126.23172470000281,m,126.23197490000166,126.24764600000344,127.23177559999749,127.24826490000123,0.7775212999986252,None,,,,,,,,,,,,,,,,,,,,,,,,,,,,,,,,,,,,,,,,,,,,,,,,,,,,,,,,,,,,,,,,,,,,,,,,,,,,,,,,,,,,B_13,001,2024-11-30_11h44.07.012,untitled,2024.1.5,None,2024-11-30 11h44.21.858727 +0530,
square.png,stranger,0,Z,,,,,4,1,17,2,,,,,,,,,,,,,127.24826490000123,,,,,,,,,,,,,,,,,,,,,,,,,,,,,,,,,,127.23201230000268,127.24826490000123,127.73208180000074,127.73208180000074,127.73208180000074,127.73208180000074,127.74865610000415,128.03192220000346,128.03192220000346,128.03192220000346,,128.49960940000165,z,128.49986589999753,128.5154027000026,129.49970539999777,129.5161700000026,0.764679799998703,None,,,,,,,,,,,,,,,,,,,,,,,,,,,,,,,,,,,,,,,,,,,,,,,,,,,,,,,,,,,,,,,,,,,,,,,,,,,,,,,,,,,,B_13,001,2024-11-30_11h44.07.012,untitled,2024.1.5,None,2024-11-30 11h44.21.858727 +0530,
triangle.png,stranger,1,M,,,,,4,2,18,1,,,,,,,,,,,,,129.5161700000026,,,,,,,,,,,,,,,,,,,,,,,,,,,,,,,,,,129.49993910000194,129.5161700000026,129.99981610000395,129.99981610000395,129.99981610000395,129.99981610000395,130.01645239999925,130.29988299999968,130.29988299999968,130.29988299999968,,131.05103229999804,m,131.0512791000001,131.06688320000103,132.0513751000035,132.0673650000026,1.0371229000011226,None,,,,,,,,,,,,,,,,,,,,,,,,,,,,,,,,,,,,,,,,,,,,,,,,,,,,,,,,,,,,,,,,,,,,,,,,,,,,,,,,,,,,B_13,001,2024-11-30_11h44.07.012,untitled,2024.1.5,None,2024-11-30 11h44.21.858727 +0530,
triangle.png,you,0,Z,,,,,4,3,19,3,,,,,,,,,,,,,132.0673650000026,,,,,,,,,,,,,,,,,,,,,,,,,,,,,,,,,,132.05160620000242,132.0673650000026,132.55118290000246,132.55118290000246,132.55118290000246,132.55118290000246,132.56765859999723,132.85105959999782,132.85105959999782,132.85105959999782,,133.53538680000202,z,133.5356402000034,133.55154400000174,134.53573270000197,134.55192940000416,0.9731587000060244,None,,,,,,,,,,,,,,,,,,,,,,,,,,,,,,,,,,,,,,,,,,,,,,,,,,,,,,,,,,,,,,,,,,,,,,,,,,,,,,,,,,,,B_13,001,2024-11-30_11h44.07.012,untitled,2024.1.5,None,2024-11-30 11h44.21.858727 +0530,
,,,,,,,,,,,,,,,,,,,,,,,,,,,,,,,,,,,,,,,,,,,,,,,,,,,,,,,,,,,,,,,,,,,,,,,,,,,,,134.53577999999834,134.55192940000416,134.55192940000416,135.75326830000267,space,1.1927086999930907,None,,,,,,,,,,,,,,,,,,,,,,,,,,,,,,,,,,,,,,,,,,,,,,,,,,,,,,,,,,,,,,,,,,,,,,,,,,,,,B_13,001,2024-11-30_11h44.07.012,untitled,2024.1.5,None,2024-11-30 11h44.21.858727 +0530,
square.png,you,1,M,,,,,,,,,0,0,0,0,,,,,,,,,135.7693677999996,,,,,,,,,,,,,,,,,,,,,,,,,,,,,,,,,,135.7585990000007,135.7693677999996,136.25281109999924,136.25281109999924,136.25281109999924,136.25281109999924,136.26967370000057,136.55307670000184,136.55307670000184,136.55307670000184,,137.03725210000266,m,137.03792799999792,137.05315780000092,138.0376202000043,138.0538505000004,0.7760328999938793,None,,,,,,,,,,,,,,,,,,,,,,,,,,,,,,,,,,,,,,,,,,,,,,,,,,,,,,,,,,,,,,,,,,,,,,,,,,,,,,,,,,,,B_13,001,2024-11-30_11h44.07.012,untitled,2024.1.5,None,2024-11-30 11h44.21.858727 +0530,
triangle.png,stranger,1,M,,,,,,,,,0,1,1,1,,,,,,,,,138.0538505000004,,,,,,,,,,,,,,,,,,,,,,,,,,,,,,,,,,138.03797610000038,138.0538505000004,138.53748389999964,138.53748389999964,138.53748389999964,138.53748389999964,138.5539288,138.83743610000238,138.83743610000238,138.83743610000238,,139.58869129999948,m,139.58912350000173,139.60460930000409,140.58875850000186,140.6050166999994,1.0347875000006752,None,,,,,,,,,,,,,,,,,,,,,,,,,,,,,,,,,,,,,,,,,,,,,,,,,,,,,,,,,,,,,,,,,,,,,,,,,,,,,,,,,,,,B_13,001,2024-11-30_11h44.07.012,untitled,2024.1.5,None,2024-11-30 11h44.21.858727 +0530,
square.png,stranger,0,Z,,,,,,,,,0,2,2,2,,,,,,,,,140.6050166999994,,,,,,,,,,,,,,,,,,,,,,,,,,,,,,,,,,140.58913400000165,140.6050166999994,141.0886587999994,141.0886587999994,141.0886587999994,141.0886587999994,141.1054507000008,141.38877330000105,141.38877330000105,141.38877330000105,,142.13978350000252,z,142.14021160000266,142.15565590000188,143.14031980000436,143.15644420000172,1.0439712000006693,None,,,,,,,,,,,,,,,,,,,,,,,,,,,,,,,,,,,,,,,,,,,,,,,,,,,,,,,,,,,,,,,,,,,,,,,,,,,,,,,,,,,,B_13,001,2024-11-30_11h44.07.012,untitled,2024.1.5,None,2024-11-30 11h44.21.858727 +0530,
triangle.png,you,0,Z,,,,,,,,,0,3,3,3,,,,,,,,,143.15644420000172,,,,,,,,,,,,,,,,,,,,,,,,,,,,,,,,,,143.14066450000246,143.15644420000172,143.6402143000014,143.6402143000014,143.6402143000014,143.6402143000014,143.65674610000133,143.9401962999982,143.9401962999982,143.9401962999982,,144.32426390000182,z,144.32470430000103,144.34017580000364,145.32458520000364,145.34087420000287,0.6798170999973081,None,,,,,,,,,,,,,,,,,,,,,,,,,,,,,,,,,,,,,,,,,,,,,,,,,,,,,,,,,,,,,,,,,,,,,,,,,,,,,,,,,,,,B_13,001,2024-11-30_11h44.07.012,untitled,2024.1.5,None,2024-11-30 11h44.21.858727 +0530,
triangle.png,stranger,1,M,,,,,,,,,1,0,4,1,,,,,,,,,145.34087420000287,,,,,,,,,,,,,,,,,,,,,,,,,,,,,,,,,,145.32494939999742,145.34087420000287,145.8245792000016,145.8245792000016,145.8245792000016,145.8245792000016,145.84115290000045,146.12451870000223,146.12451870000223,146.12451870000223,,146.87579209999967,m,146.87621000000217,146.89168410000275,147.8759515999991,147.89219920000323,1.0442431000046781,None,,,,,,,,,,,,,,,,,,,,,,,,,,,,,,,,,,,,,,,,,,,,,,,,,,,,,,,,,,,,,,,,,,,,,,,,,,,,,,,,,,,,B_13,001,2024-11-30_11h44.07.012,untitled,2024.1.5,None,2024-11-30 11h44.21.858727 +0530,
square.png,you,1,M,,,,,,,,,1,1,5,0,,,,,,,,,147.89219920000323,,,,,,,,,,,,,,,,,,,,,,,,,,,,,,,,,,147.8763037000026,147.89219920000323,148.37599200000113,148.37599200000113,148.37599200000113,148.37599200000113,148.39268950000405,148.67573529999936,148.67573529999936,148.67573529999936,,148.94323150000127,m,148.94370840000192,148.95931669999845,149.9435838999998,149.95975909999834,0.5594149999960791,None,,,,,,,,,,,,,,,,,,,,,,,,,,,,,,,,,,,,,,,,,,,,,,,,,,,,,,,,,,,,,,,,,,,,,,,,,,,,,,,,,,,,B_13,001,2024-11-30_11h44.07.012,untitled,2024.1.5,None,2024-11-30 11h44.21.858727 +0530,
triangle.png,you,0,Z,,,,,,,,,1,2,6,3,,,,,,,,,149.95975909999834,,,,,,,,,,,,,,,,,,,,,,,,,,,,,,,,,,149.94393750000017,149.95975909999834,150.44341910000367,150.44341910000367,150.44341910000367,150.44341910000367,150.4601806999999,150.74355449999712,150.74355449999712,150.74355449999712,,151.24430440000287,z,151.24473279999802,151.2604952000038,152.24465490000148,152.26108730000124,0.7971870000037597,None,,,,,,,,,,,,,,,,,,,,,,,,,,,,,,,,,,,,,,,,,,,,,,,,,,,,,,,,,,,,,,,,,,,,,,,,,,,,,,,,,,,,B_13,001,2024-11-30_11h44.07.012,untitled,2024.1.5,None,2024-11-30 11h44.21.858727 +0530,
square.png,stranger,0,Z,,,,,,,,,1,3,7,2,,,,,,,,,152.26108730000124,,,,,,,,,,,,,,,,,,,,,,,,,,,,,,,,,,152.2450131000005,152.26108730000124,152.74472319999768,152.74472319999768,152.74472319999768,152.74472319999768,152.76119630000176,153.0448408000011,153.0448408000011,153.0448408000011,153.84530259999883,153.8289208999995,None,153.82911060000333,153.84530259999883,154.82931909999752,154.84575539999787,,,,,,,,,,,,,,,,,,,,,,,,,,,,,,,,,,,,,,,,,,,,,,,,,,,,,,,,,,,,,,,,,,,,,,,,,,,,,,,,,,,,,,B_13,001,2024-11-30_11h44.07.012,untitled,2024.1.5,None,2024-11-30 11h44.21.858727 +0530,
square.png,stranger,0,Z,,,,,,,,,2,0,8,2,,,,,,,,,154.84575539999787,,,,,,,,,,,,,,,,,,,,,,,,,,,,,,,,,,154.82967450000433,154.84575539999787,155.34586449999915,155.34586449999915,155.34586449999915,155.34586449999915,155.34586449999915,155.64595669999835,155.64595669999835,155.64595669999835,,156.24709959999745,m,156.24751870000182,156.26303229999758,157.24716269999772,157.26364119999926,0.8857486999986577,None,,,,,,,,,,,,,,,,,,,,,,,,,,,,,,,,,,,,,,,,,,,,,,,,,,,,,,,,,,,,,,,,,,,,,,,,,,,,,,,,,,,,B_13,001,2024-11-30_11h44.07.012,untitled,2024.1.5,None,2024-11-30 11h44.21.858727 +0530,
triangle.png,you,0,Z,,,,,,,,,2,1,9,3,,,,,,,,,157.26364119999926,,,,,,,,,,,,,,,,,,,,,,,,,,,,,,,,,,157.24751549999928,157.26364119999926,157.74744150000333,157.74744150000333,157.74744150000333,157.74744150000333,157.7637345999974,158.0473626000021,158.0473626000021,158.0473626000021,158.847683400003,158.8314765000032,None,158.83166930000152,158.847683400003,159.83196860000317,159.84822300000087,,,,,,,,,,,,,,,,,,,,,,,,,,,,,,,,,,,,,,,,,,,,,,,,,,,,,,,,,,,,,,,,,,,,,,,,,,,,,,,,,,,,,,B_13,001,2024-11-30_11h44.07.012,untitled,2024.1.5,None,2024-11-30 11h44.21.858727 +0530,
triangle.png,stranger,1,M,,,,,,,,,2,2,10,1,,,,,,,,,159.84822300000087,,,,,,,,,,,,,,,,,,,,,,,,,,,,,,,,,,159.83232449999923,159.84822300000087,160.3486214000004,160.3486214000004,160.3486214000004,160.3486214000004,160.3486214000004,160.6484221999999,160.6484221999999,160.6484221999999,,161.19946640000126,m,161.19990549999784,161.2154487000007,162.19983630000206,162.21643929999846,0.8349594999963301,None,,,,,,,,,,,,,,,,,,,,,,,,,,,,,,,,,,,,,,,,,,,,,,,,,,,,,,,,,,,,,,,,,,,,,,,,,,,,,,,,,,,,B_13,001,2024-11-30_11h44.07.012,untitled,2024.1.5,None,2024-11-30 11h44.21.858727 +0530,
square.png,you,1,M,,,,,,,,,2,3,11,0,,,,,,,,,162.21643929999846,,,,,,,,,,,,,,,,,,,,,,,,,,,,,,,,,,162.20023159999982,162.21643929999846,162.69958040000347,162.69958040000347,162.69958040000347,162.69958040000347,162.71651700000075,162.9996456000008,162.9996456000008,162.9996456000008,,163.43412830000307,m,163.43455969999923,163.45007610000175,164.434388200003,164.45052379999834,0.7327323999998043,None,,,,,,,,,,,,,,,,,,,,,,,,,,,,,,,,,,,,,,,,,,,,,,,,,,,,,,,,,,,,,,,,,,,,,,,,,,,,,,,,,,,,B_13,001,2024-11-30_11h44.07.012,untitled,2024.1.5,None,2024-11-30 11h44.21.858727 +0530,
triangle.png,stranger,1,M,,,,,,,,,3,0,12,1,,,,,,,,,164.45052379999834,,,,,,,,,,,,,,,,,,,,,,,,,,,,,,,,,,164.43474640000204,164.45052379999834,164.93432880000182,164.93432880000182,164.93432880000182,164.93432880000182,164.95090329999948,165.23430750000261,165.23430750000261,165.23430750000261,166.03474950000236,166.01836049999838,None,166.01855459999933,166.03474950000236,167.0190139999977,167.03513940000266,,,,,,,,,,,,,,,,,,,,,,,,,,,,,,,,,,,,,,,,,,,,,,,,,,,,,,,,,,,,,,,,,,,,,,,,,,,,,,,,,,,,,,B_13,001,2024-11-30_11h44.07.012,untitled,2024.1.5,None,2024-11-30 11h44.21.858727 +0530,
triangle.png,you,0,Z,,,,,,,,,3,1,13,3,,,,,,,,,167.03513940000266,,,,,,,,,,,,,,,,,,,,,,,,,,,,,,,,,,167.01936160000332,167.03513940000266,167.53567170000315,167.53567170000315,167.53567170000315,167.53567170000315,167.53567170000315,167.83561980000377,167.83561980000377,167.83561980000377,,168.15361739999935,z,168.15407050000067,168.16902510000364,169.1538434000031,169.16979020000144,0.6164740999956848,None,,,,,,,,,,,,,,,,,,,,,,,,,,,,,,,,,,,,,,,,,,,,,,,,,,,,,,,,,,,,,,,,,,,,,,,,,,,,,,,,,,,,B_13,001,2024-11-30_11h44.07.012,untitled,2024.1.5,None,2024-11-30 11h44.21.858727 +0530,
square.png,you,1,M,,,,,,,,,3,2,14,0,,,,,,,,,169.16979020000144,,,,,,,,,,,,,,,,,,,,,,,,,,,,,,,,,,169.15421659999993,169.16979020000144,169.65318839999964,169.65318839999964,169.65318839999964,169.65318839999964,169.6699701000034,169.95320619999984,169.95320619999984,169.95320619999984,,170.52103750000242,m,170.52146750000247,170.53717419999884,171.52137539999967,171.5376383000039,0.8592090999954962,None,,,,,,,,,,,,,,,,,,,,,,,,,,,,,,,,,,,,,,,,,,,,,,,,,,,,,,,,,,,,,,,,,,,,,,,,,,,,,,,,,,,,B_13,001,2024-11-30_11h44.07.012,untitled,2024.1.5,None,2024-11-30 11h44.21.858727 +0530,
square.png,stranger,0,Z,,,,,,,,,3,3,15,2,,,,,,,,,171.5376383000039,,,,,,,,,,,,,,,,,,,,,,,,,,,,,,,,,,171.52172679999785,171.5376383000039,172.02136790000077,172.02136790000077,172.02136790000077,172.02136790000077,172.03789340000367,172.32116300000052,172.32116300000052,172.32116300000052,,172.80566969999927,z,172.8060919999989,172.82148540000344,173.8059923000037,173.82206089999818,0.7787293000001227,None,,,,,,,,,,,,,,,,,,,,,,,,,,,,,,,,,,,,,,,,,,,,,,,,,,,,,,,,,,,,,,,,,,,,,,,,,,,,,,,,,,,,B_13,001,2024-11-30_11h44.07.012,untitled,2024.1.5,None,2024-11-30 11h44.21.858727 +0530,
triangle.png,stranger,1,M,,,,,,,,,4,0,16,1,,,,,,,,,173.82206089999818,,,,,,,,,,,,,,,,,,,,,,,,,,,,,,,,,,173.8063428000023,173.82206089999818,174.30566009999893,174.30566009999893,174.30566009999893,174.30566009999893,174.32247250000364,174.6056333000015,174.6056333000015,174.6056333000015,,175.20678600000247,m,175.20721480000066,175.22278399999777,176.20725510000193,176.2234380000009,0.8865791999996873,None,,,,,,,,,,,,,,,,,,,,,,,,,,,,,,,,,,,,,,,,,,,,,,,,,,,,,,,,,,,,,,,,,,,,,,,,,,,,,,,,,,,,B_13,001,2024-11-30_11h44.07.012,untitled,2024.1.5,None,2024-11-30 11h44.21.858727 +0530,
square.png,you,1,M,,,,,,,,,4,1,17,0,,,,,,,,,176.2234380000009,,,,,,,,,,,,,,,,,,,,,,,,,,,,,,,,,,176.20772859999852,176.2234380000009,176.7068087000007,176.7068087000007,176.7068087000007,176.7068087000007,176.72347450000234,177.00685180000437,177.00685180000437,177.00685180000437,,177.44119350000256,m,177.44162150000193,177.45718589999888,178.44156569999905,178.45756760000222,0.7293105999997351,None,,,,,,,,,,,,,,,,,,,,,,,,,,,,,,,,,,,,,,,,,,,,,,,,,,,,,,,,,,,,,,,,,,,,,,,,,,,,,,,,,,,,B_13,001,2024-11-30_11h44.07.012,untitled,2024.1.5,None,2024-11-30 11h44.21.858727 +0530,
triangle.png,you,0,Z,,,,,,,,,4,2,18,3,,,,,,,,,178.45756760000222,,,,,,,,,,,,,,,,,,,,,,,,,,,,,,,,,,178.44192230000044,178.45756760000222,178.94150490000175,178.94150490000175,178.94150490000175,178.94150490000175,178.95805510000355,179.2413940999977,179.2413940999977,179.2413940999977,,179.64247669999895,z,179.6429078000001,179.65830570000253,180.6427382000038,180.65886870000395,0.695553600002313,None,,,,,,,,,,,,,,,,,,,,,,,,,,,,,,,,,,,,,,,,,,,,,,,,,,,,,,,,,,,,,,,,,,,,,,,,,,,,,,,,,,,,B_13,001,2024-11-30_11h44.07.012,untitled,2024.1.5,None,2024-11-30 11h44.21.858727 +0530,
square.png,stranger,0,Z,,,,,,,,,4,3,19,2,,,,,,,,,180.65886870000395,,,,,,,,,,,,,,,,,,,,,,,,,,,,,,,,,,180.64308639999945,180.65886870000395,181.14250030000403,181.14250030000403,181.14250030000403,181.14250030000403,181.15900159999728,181.442632899998,181.442632899998,181.442632899998,,182.16045100000338,z,182.16087569999945,182.17634199999884,183.16084270000283,183.17696599999908,1.0099357999934,None,,,,,,,,,,,,,,,,,,,,,,,,,,,,,,,,,,,,,,,,,,,,,,,,,,,,,,,,,,,,,,,,,,,,,,,,,,,,,,,,,,,,B_13,001,2024-11-30_11h44.07.012,untitled,2024.1.5,None,2024-11-30 11h44.21.858727 +0530,
square.png,stranger,0,Z,,,,,,,,,5,0,20,2,,,,,,,,,183.17696599999908,,,,,,,,,,,,,,,,,,,,,,,,,,,,,,,,,,183.16119140000228,183.17696599999908,183.66038280000066,183.66038280000066,183.66038280000066,183.66038280000066,183.67694460000348,183.96050800000376,183.96050800000376,183.96050800000376,,184.6614425000007,m,184.66186449999805,184.6777624000024,185.661729200001,185.67801680000412,0.9949354000054882,None,,,,,,,,,,,,,,,,,,,,,,,,,,,,,,,,,,,,,,,,,,,,,,,,,,,,,,,,,,,,,,,,,,,,,,,,,,,,,,,,,,,,B_13,001,2024-11-30_11h44.07.012,untitled,2024.1.5,None,2024-11-30 11h44.21.858727 +0530,
triangle.png,you,0,Z,,,,,,,,,5,1,21,3,,,,,,,,,185.67801680000412,,,,,,,,,,,,,,,,,,,,,,,,,,,,,,,,,,185.66208729999926,185.67801680000412,186.1615918000025,186.1615918000025,186.1615918000025,186.1615918000025,186.1784104000035,186.46169129999907,186.46169129999907,186.46169129999907,,186.8961668999982,z,186.89659960000427,186.91222099999868,187.8964577000006,187.91256289999728,0.7298018000001321,None,,,,,,,,,,,,,,,,,,,,,,,,,,,,,,,,,,,,,,,,,,,,,,,,,,,,,,,,,,,,,,,,,,,,,,,,,,,,,,,,,,,,B_13,001,2024-11-30_11h44.07.012,untitled,2024.1.5,None,2024-11-30 11h44.21.858727 +0530,
square.png,you,1,M,,,,,,,,,5,2,22,0,,,,,,,,,187.91256289999728,,,,,,,,,,,,,,,,,,,,,,,,,,,,,,,,,,187.89681610000116,187.91256289999728,188.39631889999873,188.39631889999873,188.39631889999873,188.39631889999873,188.41295430000173,188.6962399999975,188.6962399999975,188.6962399999975,,188.99710290000075,m,188.997532100002,189.01319700000022,189.9973611000023,190.01351080000313,0.5992068999985349,None,,,,,,,,,,,,,,,,,,,,,,,,,,,,,,,,,,,,,,,,,,,,,,,,,,,,,,,,,,,,,,,,,,,,,,,,,,,,,,,,,,,,B_13,001,2024-11-30_11h44.07.012,untitled,2024.1.5,None,2024-11-30 11h44.21.858727 +0530,
triangle.png,stranger,1,M,,,,,,,,,5,3,23,1,,,,,,,,,190.01351080000313,,,,,,,,,,,,,,,,,,,,,,,,,,,,,,,,,,189.99772069999744,190.01351080000313,190.49725310000213,190.49725310000213,190.49725310000213,190.49725310000213,190.51383360000182,190.79740609999862,190.79740609999862,190.79740609999862,,191.3818784000032,m,191.38231290000112,191.3976834999994,192.3820687000043,192.398082300002,0.8707852000006824,None,,,,,,,,,,,,,,,,,,,,,,,,,,,,,,,,,,,,,,,,,,,,,,,,,,,,,,,,,,,,,,,,,,,,,,,,,,,,,,,,,,,,B_13,001,2024-11-30_11h44.07.012,untitled,2024.1.5,None,2024-11-30 11h44.21.858727 +0530,
square.png,stranger,0,Z,,,,,,,,,6,0,24,2,,,,,,,,,192.398082300002,,,,,,,,,,,,,,,,,,,,,,,,,,,,,,,,,,192.38243040000089,192.398082300002,192.88181630000327,192.88181630000327,192.88181630000327,192.88181630000327,192.89834710000287,193.18199340000137,193.18199340000137,193.18199340000137,,193.74964069999987,z,193.75007890000416,193.7656382999994,194.74992120000388,194.7658694999991,0.8629500999959419,None,,,,,,,,,,,,,,,,,,,,,,,,,,,,,,,,,,,,,,,,,,,,,,,,,,,,,,,,,,,,,,,,,,,,,,,,,,,,,,,,,,,,B_13,001,2024-11-30_11h44.07.012,untitled,2024.1.5,None,2024-11-30 11h44.21.858727 +0530,
triangle.png,stranger,1,M,,,,,,,,,6,1,25,1,,,,,,,,,194.7658694999991,,,,,,,,,,,,,,,,,,,,,,,,,,,,,,,,,,194.75027760000376,194.7658694999991,195.24977419999777,195.24977419999777,195.24977419999777,195.24977419999777,195.26625739999872,195.54984559999866,195.54984559999866,195.54984559999866,,196.1842347999991,m,196.18466559999797,196.20024430000194,197.18433820000064,197.2004575000028,0.9185899000003701,None,,,,,,,,,,,,,,,,,,,,,,,,,,,,,,,,,,,,,,,,,,,,,,,,,,,,,,,,,,,,,,,,,,,,,,,,,,,,,,,,,,,,B_13,001,2024-11-30_11h44.07.012,untitled,2024.1.5,None,2024-11-30 11h44.21.858727 +0530,
square.png,you,1,M,,,,,,,,,6,2,26,0,,,,,,,,,197.2004575000028,,,,,,,,,,,,,,,,,,,,,,,,,,,,,,,,,,197.18469149999873,197.2004575000028,197.68422580000333,197.68422580000333,197.68422580000333,197.68422580000333,197.70097130000067,197.9843772000022,197.9843772000022,197.9843772000022,198.78458810000302,198.76867800000036,None,198.76887150000402,198.78458810000302,199.76900829999795,199.78543190000346,,,,,,,,,,,,,,,,,,,,,,,,,,,,,,,,,,,,,,,,,,,,,,,,,,,,,,,,,,,,,,,,,,,,,,,,,,,,,,,,,,,,,,B_13,001,2024-11-30_11h44.07.012,untitled,2024.1.5,None,2024-11-30 11h44.21.858727 +0530,
triangle.png,you,0,Z,,,,,,,,,6,3,27,3,,,,,,,,,199.78543190000346,,,,,,,,,,,,,,,,,,,,,,,,,,,,,,,,,,199.76938189999782,199.78543190000346,200.28551329999755,200.28551329999755,200.28551329999755,200.28551329999755,200.28551329999755,200.58560520000174,200.58560520000174,200.58560520000174,,201.03644799999893,z,201.0368970999989,201.0525078999999,202.0369103999983,202.0530992999993,0.7434477999995579,None,,,,,,,,,,,,,,,,,,,,,,,,,,,,,,,,,,,,,,,,,,,,,,,,,,,,,,,,,,,,,,,,,,,,,,,,,,,,,,,,,,,,B_13,001,2024-11-30_11h44.07.012,untitled,2024.1.5,None,2024-11-30 11h44.21.858727 +0530,
square.png,you,1,M,,,,,,,,,7,0,28,0,,,,,,,,,202.0530992999993,,,,,,,,,,,,,,,,,,,,,,,,,,,,,,,,,,202.0372611999992,202.0530992999993,202.5367802000037,202.5367802000037,202.5367802000037,202.5367802000037,202.55358620000334,202.83688090000214,202.83688090000214,202.83688090000214,,203.17089770000166,m,203.17132449999917,203.18712419999792,204.17136400000163,204.18759300000238,0.6194800000012037,None,,,,,,,,,,,,,,,,,,,,,,,,,,,,,,,,,,,,,,,,,,,,,,,,,,,,,,,,,,,,,,,,,,,,,,,,,,,,,,,,,,,,B_13,001,2024-11-30_11h44.07.012,untitled,2024.1.5,None,2024-11-30 11h44.21.858727 +0530,
triangle.png,you,0,Z,,,,,,,,,7,1,29,3,,,,,,,,,204.18759300000238,,,,,,,,,,,,,,,,,,,,,,,,,,,,,,,,,,204.17173339999863,204.18759300000238,204.6710998999988,204.6710998999988,204.6710998999988,204.6710998999988,204.68775910000113,204.97124189999886,204.97124189999886,204.97124189999886,,205.47210590000032,z,205.4725518999985,205.48804530000052,206.4723892999973,206.4885742999977,0.7975522999986424,None,,,,,,,,,,,,,,,,,,,,,,,,,,,,,,,,,,,,,,,,,,,,,,,,,,,,,,,,,,,,,,,,,,,,,,,,,,,,,,,,,,,,B_13,001,2024-11-30_11h44.07.012,untitled,2024.1.5,None,2024-11-30 11h44.21.858727 +0530,
square.png,stranger,0,Z,,,,,,,,,7,2,30,2,,,,,,,,,206.4885742999977,,,,,,,,,,,,,,,,,,,,,,,,,,,,,,,,,,206.47275470000022,206.4885742999977,206.9725851999974,206.9725851999974,206.9725851999974,206.9725851999974,206.9890904999993,207.27234920000046,207.27234920000046,207.27234920000046,,207.55665099999896,m,207.5570871000018,207.57248560000153,208.55682740000339,208.5733134999973,0.5723337999952491,None,,,,,,,,,,,,,,,,,,,,,,,,,,,,,,,,,,,,,,,,,,,,,,,,,,,,,,,,,,,,,,,,,,,,,,,,,,,,,,,,,,,,B_13,001,2024-11-30_11h44.07.012,untitled,2024.1.5,None,2024-11-30 11h44.21.858727 +0530,
triangle.png,stranger,1,M,,,,,,,,,7,3,31,1,,,,,,,,,208.5733134999973,,,,,,,,,,,,,,,,,,,,,,,,,,,,,,,,,,208.5571787000008,208.5733134999973,209.05699009999807,209.05699009999807,209.05699009999807,209.05699009999807,209.0733967999986,209.35680039999716,209.35680039999716,209.35680039999716,,209.7241920000015,z,209.72461920000205,209.7404045000003,210.72469889999775,210.74099659999774,0.6582278000059887,None,,,,,,,,,,,,,,,,,,,,,,,,,,,,,,,,,,,,,,,,,,,,,,,,,,,,,,,,,,,,,,,,,,,,,,,,,,,,,,,,,,,,B_13,001,2024-11-30_11h44.07.012,untitled,2024.1.5,None,2024-11-30 11h44.21.858727 +0530,
square.png,you,1,M,,,,,,,,,8,0,32,0,,,,,,,,,210.74099659999774,,,,,,,,,,,,,,,,,,,,,,,,,,,,,,,,,,210.72506779999821,210.74099659999774,211.22470700000122,211.22470700000122,211.22470700000122,211.22470700000122,211.24135560000286,211.52461459999904,211.52461459999904,211.52461459999904,,211.87565890000405,m,211.87608020000334,211.89141299999756,212.87570860000415,212.89210489999823,0.6347401000020909,None,,,,,,,,,,,,,,,,,,,,,,,,,,,,,,,,,,,,,,,,,,,,,,,,,,,,,,,,,,,,,,,,,,,,,,,,,,,,,,,,,,,,B_13,001,2024-11-30_11h44.07.012,untitled,2024.1.5,None,2024-11-30 11h44.21.858727 +0530,
square.png,stranger,0,Z,,,,,,,,,8,1,33,2,,,,,,,,,212.89210489999823,,,,,,,,,,,,,,,,,,,,,,,,,,,,,,,,,,212.87605579999945,212.89210489999823,213.37566840000363,213.37566840000363,213.37566840000363,213.37566840000363,213.39223769999808,213.67566510000324,213.67566510000324,213.67566510000324,,214.44349650000368,z,214.44392089999747,214.4594278000004,215.44363470000098,215.45998559999862,1.0569699999978184,None,,,,,,,,,,,,,,,,,,,,,,,,,,,,,,,,,,,,,,,,,,,,,,,,,,,,,,,,,,,,,,,,,,,,,,,,,,,,,,,,,,,,B_13,001,2024-11-30_11h44.07.012,untitled,2024.1.5,None,2024-11-30 11h44.21.858727 +0530,
triangle.png,stranger,1,M,,,,,,,,,8,2,34,1,,,,,,,,,215.45998559999862,,,,,,,,,,,,,,,,,,,,,,,,,,,,,,,,,,215.4439820999978,215.45998559999862,215.9435627999992,215.9435627999992,215.9435627999992,215.9435627999992,215.9603602999996,216.24373580000247,216.24373580000247,216.24373580000247,,216.978068299999,m,216.97850379999727,216.99398780000047,217.97848389999854,217.99475620000158,1.0207599999994272,None,,,,,,,,,,,,,,,,,,,,,,,,,,,,,,,,,,,,,,,,,,,,,,,,,,,,,,,,,,,,,,,,,,,,,,,,,,,,,,,,,,,,B_13,001,2024-11-30_11h44.07.012,untitled,2024.1.5,None,2024-11-30 11h44.21.858727 +0530,
triangle.png,you,0,Z,,,,,,,,,8,3,35,3,,,,,,,,,217.99475620000158,,,,,,,,,,,,,,,,,,,,,,,,,,,,,,,,,,217.97883410000213,217.99475620000158,218.47846019999997,218.47846019999997,218.47846019999997,218.47846019999997,218.49509820000094,218.77817910000158,218.77817910000158,218.77817910000158,,219.19573949999904,z,219.19618420000188,219.2118690999996,220.196005400001,220.21228320000228,0.7137786000021151,None,,,,,,,,,,,,,,,,,,,,,,,,,,,,,,,,,,,,,,,,,,,,,,,,,,,,,,,,,,,,,,,,,,,,,,,,,,,,,,,,,,,,B_13,001,2024-11-30_11h44.07.012,untitled,2024.1.5,None,2024-11-30 11h44.21.858727 +0530,
triangle.png,stranger,1,M,,,,,,,,,9,0,36,1,,,,,,,,,220.21228320000228,,,,,,,,,,,,,,,,,,,,,,,,,,,,,,,,,,220.19636170000012,220.21228320000228,220.69583180000336,220.69583180000336,220.69583180000336,220.69583180000336,220.71277389999887,220.99592040000425,220.99592040000425,220.99592040000425,,221.63046469999972,m,221.63089860000036,221.6463530999972,222.630713999999,222.6468900999971,0.9279936000020825,None,,,,,,,,,,,,,,,,,,,,,,,,,,,,,,,,,,,,,,,,,,,,,,,,,,,,,,,,,,,,,,,,,,,,,,,,,,,,,,,,,,,,B_13,001,2024-11-30_11h44.07.012,untitled,2024.1.5,None,2024-11-30 11h44.21.858727 +0530,
square.png,stranger,0,Z,,,,,,,,,9,1,37,2,,,,,,,,,222.6468900999971,,,,,,,,,,,,,,,,,,,,,,,,,,,,,,,,,,222.63106259999768,222.6468900999971,223.13078980000137,223.13078980000137,223.13078980000137,223.13078980000137,223.14730769999733,223.43056010000146,223.43056010000146,223.43056010000146,,223.98162140000204,z,223.9820613999982,223.99765599999955,224.98192389999895,224.99820709999767,0.8421262000047136,None,,,,,,,,,,,,,,,,,,,,,,,,,,,,,,,,,,,,,,,,,,,,,,,,,,,,,,,,,,,,,,,,,,,,,,,,,,,,,,,,,,,,B_13,001,2024-11-30_11h44.07.012,untitled,2024.1.5,None,2024-11-30 11h44.21.858727 +0530,
square.png,you,1,M,,,,,,,,,9,2,38,0,,,,,,,,,224.99820709999767,,,,,,,,,,,,,,,,,,,,,,,,,,,,,,,,,,224.98227720000432,224.99820709999767,225.481892900003,225.481892900003,225.481892900003,225.481892900003,225.49861149999924,225.7819146000038,225.7819146000038,225.7819146000038,,226.18271110000205,m,226.18314020000253,226.1988399999973,227.18300399999862,227.19922020000377,0.6948772999967332,None,,,,,,,,,,,,,,,,,,,,,,,,,,,,,,,,,,,,,,,,,,,,,,,,,,,,,,,,,,,,,,,,,,,,,,,,,,,,,,,,,,,,B_13,001,2024-11-30_11h44.07.012,untitled,2024.1.5,None,2024-11-30 11h44.21.858727 +0530,
triangle.png,you,0,Z,,,,,,,,,9,3,39,3,,,,,,,,,227.19922020000377,,,,,,,,,,,,,,,,,,,,,,,,,,,,,,,,,,227.1833633999995,227.19922020000377,227.68294959999912,227.68294959999912,227.68294959999912,227.68294959999912,227.6997341000024,227.98303899999883,227.98303899999883,227.98303899999883,,228.50046770000336,z,228.50089689999731,228.51673440000013,229.50088130000222,229.51717169999756,0.8162561999997706,None,,,,,,,,,,,,,,,,,,,,,,,,,,,,,,,,,,,,,,,,,,,,,,,,,,,,,,,,,,,,,,,,,,,,,,,,,,,,,,,,,,,,B_13,001,2024-11-30_11h44.07.012,untitled,2024.1.5,None,2024-11-30 11h44.21.858727 +0530,
triangle.png,stranger,1,M,,,,,,,,,10,0,40,1,,,,,,,,,229.51717169999756,,,,,,,,,,,,,,,,,,,,,,,,,,,,,,,,,,229.5012418999977,229.51717169999756,230.00102640000114,230.00102640000114,230.00102640000114,230.00102640000114,230.01753859999735,230.30079909999768,230.30079909999768,230.30079909999768,231.10136290000082,231.08490890000394,None,231.08509990000312,231.10136290000082,232.08566019999853,232.10198990000208,,,,,,,,,,,,,,,,,,,,,,,,,,,,,,,,,,,,,,,,,,,,,,,,,,,,,,,,,,,,,,,,,,,,,,,,,,,,,,,,,,,,,,B_13,001,2024-11-30_11h44.07.012,untitled,2024.1.5,None,2024-11-30 11h44.21.858727 +0530,
square.png,stranger,0,Z,,,,,,,,,10,1,41,2,,,,,,,,,232.10198990000208,,,,,,,,,,,,,,,,,,,,,,,,,,,,,,,,,,232.08602529999916,232.10198990000208,232.6023406000022,232.6023406000022,232.6023406000022,232.6023406000022,232.6023406000022,232.90228170000046,232.90228170000046,232.90228170000046,,233.53652480000164,z,233.53695850000076,233.55269360000239,234.53702969999722,234.5531736999983,0.9256004000053508,None,,,,,,,,,,,,,,,,,,,,,,,,,,,,,,,,,,,,,,,,,,,,,,,,,,,,,,,,,,,,,,,,,,,,,,,,,,,,,,,,,,,,B_13,001,2024-11-30_11h44.07.012,untitled,2024.1.5,None,2024-11-30 11h44.21.858727 +0530,
square.png,you,1,M,,,,,,,,,10,2,42,0,,,,,,,,,234.5531736999983,,,,,,,,,,,,,,,,,,,,,,,,,,,,,,,,,,234.5373849000025,234.5531736999983,235.03682169999956,235.03682169999956,235.03682169999956,235.03682169999956,235.05332690000068,235.33669720000034,235.33669720000034,235.33669720000034,,235.80445999999938,m,235.80487790000188,235.82050800000434,236.8045981000032,236.82098789999873,0.7599107999994885,None,,,,,,,,,,,,,,,,,,,,,,,,,,,,,,,,,,,,,,,,,,,,,,,,,,,,,,,,,,,,,,,,,,,,,,,,,,,,,,,,,,,,B_13,001,2024-11-30_11h44.07.012,untitled,2024.1.5,None,2024-11-30 11h44.21.858727 +0530,
triangle.png,you,0,Z,,,,,,,,,10,3,43,3,,,,,,,,,236.82098789999873,,,,,,,,,,,,,,,,,,,,,,,,,,,,,,,,,,236.80496049999783,236.82098789999873,237.30451310000353,237.30451310000353,237.30451310000353,237.30451310000353,237.32123510000383,237.60461339999893,237.60461339999893,237.60461339999893,,238.10542690000148,z,238.1058686000033,238.12141279999923,239.10598690000188,239.12198979999812,0.7996975999994902,None,,,,,,,,,,,,,,,,,,,,,,,,,,,,,,,,,,,,,,,,,,,,,,,,,,,,,,,,,,,,,,,,,,,,,,,,,,,,,,,,,,,,B_13,001,2024-11-30_11h44.07.012,untitled,2024.1.5,None,2024-11-30 11h44.21.858727 +0530,
square.png,you,1,M,,,,,,,,,11,0,44,0,,,,,,,,,239.12198979999812,,,,,,,,,,,,,,,,,,,,,,,,,,,,,,,,,,239.1063592999999,239.12198979999812,239.60599789999833,239.60599789999833,239.60599789999833,239.60599789999833,239.62257189999946,239.90575389999867,239.90575389999867,239.90575389999867,,240.32338460000028,m,240.32381670000177,240.3391597000009,241.3234403000024,241.33992070000386,0.7067747000037343,None,,,,,,,,,,,,,,,,,,,,,,,,,,,,,,,,,,,,,,,,,,,,,,,,,,,,,,,,,,,,,,,,,,,,,,,,,,,,,,,,,,,,B_13,001,2024-11-30_11h44.07.012,untitled,2024.1.5,None,2024-11-30 11h44.21.858727 +0530,
triangle.png,you,0,Z,,,,,,,,,11,1,45,3,,,,,,,,,241.33992070000386,,,,,,,,,,,,,,,,,,,,,,,,,,,,,,,,,,241.32379480000236,241.33992070000386,241.82347989999835,241.82347989999835,241.82347989999835,241.82347989999835,241.84029649999866,242.12371020000137,242.12371020000137,242.12371020000137,,242.6577318999989,z,242.65816140000243,242.67383549999795,243.65801320000173,243.6745271999971,0.8205860000016401,None,,,,,,,,,,,,,,,,,,,,,,,,,,,,,,,,,,,,,,,,,,,,,,,,,,,,,,,,,,,,,,,,,,,,,,,,,,,,,,,,,,,,B_13,001,2024-11-30_11h44.07.012,untitled,2024.1.5,None,2024-11-30 11h44.21.858727 +0530,
square.png,stranger,0,Z,,,,,,,,,11,2,46,2,,,,,,,,,243.6745271999971,,,,,,,,,,,,,,,,,,,,,,,,,,,,,,,,,,243.65836639999907,243.6745271999971,244.15804110000317,244.15804110000317,244.15804110000317,244.15804110000317,244.17473749999772,244.45807890000287,244.45807890000287,244.45807890000287,,244.95948370000406,z,244.9599092999997,244.9750419999982,245.95914389999962,245.97559410000395,0.7983537000036449,None,,,,,,,,,,,,,,,,,,,,,,,,,,,,,,,,,,,,,,,,,,,,,,,,,,,,,,,,,,,,,,,,,,,,,,,,,,,,,,,,,,,,B_13,001,2024-11-30_11h44.07.012,untitled,2024.1.5,None,2024-11-30 11h44.21.858727 +0530,
triangle.png,stranger,1,M,,,,,,,,,11,3,47,1,,,,,,,,,245.97559410000395,,,,,,,,,,,,,,,,,,,,,,,,,,,,,,,,,,245.95949880000262,245.97559410000395,246.45935660000396,246.45935660000396,246.45935660000396,246.45935660000396,246.47602519999782,246.75922189999983,246.75922189999983,246.75922189999983,,247.17694779999874,z,247.1773736000032,247.19284300000436,248.17696930000238,248.19358710000233,0.7078934000019217,None,,,,,,,,,,,,,,,,,,,,,,,,,,,,,,,,,,,,,,,,,,,,,,,,,,,,,,,,,,,,,,,,,,,,,,,,,,,,,,,,,,,,B_13,001,2024-11-30_11h44.07.012,untitled,2024.1.5,None,2024-11-30 11h44.21.858727 +0530,
square.png,stranger,0,Z,,,,,,,,,12,0,48,2,,,,,,,,,248.19358710000233,,,,,,,,,,,,,,,,,,,,,,,,,,,,,,,,,,248.17732680000336,248.19358710000233,248.67693080000026,248.67693080000026,248.67693080000026,248.67693080000026,248.6937842999978,248.976974600002,248.976974600002,248.976974600002,,249.7281210000001,z,249.72853829999804,249.74431439999898,250.72842639999726,250.74450459999935,1.0360558000029414,None,,,,,,,,,,,,,,,,,,,,,,,,,,,,,,,,,,,,,,,,,,,,,,,,,,,,,,,,,,,,,,,,,,,,,,,,,,,,,,,,,,,,B_13,001,2024-11-30_11h44.07.012,untitled,2024.1.5,None,2024-11-30 11h44.21.858727 +0530,
triangle.png,you,0,Z,,,,,,,,,12,1,49,3,,,,,,,,,250.74450459999935,,,,,,,,,,,,,,,,,,,,,,,,,,,,,,,,,,250.72880740000255,250.74450459999935,251.22848050000175,251.22848050000175,251.22848050000175,251.22848050000175,251.2448740999971,251.52818310000293,251.52818310000293,251.52818310000293,252.32883749999746,252.31241930000397,None,252.3126149000018,252.32883749999746,253.3130999999994,253.32944249999855,,,,,,,,,,,,,,,,,,,,,,,,,,,,,,,,,,,,,,,,,,,,,,,,,,,,,,,,,,,,,,,,,,,,,,,,,,,,,,,,,,,,,,B_13,001,2024-11-30_11h44.07.012,untitled,2024.1.5,None,2024-11-30 11h44.21.858727 +0530,
triangle.png,stranger,1,M,,,,,,,,,12,2,50,1,,,,,,,,,253.32944249999855,,,,,,,,,,,,,,,,,,,,,,,,,,,,,,,,,,253.31346080000367,253.32944249999855,253.82958920000237,253.82958920000237,253.82958920000237,253.82958920000237,253.82958920000237,254.12964769999962,254.12964769999962,254.12964769999962,254.93028369999956,254.9138499000037,None,254.91404460000194,254.93028369999956,255.9144845999981,255.93075449999742,,,,,,,,,,,,,,,,,,,,,,,,,,,,,,,,,,,,,,,,,,,,,,,,,,,,,,,,,,,,,,,,,,,,,,,,,,,,,,,,,,,,,,B_13,001,2024-11-30_11h44.07.012,untitled,2024.1.5,None,2024-11-30 11h44.21.858727 +0530,
square.png,you,1,M,,,,,,,,,12,3,51,0,,,,,,,,,255.93075449999742,,,,,,,,,,,,,,,,,,,,,,,,,,,,,,,,,,255.9148447999978,255.93075449999742,256.43091840000125,256.43091840000125,256.43091840000125,256.43091840000125,256.43091840000125,256.7310495999991,256.7310495999991,256.7310495999991,,257.2818847000017,m,257.2823141999979,257.2978691000026,258.2822562000001,258.29856380000274,0.8369450000027427,None,,,,,,,,,,,,,,,,,,,,,,,,,,,,,,,,,,,,,,,,,,,,,,,,,,,,,,,,,,,,,,,,,,,,,,,,,,,,,,,,,,,,B_13,001,2024-11-30_11h44.07.012,untitled,2024.1.5,None,2024-11-30 11h44.21.858727 +0530,
square.png,stranger,0,Z,,,,,,,,,13,0,52,2,,,,,,,,,258.29856380000274,,,,,,,,,,,,,,,,,,,,,,,,,,,,,,,,,,258.2826175000009,258.29856380000274,258.78216840000096,258.78216840000096,258.78216840000096,258.78216840000096,258.79897170000186,259.08231479999813,259.08231479999813,259.08231479999813,,259.5996737000023,z,259.6001153000034,259.61571240000194,260.60004379999737,260.6163893999983,0.8021985000013956,None,,,,,,,,,,,,,,,,,,,,,,,,,,,,,,,,,,,,,,,,,,,,,,,,,,,,,,,,,,,,,,,,,,,,,,,,,,,,,,,,,,,,B_13,001,2024-11-30_11h44.07.012,untitled,2024.1.5,None,2024-11-30 11h44.21.858727 +0530,
triangle.png,you,0,Z,,,,,,,,,13,1,53,3,,,,,,,,,260.6163893999983,,,,,,,,,,,,,,,,,,,,,,,,,,,,,,,,,,260.6003997000007,260.6163893999983,261.1000189999977,261.1000189999977,261.1000189999977,261.1000189999977,261.1167654000019,261.3999851999979,261.3999851999979,261.3999851999979,,261.9842396000022,z,261.9846757999985,262.0004833999992,262.9848506999988,263.00110629999836,0.8805751999971108,None,,,,,,,,,,,,,,,,,,,,,,,,,,,,,,,,,,,,,,,,,,,,,,,,,,,,,,,,,,,,,,,,,,,,,,,,,,,,,,,,,,,,B_13,001,2024-11-30_11h44.07.012,untitled,2024.1.5,None,2024-11-30 11h44.21.858727 +0530,
triangle.png,stranger,1,M,,,,,,,,,13,2,54,1,,,,,,,,,263.00110629999836,,,,,,,,,,,,,,,,,,,,,,,,,,,,,,,,,,262.9852025,263.00110629999836,263.4845551000035,263.4845551000035,263.4845551000035,263.4845551000035,263.50120400000014,263.7845660000021,263.7845660000021,263.7845660000021,264.58504659999744,264.5686510000014,None,264.5688403000022,264.58504659999744,265.5697375000018,265.5855873000037,,,,,,,,,,,,,,,,,,,,,,,,,,,,,,,,,,,,,,,,,,,,,,,,,,,,,,,,,,,,,,,,,,,,,,,,,,,,,,,,,,,,,,B_13,001,2024-11-30_11h44.07.012,untitled,2024.1.5,None,2024-11-30 11h44.21.858727 +0530,
square.png,you,1,M,,,,,,,,,13,3,55,0,,,,,,,,,265.5855873000037,,,,,,,,,,,,,,,,,,,,,,,,,,,,,,,,,,265.5700938000009,265.5855873000037,266.08609360000264,266.08609360000264,266.08609360000264,266.08609360000264,266.08609360000264,266.3858792000028,266.3858792000028,266.3858792000028,,266.73697679999896,m,266.7373990999986,266.75272869999753,267.73710890000075,267.7534964000006,0.6412592000051518,None,,,,,,,,,,,,,,,,,,,,,,,,,,,,,,,,,,,,,,,,,,,,,,,,,,,,,,,,,,,,,,,,,,,,,,,,,,,,,,,,,,,,B_13,001,2024-11-30_11h44.07.012,untitled,2024.1.5,None,2024-11-30 11h44.21.858727 +0530,
triangle.png,stranger,1,M,,,,,,,,,14,0,56,1,,,,,,,,,267.7534964000006,,,,,,,,,,,,,,,,,,,,,,,,,,,,,,,,,,267.73745800000324,267.7534964000006,268.23706169999787,268.23706169999787,268.23706169999787,268.23706169999787,268.2535352999985,268.53718030000164,268.53718030000164,268.53718030000164,269.3375567999974,269.3211156000034,None,269.32130860000325,269.3375567999974,270.32186470000306,270.33806200000254,,,,,,,,,,,,,,,,,,,,,,,,,,,,,,,,,,,,,,,,,,,,,,,,,,,,,,,,,,,,,,,,,,,,,,,,,,,,,,,,,,,,,,B_13,001,2024-11-30_11h44.07.012,untitled,2024.1.5,None,2024-11-30 11h44.21.858727 +0530,
triangle.png,you,0,Z,,,,,,,,,14,1,57,3,,,,,,,,,270.33806200000254,,,,,,,,,,,,,,,,,,,,,,,,,,,,,,,,,,270.3222229000021,270.33806200000254,270.8383943000008,270.8383943000008,270.8383943000008,270.8383943000008,270.8383943000008,271.1385859000002,271.1385859000002,271.1385859000002,,271.77284370000416,z,271.77326529999846,271.7890112000023,272.7730926000004,272.78913119999925,0.9287753999960842,None,,,,,,,,,,,,,,,,,,,,,,,,,,,,,,,,,,,,,,,,,,,,,,,,,,,,,,,,,,,,,,,,,,,,,,,,,,,,,,,,,,,,B_13,001,2024-11-30_11h44.07.012,untitled,2024.1.5,None,2024-11-30 11h44.21.858727 +0530,
square.png,you,1,M,,,,,,,,,14,2,58,0,,,,,,,,,272.78913119999925,,,,,,,,,,,,,,,,,,,,,,,,,,,,,,,,,,272.7734513000032,272.78913119999925,273.2730045999997,273.2730045999997,273.2730045999997,273.2730045999997,273.28970010000194,273.5729059000005,273.5729059000005,273.5729059000005,,274.04061750000255,m,274.04107340000337,274.0564669000014,275.0410383999988,275.0571196000019,0.7540220000009867,None,,,,,,,,,,,,,,,,,,,,,,,,,,,,,,,,,,,,,,,,,,,,,,,,,,,,,,,,,,,,,,,,,,,,,,,,,,,,,,,,,,,,B_13,001,2024-11-30_11h44.07.012,untitled,2024.1.5,None,2024-11-30 11h44.21.858727 +0530,
square.png,stranger,0,Z,,,,,,,,,14,3,59,2,,,,,,,,,275.0571196000019,,,,,,,,,,,,,,,,,,,,,,,,,,,,,,,,,,275.0413879999978,275.0571196000019,275.54102460000286,275.54102460000286,275.54102460000286,275.54102460000286,275.5573435999977,275.84077470000193,275.84077470000193,275.84077470000193,276.6412380000038,276.6247982999994,None,276.62499399999797,276.6412380000038,277.6254939999999,277.6415572000042,,,,,,,,,,,,,,,,,,,,,,,,,,,,,,,,,,,,,,,,,,,,,,,,,,,,,,,,,,,,,,,,,,,,,,,,,,,,,,,,,,,,,,B_13,001,2024-11-30_11h44.07.012,untitled,2024.1.5,None,2024-11-30 11h44.21.858727 +0530,
triangle.png,stranger,1,M,,,,,,,,,15,0,60,1,,,,,,,,,277.6415572000042,,,,,,,,,,,,,,,,,,,,,,,,,,,,,,,,,,277.62585019999824,277.6415572000042,278.1420756000007,278.1420756000007,278.1420756000007,278.1420756000007,278.1420756000007,278.44204270000046,278.44204270000046,278.44204270000046,,279.0100844999979,m,279.0105065000025,279.02591720000055,280.0101668999996,280.0263808000018,0.8626030999948853,None,,,,,,,,,,,,,,,,,,,,,,,,,,,,,,,,,,,,,,,,,,,,,,,,,,,,,,,,,,,,,,,,,,,,,,,,,,,,,,,,,,,,B_13,001,2024-11-30_11h44.07.012,untitled,2024.1.5,None,2024-11-30 11h44.21.858727 +0530,
triangle.png,you,0,Z,,,,,,,,,15,1,61,3,,,,,,,,,280.0263808000018,,,,,,,,,,,,,,,,,,,,,,,,,,,,,,,,,,280.01052309999795,280.0263808000018,280.5101366000017,280.5101366000017,280.5101366000017,280.5101366000017,280.5268117000014,280.8099771999987,280.8099771999987,280.8099771999987,,281.2609255999996,z,281.26135610000347,281.27673309999955,282.2612611000004,282.2774456000043,0.7372888999962015,None,,,,,,,,,,,,,,,,,,,,,,,,,,,,,,,,,,,,,,,,,,,,,,,,,,,,,,,,,,,,,,,,,,,,,,,,,,,,,,,,,,,,B_13,001,2024-11-30_11h44.07.012,untitled,2024.1.5,None,2024-11-30 11h44.21.858727 +0530,
square.png,stranger,0,Z,,,,,,,,,15,2,62,2,,,,,,,,,282.2774456000043,,,,,,,,,,,,,,,,,,,,,,,,,,,,,,,,,,282.26161570000113,282.2774456000043,282.7610380999977,282.7610380999977,282.7610380999977,282.7610380999977,282.777937400002,283.06103989999974,283.06103989999974,283.06103989999974,283.8614929000032,283.8452741000001,None,283.8454688999991,283.8614929000032,284.8458496000021,284.8621509000004,,,,,,,,,,,,,,,,,,,,,,,,,,,,,,,,,,,,,,,,,,,,,,,,,,,,,,,,,,,,,,,,,,,,,,,,,,,,,,,,,,,,,,B_13,001,2024-11-30_11h44.07.012,untitled,2024.1.5,None,2024-11-30 11h44.21.858727 +0530,
square.png,you,1,M,,,,,,,,,15,3,63,0,,,,,,,,,284.8621509000004,,,,,,,,,,,,,,,,,,,,,,,,,,,,,,,,,,284.8462099000026,284.8621509000004,285.36231370000314,285.36231370000314,285.36231370000314,285.36231370000314,285.36231370000314,285.66242639999837,285.66242639999837,285.66242639999837,,286.0301021999985,m,286.03053660000296,286.0460282999993,287.03017589999945,287.04639699999825,0.666616199996497,None,,,,,,,,,,,,,,,,,,,,,,,,,,,,,,,,,,,,,,,,,,,,,,,,,,,,,,,,,,,,,,,,,,,,,,,,,,,,,,,,,,,,B_13,001,2024-11-30_11h44.07.012,untitled,2024.1.5,None,2024-11-30 11h44.21.858727 +0530,
triangle.png,you,0,Z,,,,,,,,,16,0,64,3,,,,,,,,,287.04639699999825,,,,,,,,,,,,,,,,,,,,,,,,,,,,,,,,,,287.0305378999983,287.04639699999825,287.5301299999992,287.5301299999992,287.5301299999992,287.5301299999992,287.54686899999797,287.8302668000033,287.8302668000033,287.8302668000033,,288.23123920000216,z,288.23167300000205,288.2472560000024,289.2313613000006,289.24748779999936,0.6981375000032131,None,,,,,,,,,,,,,,,,,,,,,,,,,,,,,,,,,,,,,,,,,,,,,,,,,,,,,,,,,,,,,,,,,,,,,,,,,,,,,,,,,,,,B_13,001,2024-11-30_11h44.07.012,untitled,2024.1.5,None,2024-11-30 11h44.21.858727 +0530,
square.png,you,1,M,,,,,,,,,16,1,65,0,,,,,,,,,289.24748779999936,,,,,,,,,,,,,,,,,,,,,,,,,,,,,,,,,,289.23171680000087,289.24748779999936,289.7315469000023,289.7315469000023,289.7315469000023,289.7315469000023,289.74818880000385,290.03129590000026,290.03129590000026,290.03129590000026,,290.43217300000106,m,290.43260320000263,290.4482371999984,291.43237590000354,291.4487405999971,0.6888560000006692,None,,,,,,,,,,,,,,,,,,,,,,,,,,,,,,,,,,,,,,,,,,,,,,,,,,,,,,,,,,,,,,,,,,,,,,,,,,,,,,,,,,,,B_13,001,2024-11-30_11h44.07.012,untitled,2024.1.5,None,2024-11-30 11h44.21.858727 +0530,
square.png,stranger,0,Z,,,,,,,,,16,2,66,2,,,,,,,,,291.4487405999971,,,,,,,,,,,,,,,,,,,,,,,,,,,,,,,,,,291.4327434000006,291.4487405999971,291.9326865000039,291.9326865000039,291.9326865000039,291.9326865000039,291.94923859999835,292.2324698000011,292.2324698000011,292.2324698000011,,292.7502945000015,z,292.7507276000033,292.766054300002,293.75033540000004,293.7667522999982,0.8154110999967088,None,,,,,,,,,,,,,,,,,,,,,,,,,,,,,,,,,,,,,,,,,,,,,,,,,,,,,,,,,,,,,,,,,,,,,,,,,,,,,,,,,,,,B_13,001,2024-11-30_11h44.07.012,untitled,2024.1.5,None,2024-11-30 11h44.21.858727 +0530,
triangle.png,stranger,1,M,,,,,,,,,16,3,67,1,,,,,,,,,293.7667522999982,,,,,,,,,,,,,,,,,,,,,,,,,,,,,,,,,,293.75069030000304,293.7667522999982,294.250420700002,294.250420700002,294.250420700002,294.250420700002,294.2670083999983,294.55035900000075,294.55035900000075,294.55035900000075,,295.06816490000347,m,295.068589100003,295.08409470000333,296.06804869999905,296.08454650000203,0.8094397000022582,None,,,,,,,,,,,,,,,,,,,,,,,,,,,,,,,,,,,,,,,,,,,,,,,,,,,,,,,,,,,,,,,,,,,,,,,,,,,,,,,,,,,,B_13,001,2024-11-30_11h44.07.012,untitled,2024.1.5,None,2024-11-30 11h44.21.858727 +0530,
square.png,you,1,M,,,,,,,,,17,0,68,0,,,,,,,,,296.08454650000203,,,,,,,,,,,,,,,,,,,,,,,,,,,,,,,,,,296.06840779999766,296.08454650000203,296.5680192,296.5680192,296.5680192,296.5680192,296.5846673999986,296.86812510000163,296.86812510000163,296.86812510000163,,297.26911429999745,m,297.26955360000284,297.28495880000264,298.2694696000035,298.28561479999917,0.6921892999962438,None,,,,,,,,,,,,,,,,,,,,,,,,,,,,,,,,,,,,,,,,,,,,,,,,,,,,,,,,,,,,,,,,,,,,,,,,,,,,,,,,,,,,B_13,001,2024-11-30_11h44.07.012,untitled,2024.1.5,None,2024-11-30 11h44.21.858727 +0530,
square.png,stranger,0,Z,,,,,,,,,17,1,69,2,,,,,,,,,298.28561479999917,,,,,,,,,,,,,,,,,,,,,,,,,,,,,,,,,,298.26982809999754,298.28561479999917,298.76934540000366,298.76934540000366,298.76934540000366,298.76934540000366,298.78597309999896,299.0693384000042,299.0693384000042,299.0693384000042,,299.57032820000313,z,299.57075720000284,299.586189200003,300.5705911999976,300.58669960000407,0.7897738999963622,None,,,,,,,,,,,,,,,,,,,,,,,,,,,,,,,,,,,,,,,,,,,,,,,,,,,,,,,,,,,,,,,,,,,,,,,,,,,,,,,,,,,,B_13,001,2024-11-30_11h44.07.012,untitled,2024.1.5,None,2024-11-30 11h44.21.858727 +0530,
triangle.png,stranger,1,M,,,,,,,,,17,2,70,1,,,,,,,,,300.58669960000407,,,,,,,,,,,,,,,,,,,,,,,,,,,,,,,,,,300.57095480000135,300.58669960000407,301.07055440000113,301.07055440000113,301.07055440000113,301.07055440000113,301.08707680000225,301.37061150000227,301.37061150000227,301.37061150000227,,302.071706499999,m,302.072138800002,302.0876212000003,303.0717253999974,303.0881481000033,0.9939610000001267,None,,,,,,,,,,,,,,,,,,,,,,,,,,,,,,,,,,,,,,,,,,,,,,,,,,,,,,,,,,,,,,,,,,,,,,,,,,,,,,,,,,,,B_13,001,2024-11-30_11h44.07.012,untitled,2024.1.5,None,2024-11-30 11h44.21.858727 +0530,
triangle.png,you,0,Z,,,,,,,,,17,3,71,3,,,,,,,,,303.0881481000033,,,,,,,,,,,,,,,,,,,,,,,,,,,,,,,,,,303.0720824000018,303.0881481000033,303.5717122999995,303.5717122999995,303.5717122999995,303.5717122999995,303.58855700000277,303.87170139999944,303.87170139999944,303.87170139999944,,304.4896966000015,z,304.4901159000001,304.50571550000313,305.4897162999987,305.50608680000005,0.9074402999976883,None,,,,,,,,,,,,,,,,,,,,,,,,,,,,,,,,,,,,,,,,,,,,,,,,,,,,,,,,,,,,,,,,,,,,,,,,,,,,,,,,,,,,B_13,001,2024-11-30_11h44.07.012,untitled,2024.1.5,None,2024-11-30 11h44.21.858727 +0530,
triangle.png,stranger,1,M,,,,,,,,,18,0,72,1,,,,,,,,,305.50608680000005,,,,,,,,,,,,,,,,,,,,,,,,,,,,,,,,,,305.49007659999916,305.50608680000005,305.98977690000174,305.98977690000174,305.98977690000174,305.98977690000174,306.00618699999904,306.2896987999993,306.2896987999993,306.2896987999993,,306.90720149999834,m,306.90764070000296,306.9233946000022,307.9075939000031,307.923890500002,0.9106517000036547,None,,,,,,,,,,,,,,,,,,,,,,,,,,,,,,,,,,,,,,,,,,,,,,,,,,,,,,,,,,,,,,,,,,,,,,,,,,,,,,,,,,,,B_13,001,2024-11-30_11h44.07.012,untitled,2024.1.5,None,2024-11-30 11h44.21.858727 +0530,
square.png,stranger,0,Z,,,,,,,,,18,1,73,2,,,,,,,,,307.923890500002,,,,,,,,,,,,,,,,,,,,,,,,,,,,,,,,,,307.9079472000012,307.923890500002,308.40767980000237,308.40767980000237,308.40767980000237,308.40767980000237,308.42409190000035,308.70773519999784,308.70773519999784,308.70773519999784,,309.2751866000035,z,309.27561589999823,309.2911394000039,310.2753048000013,310.29167649999727,0.8645698999971501,None,,,,,,,,,,,,,,,,,,,,,,,,,,,,,,,,,,,,,,,,,,,,,,,,,,,,,,,,,,,,,,,,,,,,,,,,,,,,,,,,,,,,B_13,001,2024-11-30_11h44.07.012,untitled,2024.1.5,None,2024-11-30 11h44.21.858727 +0530,
square.png,you,1,M,,,,,,,,,18,2,74,0,,,,,,,,,310.29167649999727,,,,,,,,,,,,,,,,,,,,,,,,,,,,,,,,,,310.2756606999974,310.29167649999727,310.77543429999787,310.77543429999787,310.77543429999787,310.77543429999787,310.7921054000035,311.0753129000004,311.0753129000004,311.0753129000004,,311.47647080000024,m,311.476891600003,311.49244880000333,312.4766349999991,312.4929996999999,0.6889487000007648,None,,,,,,,,,,,,,,,,,,,,,,,,,,,,,,,,,,,,,,,,,,,,,,,,,,,,,,,,,,,,,,,,,,,,,,,,,,,,,,,,,,,,B_13,001,2024-11-30_11h44.07.012,untitled,2024.1.5,None,2024-11-30 11h44.21.858727 +0530,
triangle.png,you,0,Z,,,,,,,,,18,3,75,3,,,,,,,,,312.4929996999999,,,,,,,,,,,,,,,,,,,,,,,,,,,,,,,,,,312.4769852000027,312.4929996999999,312.97672690000036,312.97672690000036,312.97672690000036,312.97672690000036,312.99344360000396,313.27667069999734,313.27667069999734,313.27667069999734,,314.0276064999998,z,314.0280339000019,314.04353699999774,315.02789080000366,315.0439958999996,1.0392913999967277,None,,,,,,,,,,,,,,,,,,,,,,,,,,,,,,,,,,,,,,,,,,,,,,,,,,,,,,,,,,,,,,,,,,,,,,,,,,,,,,,,,,,,B_13,001,2024-11-30_11h44.07.012,untitled,2024.1.5,None,2024-11-30 11h44.21.858727 +0530,
triangle.png,stranger,1,M,,,,,,,,,19,0,76,1,,,,,,,,,315.0439958999996,,,,,,,,,,,,,,,,,,,,,,,,,,,,,,,,,,315.0282482000039,315.0439958999996,315.5280707999991,315.5280707999991,315.5280707999991,315.5280707999991,315.5443777000037,315.8279610000027,315.8279610000027,315.8279610000027,,316.42889170000126,m,316.4293120000002,316.4450427999982,317.42922420000104,317.44535039999755,0.8871475999985705,None,,,,,,,,,,,,,,,,,,,,,,,,,,,,,,,,,,,,,,,,,,,,,,,,,,,,,,,,,,,,,,,,,,,,,,,,,,,,,,,,,,,,B_13,001,2024-11-30_11h44.07.012,untitled,2024.1.5,None,2024-11-30 11h44.21.858727 +0530,
square.png,you,1,M,,,,,,,,,19,1,77,0,,,,,,,,,317.44535039999755,,,,,,,,,,,,,,,,,,,,,,,,,,,,,,,,,,317.42957549999846,317.44535039999755,317.92937569999776,317.92937569999776,317.92937569999776,317.92937569999776,317.9454831999974,318.22895260000223,318.22895260000223,318.22895260000223,,318.6967625000034,m,318.697193699998,318.71253330000036,319.6971335999988,319.7133563000025,0.7661742999989656,None,,,,,,,,,,,,,,,,,,,,,,,,,,,,,,,,,,,,,,,,,,,,,,,,,,,,,,,,,,,,,,,,,,,,,,,,,,,,,,,,,,,,B_13,001,2024-11-30_11h44.07.012,untitled,2024.1.5,None,2024-11-30 11h44.21.858727 +0530,
square.png,stranger,0,Z,,,,,,,,,19,2,78,2,,,,,,,,,319.7133563000025,,,,,,,,,,,,,,,,,,,,,,,,,,,,,,,,,,319.6975001000028,319.7133563000025,320.19705260000046,320.19705260000046,320.19705260000046,320.19705260000046,320.2136294000011,320.4970117999983,320.4970117999983,320.4970117999983,,321.1647202000022,z,321.16514740000275,321.18054069999926,322.1648153999995,322.1812151999984,0.9520438999970793,None,,,,,,,,,,,,,,,,,,,,,,,,,,,,,,,,,,,,,,,,,,,,,,,,,,,,,,,,,,,,,,,,,,,,,,,,,,,,,,,,,,,,B_13,001,2024-11-30_11h44.07.012,untitled,2024.1.5,None,2024-11-30 11h44.21.858727 +0530,
triangle.png,you,0,Z,,,,,,,,,19,3,79,3,,,,,,,,,322.1812151999984,,,,,,,,,,,,,,,,,,,,,,,,,,,,,,,,,,322.1651748000004,322.1812151999984,322.66482990000077,322.66482990000077,322.66482990000077,322.66482990000077,322.6815274000037,322.9646589999975,322.9646589999975,322.9646589999975,,323.51598119999835,z,323.51640580000094,323.53195530000085,324.51614600000175,324.5322649000009,0.8434048000053735,None,,,,,,,,,,,,,,,,,,,,,,,,,,,,,,,,,,,,,,,,,,,,,,,,,,,,,,,,,,,,,,,,,,,,,,,,,,,,,,,,,,,,B_13,001,2024-11-30_11h44.07.012,untitled,2024.1.5,None,2024-11-30 11h44.21.858727 +0530,
square.png,you,1,M,,,,,,,,,20,0,80,0,,,,,,,,,324.5322649000009,,,,,,,,,,,,,,,,,,,,,,,,,,,,,,,,,,324.51650560000417,324.5322649000009,325.0160795999982,325.0160795999982,325.0160795999982,325.0160795999982,325.03251009999804,325.31618329999765,325.31618329999765,325.31618329999765,,325.7502131000001,m,325.75064869999915,325.7662533000039,326.7505633000037,326.7667870000005,0.7238798000034876,None,,,,,,,,,,,,,,,,,,,,,,,,,,,,,,,,,,,,,,,,,,,,,,,,,,,,,,,,,,,,,,,,,,,,,,,,,,,,,,,,,,,,B_13,001,2024-11-30_11h44.07.012,untitled,2024.1.5,None,2024-11-30 11h44.21.858727 +0530,
triangle.png,you,0,Z,,,,,,,,,20,1,81,3,,,,,,,,,326.7667870000005,,,,,,,,,,,,,,,,,,,,,,,,,,,,,,,,,,326.7509169000041,326.7667870000005,327.250632700001,327.250632700001,327.250632700001,327.250632700001,327.2672606999986,327.55070500000147,327.55070500000147,327.55070500000147,,328.0348615999974,z,328.03529210000124,328.05087160000403,329.0349145,329.05114630000025,0.7775578000000678,None,,,,,,,,,,,,,,,,,,,,,,,,,,,,,,,,,,,,,,,,,,,,,,,,,,,,,,,,,,,,,,,,,,,,,,,,,,,,,,,,,,,,B_13,001,2024-11-30_11h44.07.012,untitled,2024.1.5,None,2024-11-30 11h44.21.858727 +0530,
square.png,stranger,0,Z,,,,,,,,,20,2,82,2,,,,,,,,,329.05114630000025,,,,,,,,,,,,,,,,,,,,,,,,,,,,,,,,,,329.0352684000027,329.05114630000025,329.53513860000385,329.53513860000385,329.53513860000385,329.53513860000385,329.55151489999844,329.83519279999746,329.83519279999746,329.83519279999746,,330.3026444999996,z,330.30307780000294,330.3186146000007,331.3027415000033,331.31917819999944,0.7528860000020359,None,,,,,,,,,,,,,,,,,,,,,,,,,,,,,,,,,,,,,,,,,,,,,,,,,,,,,,,,,,,,,,,,,,,,,,,,,,,,,,,,,,,,B_13,001,2024-11-30_11h44.07.012,untitled,2024.1.5,None,2024-11-30 11h44.21.858727 +0530,
triangle.png,stranger,1,M,,,,,,,,,20,3,83,1,,,,,,,,,331.31917819999944,,,,,,,,,,,,,,,,,,,,,,,,,,,,,,,,,,331.3030977000017,331.31917819999944,331.8027374000012,331.8027374000012,331.8027374000012,331.8027374000012,331.81960640000034,332.1029772999973,332.1029772999973,332.1029772999973,,332.53704039999866,m,332.53746200000023,332.5532347999979,333.5373069999987,333.5535799999998,0.7255962000053842,None,,,,,,,,,,,,,,,,,,,,,,,,,,,,,,,,,,,,,,,,,,,,,,,,,,,,,,,,,,,,,,,,,,,,,,,,,,,,,,,,,,,,B_13,001,2024-11-30_11h44.07.012,untitled,2024.1.5,None,2024-11-30 11h44.21.858727 +0530,
triangle.png,you,0,Z,,,,,,,,,21,0,84,3,,,,,,,,,333.5535799999998,,,,,,,,,,,,,,,,,,,,,,,,,,,,,,,,,,333.53765980000026,333.5535799999998,334.0373851999975,334.0373851999975,334.0373851999975,334.0373851999975,334.05390400000033,334.33738090000406,334.33738090000406,334.33738090000406,,334.7215283999976,z,334.72196010000334,334.73775000000023,335.7217798999991,335.7380744000038,0.6744858000020031,None,,,,,,,,,,,,,,,,,,,,,,,,,,,,,,,,,,,,,,,,,,,,,,,,,,,,,,,,,,,,,,,,,,,,,,,,,,,,,,,,,,,,B_13,001,2024-11-30_11h44.07.012,untitled,2024.1.5,None,2024-11-30 11h44.21.858727 +0530,
square.png,stranger,0,Z,,,,,,,,,21,1,85,2,,,,,,,,,335.7380744000038,,,,,,,,,,,,,,,,,,,,,,,,,,,,,,,,,,335.72213360000023,335.7380744000038,336.2217213999975,336.2217213999975,336.2217213999975,336.2217213999975,336.23834660000284,336.5218096000026,336.5218096000026,336.5218096000026,,337.1229222999973,z,337.12338550000277,337.1389253000016,338.12292410000373,338.1394145000013,0.8985542000009445,None,,,,,,,,,,,,,,,,,,,,,,,,,,,,,,,,,,,,,,,,,,,,,,,,,,,,,,,,,,,,,,,,,,,,,,,,,,,,,,,,,,,,B_13,001,2024-11-30_11h44.07.012,untitled,2024.1.5,None,2024-11-30 11h44.21.858727 +0530,
triangle.png,stranger,1,M,,,,,,,,,21,2,86,1,,,,,,,,,338.1394145000013,,,,,,,,,,,,,,,,,,,,,,,,,,,,,,,,,,338.1232850000015,338.1394145000013,338.62289930000406,338.62289930000406,338.62289930000406,338.62289930000406,338.63953870000114,338.92287750000105,338.92287750000105,338.92287750000105,,339.6241907000003,m,339.6246167999998,339.6400017999986,340.6243921999994,340.6407418000017,0.9847155000024941,None,,,,,,,,,,,,,,,,,,,,,,,,,,,,,,,,,,,,,,,,,,,,,,,,,,,,,,,,,,,,,,,,,,,,,,,,,,,,,,,,,,,,B_13,001,2024-11-30_11h44.07.012,untitled,2024.1.5,None,2024-11-30 11h44.21.858727 +0530,
square.png,you,1,M,,,,,,,,,21,3,87,0,,,,,,,,,340.6407418000017,,,,,,,,,,,,,,,,,,,,,,,,,,,,,,,,,,340.62474310000107,340.6407418000017,341.12430940000195,341.12430940000195,341.12430940000195,341.12430940000195,341.141034500004,341.42425920000096,341.42425920000096,341.42425920000096,,341.9086485000007,m,341.9090712000034,341.9244866000008,342.9090937000001,342.92523059999803,0.7677765999978874,None,,,,,,,,,,,,,,,,,,,,,,,,,,,,,,,,,,,,,,,,,,,,,,,,,,,,,,,,,,,,,,,,,,,,,,,,,,,,,,,,,,,,B_13,001,2024-11-30_11h44.07.012,untitled,2024.1.5,None,2024-11-30 11h44.21.858727 +0530,
square.png,stranger,0,Z,,,,,,,,,22,0,88,2,,,,,,,,,342.92523059999803,,,,,,,,,,,,,,,,,,,,,,,,,,,,,,,,,,342.90944399999717,342.92523059999803,343.4087326000008,343.4087326000008,343.4087326000008,343.4087326000008,343.42554969999765,343.70887760000187,343.70887760000187,343.70887760000187,,344.25974750000023,z,344.26018090000434,344.27581250000367,345.2601006000041,345.2761477000022,0.8357823000042117,None,,,,,,,,,,,,,,,,,,,,,,,,,,,,,,,,,,,,,,,,,,,,,,,,,,,,,,,,,,,,,,,,,,,,,,,,,,,,,,,,,,,,B_13,001,2024-11-30_11h44.07.012,untitled,2024.1.5,None,2024-11-30 11h44.21.858727 +0530,
square.png,you,1,M,,,,,,,,,22,1,89,0,,,,,,,,,345.2761477000022,,,,,,,,,,,,,,,,,,,,,,,,,,,,,,,,,,345.2604613000003,345.2761477000022,345.76000280000153,345.76000280000153,345.76000280000153,345.76000280000153,345.77647140000045,346.0600594999996,346.0600594999996,346.0600594999996,,346.4445265000031,m,346.4449509999977,346.4601591000028,347.4440988999995,347.46048310000333,0.6708253999968292,None,,,,,,,,,,,,,,,,,,,,,,,,,,,,,,,,,,,,,,,,,,,,,,,,,,,,,,,,,,,,,,,,,,,,,,,,,,,,,,,,,,,,B_13,001,2024-11-30_11h44.07.012,untitled,2024.1.5,None,2024-11-30 11h44.21.858727 +0530,
triangle.png,stranger,1,M,,,,,,,,,22,2,90,1,,,,,,,,,347.46048310000333,,,,,,,,,,,,,,,,,,,,,,,,,,,,,,,,,,347.4444624000025,347.46048310000333,347.94431859999895,347.94431859999895,347.94431859999895,347.94431859999895,347.9610035000005,348.24453390000417,348.24453390000417,348.24453390000417,,348.82880640000076,z,348.8292405000029,348.8447070999973,349.8290459999989,349.84515459999966,0.8800845000005211,None,,,,,,,,,,,,,,,,,,,,,,,,,,,,,,,,,,,,,,,,,,,,,,,,,,,,,,,,,,,,,,,,,,,,,,,,,,,,,,,,,,,,B_13,001,2024-11-30_11h44.07.012,untitled,2024.1.5,None,2024-11-30 11h44.21.858727 +0530,
triangle.png,you,0,Z,,,,,,,,,22,3,91,3,,,,,,,,,349.84515459999966,,,,,,,,,,,,,,,,,,,,,,,,,,,,,,,,,,349.8294021000038,349.84515459999966,350.32888690000254,350.32888690000254,350.32888690000254,350.32888690000254,350.3456781999994,350.62880900000164,350.62880900000164,350.62880900000164,,351.0799831999975,z,351.0804158000028,351.0960247999974,352.0802937999979,352.09655190000194,0.7393057000008412,None,,,,,,,,,,,,,,,,,,,,,,,,,,,,,,,,,,,,,,,,,,,,,,,,,,,,,,,,,,,,,,,,,,,,,,,,,,,,,,,,,,,,B_13,001,2024-11-30_11h44.07.012,untitled,2024.1.5,None,2024-11-30 11h44.21.858727 +0530,
triangle.png,stranger,1,M,,,,,,,,,23,0,92,1,,,,,,,,,352.09655190000194,,,,,,,,,,,,,,,,,,,,,,,,,,,,,,,,,,352.08064829999785,352.09655190000194,352.58009100000345,352.58009100000345,352.58009100000345,352.58009100000345,352.5968294999984,352.8803095999974,352.8803095999974,352.8803095999974,353.6808222000036,353.66458099999727,None,353.6647693999985,353.6808222000036,354.66483100000187,354.68094610000117,,,,,,,,,,,,,,,,,,,,,,,,,,,,,,,,,,,,,,,,,,,,,,,,,,,,,,,,,,,,,,,,,,,,,,,,,,,,,,,,,,,,,,B_13,001,2024-11-30_11h44.07.012,untitled,2024.1.5,None,2024-11-30 11h44.21.858727 +0530,
square.png,stranger,0,Z,,,,,,,,,23,1,93,2,,,,,,,,,354.68094610000117,,,,,,,,,,,,,,,,,,,,,,,,,,,,,,,,,,354.66518930000166,354.68094610000117,355.1815526999999,355.1815526999999,355.1815526999999,355.1815526999999,355.1815526999999,355.48150980000355,355.48150980000355,355.48150980000355,,355.882451999998,z,355.88287290000153,355.89831299999787,356.8828345000002,356.8991740999991,0.6986213999989559,None,,,,,,,,,,,,,,,,,,,,,,,,,,,,,,,,,,,,,,,,,,,,,,,,,,,,,,,,,,,,,,,,,,,,,,,,,,,,,,,,,,,,B_13,001,2024-11-30_11h44.07.012,untitled,2024.1.5,None,2024-11-30 11h44.21.858727 +0530,
triangle.png,you,0,Z,,,,,,,,,23,2,94,3,,,,,,,,,356.8991740999991,,,,,,,,,,,,,,,,,,,,,,,,,,,,,,,,,,356.88323160000436,356.8991740999991,357.3827098999973,357.3827098999973,357.3827098999973,357.3827098999973,357.399393300002,357.68280660000164,357.68280660000164,357.68280660000164,,358.2334966999988,z,358.23393809999834,358.24972060000437,359.23382950000087,359.2499072999999,0.8369457000007969,None,,,,,,,,,,,,,,,,,,,,,,,,,,,,,,,,,,,,,,,,,,,,,,,,,,,,,,,,,,,,,,,,,,,,,,,,,,,,,,,,,,,,B_13,001,2024-11-30_11h44.07.012,untitled,2024.1.5,None,2024-11-30 11h44.21.858727 +0530,
square.png,you,1,M,,,,,,,,,23,3,95,0,,,,,,,,,359.2499072999999,,,,,,,,,,,,,,,,,,,,,,,,,,,,,,,,,,359.2341912999982,359.2499072999999,359.73382310000306,359.73382310000306,359.73382310000306,359.73382310000306,359.75022680000257,360.03368720000435,360.03368720000435,360.03368720000435,,360.4682098999983,m,360.46865889999754,360.4840028000035,361.4683318000025,361.48443090000364,0.7218361999985063,None,,,,,,,,,,,,,,,,,,,,,,,,,,,,,,,,,,,,,,,,,,,,,,,,,,,,,,,,,,,,,,,,,,,,,,,,,,,,,,,,,,,,B_13,001,2024-11-30_11h44.07.012,untitled,2024.1.5,None,2024-11-30 11h44.21.858727 +0530,
triangle.png,you,0,Z,,,,,,,,,24,0,96,3,,,,,,,,,361.48443090000364,,,,,,,,,,,,,,,,,,,,,,,,,,,,,,,,,,361.46868930000346,361.48443090000364,361.96831360000215,361.96831360000215,361.96831360000215,361.96831360000215,361.9849258000031,362.26831669999956,362.26831669999956,362.26831669999956,,362.93586869999854,z,362.9362919999985,362.95203369999945,363.9363774000012,363.95261620000383,0.9558642999982112,None,,,,,,,,,,,,,,,,,,,,,,,,,,,,,,,,,,,,,,,,,,,,,,,,,,,,,,,,,,,,,,,,,,,,,,,,,,,,,,,,,,,,B_13,001,2024-11-30_11h44.07.012,untitled,2024.1.5,None,2024-11-30 11h44.21.858727 +0530,
triangle.png,stranger,1,M,,,,,,,,,24,1,97,1,,,,,,,,,363.95261620000383,,,,,,,,,,,,,,,,,,,,,,,,,,,,,,,,,,363.9367284999971,363.95261620000383,364.4360966000022,364.4360966000022,364.4360966000022,364.4360966000022,364.45291500000167,364.73619589999726,364.73619589999726,364.73619589999726,,365.40406670000084,m,365.40449819999776,365.4199426999985,366.4040900999971,366.42047119999916,0.9597281999958795,None,,,,,,,,,,,,,,,,,,,,,,,,,,,,,,,,,,,,,,,,,,,,,,,,,,,,,,,,,,,,,,,,,,,,,,,,,,,,,,,,,,,,B_13,001,2024-11-30_11h44.07.012,untitled,2024.1.5,None,2024-11-30 11h44.21.858727 +0530,
square.png,stranger,0,Z,,,,,,,,,24,2,98,2,,,,,,,,,366.42047119999916,,,,,,,,,,,,,,,,,,,,,,,,,,,,,,,,,,366.40444820000266,366.42047119999916,366.9043881000034,366.9043881000034,366.9043881000034,366.9043881000034,366.9206945000042,367.2040288999997,367.2040288999997,367.2040288999997,,367.55496210000274,z,367.55539359999966,367.5710818000007,368.5551029999988,368.5715715999977,0.6352627000014763,None,,,,,,,,,,,,,,,,,,,,,,,,,,,,,,,,,,,,,,,,,,,,,,,,,,,,,,,,,,,,,,,,,,,,,,,,,,,,,,,,,,,,B_13,001,2024-11-30_11h44.07.012,untitled,2024.1.5,None,2024-11-30 11h44.21.858727 +0530,
square.png,you,1,M,,,,,,,,,24,3,99,0,,,,,,,,,368.5715715999977,,,,,,,,,,,,,,,,,,,,,,,,,,,,,,,,,,368.5554581000033,368.5715715999977,369.05528320000303,369.05528320000303,369.05528320000303,369.05528320000303,369.07169579999754,369.35532870000316,369.35532870000316,369.35532870000316,,369.60610550000274,m,369.6065630000012,369.62227770000027,370.6064600000027,370.6224829999992,0.54350240000349,None,,,,,,,,,,,,,,,,,,,,,,,,,,,,,,,,,,,,,,,,,,,,,,,,,,,,,,,,,,,,,,,,,,,,,,,,,,,,,,,,,,,,B_13,001,2024-11-30_11h44.07.012,untitled,2024.1.5,None,2024-11-30 11h44.21.858727 +0530,
triangle.png,you,0,Z,,,,,,,,,25,0,100,3,,,,,,,,,370.6224829999992,,,,,,,,,,,,,,,,,,,,,,,,,,,,,,,,,,370.6068193000028,370.6224829999992,371.10609739999927,371.10609739999927,371.10609739999927,371.10609739999927,371.122961699999,371.40634970000247,371.40634970000247,371.40634970000247,,371.8406585999983,z,371.8410886999991,371.85661329999857,372.84084540000185,372.8572501000017,0.7253772999974899,None,,,,,,,,,,,,,,,,,,,,,,,,,,,,,,,,,,,,,,,,,,,,,,,,,,,,,,,,,,,,,,,,,,,,,,,,,,,,,,,,,,,,B_13,001,2024-11-30_11h44.07.012,untitled,2024.1.5,None,2024-11-30 11h44.21.858727 +0530,
square.png,you,1,M,,,,,,,,,25,1,101,0,,,,,,,,,372.8572501000017,,,,,,,,,,,,,,,,,,,,,,,,,,,,,,,,,,372.8411916999976,372.8572501000017,373.3408262000012,373.3408262000012,373.3408262000012,373.3408262000012,373.35732989999815,373.64077270000416,373.64077270000416,373.64077270000416,,374.04157049999776,m,374.0419875000007,374.0578728000037,375.0420091999986,375.0581013999981,0.6916124000053969,None,,,,,,,,,,,,,,,,,,,,,,,,,,,,,,,,,,,,,,,,,,,,,,,,,,,,,,,,,,,,,,,,,,,,,,,,,,,,,,,,,,,,B_13,001,2024-11-30_11h44.07.012,untitled,2024.1.5,None,2024-11-30 11h44.21.858727 +0530,
square.png,stranger,0,Z,,,,,,,,,25,2,102,2,,,,,,,,,375.0581013999981,,,,,,,,,,,,,,,,,,,,,,,,,,,,,,,,,,375.04235530000005,375.0581013999981,375.5419628000018,375.5419628000018,375.5419628000018,375.5419628000018,375.5585018999991,375.8418107000034,375.8418107000034,375.8418107000034,,376.4095845999982,z,376.4100055000017,376.4256196999995,377.40984220000246,377.42621879999933,0.8663216999993892,None,,,,,,,,,,,,,,,,,,,,,,,,,,,,,,,,,,,,,,,,,,,,,,,,,,,,,,,,,,,,,,,,,,,,,,,,,,,,,,,,,,,,B_13,001,2024-11-30_11h44.07.012,untitled,2024.1.5,None,2024-11-30 11h44.21.858727 +0530,
triangle.png,stranger,1,M,,,,,,,,,25,3,103,1,,,,,,,,,377.42621879999933,,,,,,,,,,,,,,,,,,,,,,,,,,,,,,,,,,377.41018880000047,377.42621879999933,377.90966219999973,377.90966219999973,377.90966219999973,377.90966219999973,377.9264115000042,378.209786899999,378.209786899999,378.209786899999,,378.7445452000029,m,378.7450095000022,378.7601761000042,379.7442832000015,379.76060960000177,0.8184413999988465,None,,,,,,,,,,,,,,,,,,,,,,,,,,,,,,,,,,,,,,,,,,,,,,,,,,,,,,,,,,,,,,,,,,,,,,,,,,,,,,,,,,,,B_13,001,2024-11-30_11h44.07.012,untitled,2024.1.5,None,2024-11-30 11h44.21.858727 +0530,
square.png,stranger,0,Z,,,,,,,,,26,0,104,2,,,,,,,,,379.76060960000177,,,,,,,,,,,,,,,,,,,,,,,,,,,,,,,,,,379.74463190000097,379.76060960000177,380.2441470999984,380.2441470999984,380.2441470999984,380.2441470999984,380.26095100000384,380.5443692999979,380.5443692999979,380.5443692999979,,381.0121910000016,z,381.01261250000243,381.027883499999,382.01234159999876,382.0285909000013,0.7523566000018036,None,,,,,,,,,,,,,,,,,,,,,,,,,,,,,,,,,,,,,,,,,,,,,,,,,,,,,,,,,,,,,,,,,,,,,,,,,,,,,,,,,,,,B_13,001,2024-11-30_11h44.07.012,untitled,2024.1.5,None,2024-11-30 11h44.21.858727 +0530,
triangle.png,stranger,1,M,,,,,,,,,26,1,105,1,,,,,,,,,382.0285909000013,,,,,,,,,,,,,,,,,,,,,,,,,,,,,,,,,,382.0126894999994,382.0285909000013,382.51214269999764,382.51214269999764,382.51214269999764,382.51214269999764,382.5288292999976,382.81191620000027,382.81191620000027,382.81191620000027,,383.34625940000114,m,383.3466936000041,383.36255260000326,384.3466198000024,384.3631663999986,0.8203152000060072,None,,,,,,,,,,,,,,,,,,,,,,,,,,,,,,,,,,,,,,,,,,,,,,,,,,,,,,,,,,,,,,,,,,,,,,,,,,,,,,,,,,,,B_13,001,2024-11-30_11h44.07.012,untitled,2024.1.5,None,2024-11-30 11h44.21.858727 +0530,
triangle.png,you,0,Z,,,,,,,,,26,2,106,3,,,,,,,,,384.3631663999986,,,,,,,,,,,,,,,,,,,,,,,,,,,,,,,,,,384.3469963000025,384.3631663999986,384.8467363000018,384.8467363000018,384.8467363000018,384.8467363000018,384.86337710000225,385.1464552000034,385.1464552000034,385.1464552000034,,385.58096430000296,z,385.5814027000015,385.5969133000035,386.58121250000113,386.59741080000094,0.7281880000009551,None,,,,,,,,,,,,,,,,,,,,,,,,,,,,,,,,,,,,,,,,,,,,,,,,,,,,,,,,,,,,,,,,,,,,,,,,,,,,,,,,,,,,B_13,001,2024-11-30_11h44.07.012,untitled,2024.1.5,None,2024-11-30 11h44.21.858727 +0530,
square.png,you,1,M,,,,,,,,,26,3,107,0,,,,,,,,,386.59741080000094,,,,,,,,,,,,,,,,,,,,,,,,,,,,,,,,,,386.58156939999753,386.59741080000094,387.08123960000376,387.08123960000376,387.08123960000376,387.08123960000376,387.0976917000007,387.3809508999984,387.3809508999984,387.3809508999984,,387.68204310000147,m,387.68247110000084,387.69797890000336,388.6822996999981,388.69836410000426,0.5987800000002608,None,,,,,,,,,,,,,,,,,,,,,,,,,,,,,,,,,,,,,,,,,,,,,,,,,,,,,,,,,,,,,,,,,,,,,,,,,,,,,,,,,,,,B_13,001,2024-11-30_11h44.07.012,untitled,2024.1.5,None,2024-11-30 11h44.21.858727 +0530,
square.png,stranger,0,Z,,,,,,,,,27,0,108,2,,,,,,,,,388.69836410000426,,,,,,,,,,,,,,,,,,,,,,,,,,,,,,,,,,388.68265200000315,388.69836410000426,389.18215240000427,389.18215240000427,389.18215240000427,389.18215240000427,389.1986398000008,389.482207400004,389.482207400004,389.482207400004,,389.9330187000014,z,389.93344960000104,389.9491063000023,390.9334741999992,390.9497629000034,0.7381663999985904,None,,,,,,,,,,,,,,,,,,,,,,,,,,,,,,,,,,,,,,,,,,,,,,,,,,,,,,,,,,,,,,,,,,,,,,,,,,,,,,,,,,,,B_13,001,2024-11-30_11h44.07.012,untitled,2024.1.5,None,2024-11-30 11h44.21.858727 +0530,
square.png,you,1,M,,,,,,,,,27,1,109,0,,,,,,,,,390.9497629000034,,,,,,,,,,,,,,,,,,,,,,,,,,,,,,,,,,390.93386330000067,390.9497629000034,391.43347150000045,391.43347150000045,391.43347150000045,391.43347150000045,391.4499700000015,391.73325430000114,391.73325430000114,391.73325430000114,,392.03425250000146,m,392.0347019000037,392.05020859999786,393.03447320000123,393.0507013000024,0.5988312000044971,None,,,,,,,,,,,,,,,,,,,,,,,,,,,,,,,,,,,,,,,,,,,,,,,,,,,,,,,,,,,,,,,,,,,,,,,,,,,,,,,,,,,,B_13,001,2024-11-30_11h44.07.012,untitled,2024.1.5,None,2024-11-30 11h44.21.858727 +0530,
triangle.png,stranger,1,M,,,,,,,,,27,2,110,1,,,,,,,,,393.0507013000024,,,,,,,,,,,,,,,,,,,,,,,,,,,,,,,,,,393.034831500001,393.0507013000024,393.53421030000027,393.53421030000027,393.53421030000027,393.53421030000027,393.5511406000005,393.83435050000116,393.83435050000116,393.83435050000116,,394.4687539000006,m,394.469210700001,394.4849996999983,395.46916140000394,395.48529679999774,0.9286017999984324,None,,,,,,,,,,,,,,,,,,,,,,,,,,,,,,,,,,,,,,,,,,,,,,,,,,,,,,,,,,,,,,,,,,,,,,,,,,,,,,,,,,,,B_13,001,2024-11-30_11h44.07.012,untitled,2024.1.5,None,2024-11-30 11h44.21.858727 +0530,
triangle.png,you,0,Z,,,,,,,,,27,3,111,3,,,,,,,,,395.48529679999774,,,,,,,,,,,,,,,,,,,,,,,,,,,,,,,,,,395.46951249999984,395.48529679999774,395.96934879999753,395.96934879999753,395.96934879999753,395.96934879999753,395.98565110000345,396.26891250000335,396.26891250000335,396.26891250000335,,396.71994010000344,z,396.72038440000324,396.7357683000009,397.72016209999856,397.7364000000016,0.73501430000033,None,,,,,,,,,,,,,,,,,,,,,,,,,,,,,,,,,,,,,,,,,,,,,,,,,,,,,,,,,,,,,,,,,,,,,,,,,,,,,,,,,,,,B_13,001,2024-11-30_11h44.07.012,untitled,2024.1.5,None,2024-11-30 11h44.21.858727 +0530,
triangle.png,you,0,Z,,,,,,,,,28,0,112,3,,,,,,,,,397.7364000000016,,,,,,,,,,,,,,,,,,,,,,,,,,,,,,,,,,397.72051150000334,397.7364000000016,398.2199838000015,398.2199838000015,398.2199838000015,398.2199838000015,398.2366667000024,398.5203182000041,398.5203182000041,398.5203182000041,,399.1552843000027,z,399.1557819000009,399.17034409999906,400.15486039999814,400.1711514999988,0.9268790999994962,None,,,,,,,,,,,,,,,,,,,,,,,,,,,,,,,,,,,,,,,,,,,,,,,,,,,,,,,,,,,,,,,,,,,,,,,,,,,,,,,,,,,,B_13,001,2024-11-30_11h44.07.012,untitled,2024.1.5,None,2024-11-30 11h44.21.858727 +0530,
triangle.png,stranger,1,M,,,,,,,,,28,1,113,1,,,,,,,,,400.1711514999988,,,,,,,,,,,,,,,,,,,,,,,,,,,,,,,,,,400.1552386999974,400.1711514999988,400.67131340000196,400.67131340000196,400.67131340000196,400.67131340000196,400.67131340000196,400.9712354000003,400.9712354000003,400.9712354000003,401.771682700004,401.75553950000176,None,401.7557347999973,401.771682700004,402.7559216000009,402.77221300000383,,,,,,,,,,,,,,,,,,,,,,,,,,,,,,,,,,,,,,,,,,,,,,,,,,,,,,,,,,,,,,,,,,,,,,,,,,,,,,,,,,,,,,B_13,001,2024-11-30_11h44.07.012,untitled,2024.1.5,None,2024-11-30 11h44.21.858727 +0530,
square.png,you,1,M,,,,,,,,,28,2,114,0,,,,,,,,,402.77221300000383,,,,,,,,,,,,,,,,,,,,,,,,,,,,,,,,,,402.7562803999972,402.77221300000383,403.2561694000033,403.2561694000033,403.2561694000033,403.2561694000033,403.27249409999786,403.5562032000016,403.5562032000016,403.5562032000016,,403.9735426999978,m,403.9739649999974,403.9898555000036,404.973814099998,404.99018629999773,0.7161000999985845,None,,,,,,,,,,,,,,,,,,,,,,,,,,,,,,,,,,,,,,,,,,,,,,,,,,,,,,,,,,,,,,,,,,,,,,,,,,,,,,,,,,,,B_13,001,2024-11-30_11h44.07.012,untitled,2024.1.5,None,2024-11-30 11h44.21.858727 +0530,
square.png,stranger,0,Z,,,,,,,,,28,3,115,2,,,,,,,,,404.99018629999773,,,,,,,,,,,,,,,,,,,,,,,,,,,,,,,,,,404.9741628999982,404.99018629999773,405.4740959999981,405.4740959999981,405.4740959999981,405.4740959999981,405.49045209999895,405.7740582999977,405.7740582999977,405.7740582999977,,406.2246836999984,z,406.225110600004,406.24074760000076,407.2250150999971,407.2412836000003,0.7458788000003551,None,,,,,,,,,,,,,,,,,,,,,,,,,,,,,,,,,,,,,,,,,,,,,,,,,,,,,,,,,,,,,,,,,,,,,,,,,,,,,,,,,,,,B_13,001,2024-11-30_11h44.07.012,untitled,2024.1.5,None,2024-11-30 11h44.21.858727 +0530,
triangle.png,stranger,1,M,,,,,,,,,29,0,116,1,,,,,,,,,407.2412836000003,,,,,,,,,,,,,,,,,,,,,,,,,,,,,,,,,,407.2253667999976,407.2412836000003,407.72517620000144,407.72517620000144,407.72517620000144,407.72517620000144,407.7416433000035,408.02499640000315,408.02499640000315,408.02499640000315,,408.7928702999998,m,408.793293499999,408.808927500002,409.79294780000055,409.80928819999826,1.0535057000015513,None,,,,,,,,,,,,,,,,,,,,,,,,,,,,,,,,,,,,,,,,,,,,,,,,,,,,,,,,,,,,,,,,,,,,,,,,,,,,,,,,,,,,B_13,001,2024-11-30_11h44.07.012,untitled,2024.1.5,None,2024-11-30 11h44.21.858727 +0530,
triangle.png,you,0,Z,,,,,,,,,29,1,117,3,,,,,,,,,409.80928819999826,,,,,,,,,,,,,,,,,,,,,,,,,,,,,,,,,,409.7932992999995,409.80928819999826,410.2929340999981,410.2929340999981,410.2929340999981,410.2929340999981,410.30947059999744,410.5929260999983,410.5929260999983,410.5929260999983,,410.977083400001,z,410.9775202000019,410.9930839000008,411.97778370000015,411.99394530000427,0.6747147999994922,None,,,,,,,,,,,,,,,,,,,,,,,,,,,,,,,,,,,,,,,,,,,,,,,,,,,,,,,,,,,,,,,,,,,,,,,,,,,,,,,,,,,,B_13,001,2024-11-30_11h44.07.012,untitled,2024.1.5,None,2024-11-30 11h44.21.858727 +0530,
square.png,you,1,M,,,,,,,,,29,2,118,0,,,,,,,,,411.99394530000427,,,,,,,,,,,,,,,,,,,,,,,,,,,,,,,,,,411.97813229999883,411.99394530000427,412.4773733000038,412.4773733000038,412.4773733000038,412.4773733000038,412.4942152000003,412.77753680000023,412.77753680000023,412.77753680000023,,413.1616501000026,m,413.1620722000007,413.1777110999974,414.1617655000009,414.1780951999972,0.6784311000010348,None,,,,,,,,,,,,,,,,,,,,,,,,,,,,,,,,,,,,,,,,,,,,,,,,,,,,,,,,,,,,,,,,,,,,,,,,,,,,,,,,,,,,B_13,001,2024-11-30_11h44.07.012,untitled,2024.1.5,None,2024-11-30 11h44.21.858727 +0530,
square.png,stranger,0,Z,,,,,,,,,29,3,119,2,,,,,,,,,414.1780951999972,,,,,,,,,,,,,,,,,,,,,,,,,,,,,,,,,,414.1621183000025,414.1780951999972,414.66193100000237,414.66193100000237,414.66193100000237,414.66193100000237,414.67830120000144,414.96211430000403,414.96211430000403,414.96211430000403,,415.4961889000042,z,415.49662140000146,415.51200919999974,416.4964684000006,416.5126897000009,0.8260250999956043,None,,,,,,,,,,,,,,,,,,,,,,,,,,,,,,,,,,,,,,,,,,,,,,,,,,,,,,,,,,,,,,,,,,,,,,,,,,,,,,,,,,,,B_13,001,2024-11-30_11h44.07.012,untitled,2024.1.5,None,2024-11-30 11h44.21.858727 +0530,
square.png,you,1,M,,,,,,,,,30,0,120,0,,,,,,,,,416.5126897000009,,,,,,,,,,,,,,,,,,,,,,,,,,,,,,,,,,416.4968263999981,416.5126897000009,416.9966196000023,416.9966196000023,416.9966196000023,416.9966196000023,417.01322470000014,417.29641699999775,417.29641699999775,417.29641699999775,,417.8807242000039,m,417.8811466000043,417.8968479000032,418.8811048999996,418.8973976999987,0.8793214999968768,None,,,,,,,,,,,,,,,,,,,,,,,,,,,,,,,,,,,,,,,,,,,,,,,,,,,,,,,,,,,,,,,,,,,,,,,,,,,,,,,,,,,,B_13,001,2024-11-30_11h44.07.012,untitled,2024.1.5,None,2024-11-30 11h44.21.858727 +0530,
square.png,stranger,0,Z,,,,,,,,,30,1,121,2,,,,,,,,,418.8973976999987,,,,,,,,,,,,,,,,,,,,,,,,,,,,,,,,,,418.88146119999874,418.8973976999987,419.3809595999992,419.3809595999992,419.3809595999992,419.3809595999992,419.39758570000413,419.6810315000039,419.6810315000039,419.6810315000039,,420.16521759999887,z,420.16564839999774,420.1811785000027,421.16547379999975,421.1817052999977,0.7710131999992882,None,,,,,,,,,,,,,,,,,,,,,,,,,,,,,,,,,,,,,,,,,,,,,,,,,,,,,,,,,,,,,,,,,,,,,,,,,,,,,,,,,,,,B_13,001,2024-11-30_11h44.07.012,untitled,2024.1.5,None,2024-11-30 11h44.21.858727 +0530,
triangle.png,stranger,1,M,,,,,,,,,30,2,122,1,,,,,,,,,421.1817052999977,,,,,,,,,,,,,,,,,,,,,,,,,,,,,,,,,,421.1658291999993,421.1817052999977,421.6656761999984,421.6656761999984,421.6656761999984,421.6656761999984,421.6820466999998,421.965495299999,421.965495299999,421.965495299999,,422.6000034000026,m,422.60042239999893,422.61595079999825,423.60019170000305,423.616216800001,0.9210678000017651,None,,,,,,,,,,,,,,,,,,,,,,,,,,,,,,,,,,,,,,,,,,,,,,,,,,,,,,,,,,,,,,,,,,,,,,,,,,,,,,,,,,,,B_13,001,2024-11-30_11h44.07.012,untitled,2024.1.5,None,2024-11-30 11h44.21.858727 +0530,
triangle.png,you,0,Z,,,,,,,,,30,3,123,3,,,,,,,,,423.616216800001,,,,,,,,,,,,,,,,,,,,,,,,,,,,,,,,,,423.6005417999986,423.616216800001,424.1001658000023,424.1001658000023,424.1001658000023,424.1001658000023,424.11665390000417,424.3998522000038,424.3998522000038,424.3998522000038,,424.8845177999974,z,424.88493759999983,424.9003784000015,425.8845868999997,425.9009320999976,0.7683179999949061,None,,,,,,,,,,,,,,,,,,,,,,,,,,,,,,,,,,,,,,,,,,,,,,,,,,,,,,,,,,,,,,,,,,,,,,,,,,,,,,,,,,,,B_13,001,2024-11-30_11h44.07.012,untitled,2024.1.5,None,2024-11-30 11h44.21.858727 +0530,
triangle.png,stranger,1,M,,,,,,,,,31,0,124,1,,,,,,,,,425.9009320999976,,,,,,,,,,,,,,,,,,,,,,,,,,,,,,,,,,425.88495250000415,425.9009320999976,426.3844994000028,426.3844994000028,426.3844994000028,426.3844994000028,426.4012650000004,426.6844693000021,426.6844693000021,426.6844693000021,,427.3356719000003,m,427.3361001000012,427.3515738999995,428.33584749999864,428.35190819999843,0.9396359000020311,None,,,,,,,,,,,,,,,,,,,,,,,,,,,,,,,,,,,,,,,,,,,,,,,,,,,,,,,,,,,,,,,,,,,,,,,,,,,,,,,,,,,,B_13,001,2024-11-30_11h44.07.012,untitled,2024.1.5,None,2024-11-30 11h44.21.858727 +0530,
square.png,stranger,0,Z,,,,,,,,,31,1,125,2,,,,,,,,,428.35190819999843,,,,,,,,,,,,,,,,,,,,,,,,,,,,,,,,,,428.33620189999783,428.35190819999843,428.83566769999743,428.83566769999743,428.83566769999743,428.83566769999743,428.85232499999984,429.1356847999996,429.1356847999996,429.1356847999996,,429.62002740000025,z,429.62045480000234,429.6359835999974,430.6202485000031,430.6366016000029,0.7802167999980156,None,,,,,,,,,,,,,,,,,,,,,,,,,,,,,,,,,,,,,,,,,,,,,,,,,,,,,,,,,,,,,,,,,,,,,,,,,,,,,,,,,,,,B_13,001,2024-11-30_11h44.07.012,untitled,2024.1.5,None,2024-11-30 11h44.21.858727 +0530,
triangle.png,you,0,Z,,,,,,,,,31,2,126,3,,,,,,,,,430.6366016000029,,,,,,,,,,,,,,,,,,,,,,,,,,,,,,,,,,430.62060380000185,430.6366016000029,431.12037209999835,431.12037209999835,431.12037209999835,431.12037209999835,431.13699579999957,431.4200839000041,431.4200839000041,431.4200839000041,,432.1548647000018,z,432.1552984000009,432.170557999998,433.1554823999977,433.17105979999906,1.0190368999974453,None,,,,,,,,,,,,,,,,,,,,,,,,,,,,,,,,,,,,,,,,,,,,,,,,,,,,,,,,,,,,,,,,,,,,,,,,,,,,,,,,,,,,B_13,001,2024-11-30_11h44.07.012,untitled,2024.1.5,None,2024-11-30 11h44.21.858727 +0530,
square.png,you,1,M,,,,,,,,,31,3,127,0,,,,,,,,,433.17105979999906,,,,,,,,,,,,,,,,,,,,,,,,,,,,,,,,,,433.1558817000041,433.17105979999906,433.65500690000044,433.65500690000044,433.65500690000044,433.65500690000044,433.67146910000156,433.95472339999833,433.95472339999833,433.95472339999833,,434.3390674999973,m,434.33949310000025,434.35502650000126,435.3394322000022,435.3557217999987,0.6810451999990619,None,,,,,,,,,,,,,,,,,,,,,,,,,,,,,,,,,,,,,,,,,,,,,,,,,,,,,,,,,,,,,,,,,,,,,,,,,,,,,,,,,,,,B_13,001,2024-11-30_11h44.07.012,untitled,2024.1.5,None,2024-11-30 11h44.21.858727 +0530,
triangle.png,stranger,1,M,,,,,,,,,32,0,128,1,,,,,,,,,435.3557217999987,,,,,,,,,,,,,,,,,,,,,,,,,,,,,,,,,,435.33979730000283,435.3557217999987,435.8393056999994,435.8393056999994,435.8393056999994,435.8393056999994,435.856211600003,436.13920979999966,436.13920979999966,436.13920979999966,436.9398663000029,436.92335699999967,None,436.9235525999975,436.9398663000029,437.92411630000424,437.9401794000005,,,,,,,,,,,,,,,,,,,,,,,,,,,,,,,,,,,,,,,,,,,,,,,,,,,,,,,,,,,,,,,,,,,,,,,,,,,,,,,,,,,,,,B_13,001,2024-11-30_11h44.07.012,untitled,2024.1.5,None,2024-11-30 11h44.21.858727 +0530,
square.png,stranger,0,Z,,,,,,,,,32,1,129,2,,,,,,,,,437.9401794000005,,,,,,,,,,,,,,,,,,,,,,,,,,,,,,,,,,437.9244775999978,437.9401794000005,438.44079449999845,438.44079449999845,438.44079449999845,438.44079449999845,438.44079449999845,438.74086080000416,438.74086080000416,438.74086080000416,,439.1082144000029,z,439.1086384000009,439.12427390000084,440.1085000000021,440.1246919000041,0.6658586999983527,None,,,,,,,,,,,,,,,,,,,,,,,,,,,,,,,,,,,,,,,,,,,,,,,,,,,,,,,,,,,,,,,,,,,,,,,,,,,,,,,,,,,,B_13,001,2024-11-30_11h44.07.012,untitled,2024.1.5,None,2024-11-30 11h44.21.858727 +0530,
square.png,you,1,M,,,,,,,,,32,2,130,0,,,,,,,,,440.1246919000041,,,,,,,,,,,,,,,,,,,,,,,,,,,,,,,,,,440.10885589999816,440.1246919000041,440.60830279999936,440.60830279999936,440.60830279999936,440.60830279999936,440.62503670000297,440.90826960000413,440.90826960000413,440.90826960000413,,441.409352900002,m,441.40986469999916,441.425413500001,442.4095914999998,442.4257474000042,0.7918927999999141,None,,,,,,,,,,,,,,,,,,,,,,,,,,,,,,,,,,,,,,,,,,,,,,,,,,,,,,,,,,,,,,,,,,,,,,,,,,,,,,,,,,,,B_13,001,2024-11-30_11h44.07.012,untitled,2024.1.5,None,2024-11-30 11h44.21.858727 +0530,
triangle.png,you,0,Z,,,,,,,,,32,3,131,3,,,,,,,,,442.4257474000042,,,,,,,,,,,,,,,,,,,,,,,,,,,,,,,,,,442.4099497999996,442.4257474000042,442.9096723000039,442.9096723000039,442.9096723000039,442.9096723000039,442.9259949999978,443.2095161000034,443.2095161000034,443.2095161000034,444.00991230000363,443.99367840000195,None,443.99386770000274,444.00991230000363,444.9944144999972,445.0107113999984,,,,,,,,,,,,,,,,,,,,,,,,,,,,,,,,,,,,,,,,,,,,,,,,,,,,,,,,,,,,,,,,,,,,,,,,,,,,,,,,,,,,,,B_13,001,2024-11-30_11h44.07.012,untitled,2024.1.5,None,2024-11-30 11h44.21.858727 +0530,
triangle.png,you,0,Z,,,,,,,,,33,0,132,3,,,,,,,,,445.0107113999984,,,,,,,,,,,,,,,,,,,,,,,,,,,,,,,,,,444.99477070000285,445.0107113999984,445.51111700000183,445.51111700000183,445.51111700000183,445.51111700000183,445.51111700000183,445.81093410000176,445.81093410000176,445.81093410000176,,446.49560439999914,z,446.4960226999974,446.5113601999983,447.4956672999979,447.5117753000013,0.9685236000004807,None,,,,,,,,,,,,,,,,,,,,,,,,,,,,,,,,,,,,,,,,,,,,,,,,,,,,,,,,,,,,,,,,,,,,,,,,,,,,,,,,,,,,B_13,001,2024-11-30_11h44.07.012,untitled,2024.1.5,None,2024-11-30 11h44.21.858727 +0530,
triangle.png,stranger,1,M,,,,,,,,,33,1,133,1,,,,,,,,,447.5117753000013,,,,,,,,,,,,,,,,,,,,,,,,,,,,,,,,,,447.496017999998,447.5117753000013,447.99570730000414,447.99570730000414,447.99570730000414,447.99570730000414,448.01232990000426,448.29564550000214,448.29564550000214,448.29564550000214,,448.77985120000085,m,448.78028500000073,448.7959561000025,449.78015420000156,449.7962966999985,0.783273699998972,None,,,,,,,,,,,,,,,,,,,,,,,,,,,,,,,,,,,,,,,,,,,,,,,,,,,,,,,,,,,,,,,,,,,,,,,,,,,,,,,,,,,,B_13,001,2024-11-30_11h44.07.012,untitled,2024.1.5,None,2024-11-30 11h44.21.858727 +0530,
square.png,you,1,M,,,,,,,,,33,2,134,0,,,,,,,,,449.7962966999985,,,,,,,,,,,,,,,,,,,,,,,,,,,,,,,,,,449.7805098000026,449.7962966999985,450.2800067999997,450.2800067999997,450.2800067999997,450.2800067999997,450.29666140000336,450.57996509999793,450.57996509999793,450.57996509999793,,451.01458499999717,m,451.01500659999874,451.0304802000028,452.01457220000157,452.03071620000264,0.7242217000020901,None,,,,,,,,,,,,,,,,,,,,,,,,,,,,,,,,,,,,,,,,,,,,,,,,,,,,,,,,,,,,,,,,,,,,,,,,,,,,,,,,,,,,B_13,001,2024-11-30_11h44.07.012,untitled,2024.1.5,None,2024-11-30 11h44.21.858727 +0530,
square.png,stranger,0,Z,,,,,,,,,33,3,135,2,,,,,,,,,452.03071620000264,,,,,,,,,,,,,,,,,,,,,,,,,,,,,,,,,,452.01493409999966,452.03071620000264,452.5147283000042,452.5147283000042,452.5147283000042,452.5147283000042,452.5311959000028,452.81449160000193,452.81449160000193,452.81449160000193,,453.14901510000345,z,453.1494487000018,453.1645656999972,454.14920079999865,454.1651531000025,0.6327644999983022,None,,,,,,,,,,,,,,,,,,,,,,,,,,,,,,,,,,,,,,,,,,,,,,,,,,,,,,,,,,,,,,,,,,,,,,,,,,,,,,,,,,,,B_13,001,2024-11-30_11h44.07.012,untitled,2024.1.5,None,2024-11-30 11h44.21.858727 +0530,
triangle.png,you,0,Z,,,,,,,,,34,0,136,3,,,,,,,,,454.1651531000025,,,,,,,,,,,,,,,,,,,,,,,,,,,,,,,,,,454.1495528000014,454.1651531000025,454.6490119000009,454.6490119000009,454.6490119000009,454.6490119000009,454.6656277000002,454.94889590000093,454.94889590000093,454.94889590000093,,455.5332294000036,m,455.5336602000025,455.5491757999989,456.5334866999983,456.54996720000054,0.8699985000057495,None,,,,,,,,,,,,,,,,,,,,,,,,,,,,,,,,,,,,,,,,,,,,,,,,,,,,,,,,,,,,,,,,,,,,,,,,,,,,,,,,,,,,B_13,001,2024-11-30_11h44.07.012,untitled,2024.1.5,None,2024-11-30 11h44.21.858727 +0530,
square.png,you,1,M,,,,,,,,,34,1,137,0,,,,,,,,,456.54996720000054,,,,,,,,,,,,,,,,,,,,,,,,,,,,,,,,,,456.5338327999998,456.54996720000054,457.03377829999954,457.03377829999954,457.03377829999954,457.03377829999954,457.05017529999895,457.333541400003,457.333541400003,457.333541400003,,457.66771639999934,m,457.6681555000032,457.6836006000012,458.6678514000014,458.6842609000014,0.6183077999958186,None,,,,,,,,,,,,,,,,,,,,,,,,,,,,,,,,,,,,,,,,,,,,,,,,,,,,,,,,,,,,,,,,,,,,,,,,,,,,,,,,,,,,B_13,001,2024-11-30_11h44.07.012,untitled,2024.1.5,None,2024-11-30 11h44.21.858727 +0530,
triangle.png,stranger,1,M,,,,,,,,,34,2,138,1,,,,,,,,,458.6842609000014,,,,,,,,,,,,,,,,,,,,,,,,,,,,,,,,,,458.6682084999993,458.6842609000014,459.1678480999981,459.1678480999981,459.1678480999981,459.1678480999981,459.18460760000016,459.4677997000035,459.4677997000035,459.4677997000035,,460.0857488000038,m,460.0861873000031,460.1017043000029,461.08578750000015,461.10214709999855,0.9119711000021198,None,,,,,,,,,,,,,,,,,,,,,,,,,,,,,,,,,,,,,,,,,,,,,,,,,,,,,,,,,,,,,,,,,,,,,,,,,,,,,,,,,,,,B_13,001,2024-11-30_11h44.07.012,untitled,2024.1.5,None,2024-11-30 11h44.21.858727 +0530,
square.png,stranger,0,Z,,,,,,,,,34,3,139,2,,,,,,,,,461.10214709999855,,,,,,,,,,,,,,,,,,,,,,,,,,,,,,,,,,461.08614630000375,461.10214709999855,461.586043299998,461.586043299998,461.586043299998,461.586043299998,461.6025931999975,461.88590410000324,461.88590410000324,461.88590410000324,,462.30334030000085,z,462.30378460000065,462.3194962999987,463.3037961000009,463.3198909999992,0.7095138000004226,None,,,,,,,,,,,,,,,,,,,,,,,,,,,,,,,,,,,,,,,,,,,,,,,,,,,,,,,,,,,,,,,,,,,,,,,,,,,,,,,,,,,,B_13,001,2024-11-30_11h44.07.012,untitled,2024.1.5,None,2024-11-30 11h44.21.858727 +0530,
triangle.png,stranger,1,M,,,,,,,,,35,0,140,1,,,,,,,,,463.3198909999992,,,,,,,,,,,,,,,,,,,,,,,,,,,,,,,,,,463.3041482999979,463.3198909999992,463.8038796999972,463.8038796999972,463.8038796999972,463.8038796999972,463.82027209999796,464.1036740999989,464.1036740999989,464.1036740999989,,464.7883187000043,m,464.7887383999987,464.804189399998,465.7884078999996,465.80461739999737,0.9720783999946434,None,,,,,,,,,,,,,,,,,,,,,,,,,,,,,,,,,,,,,,,,,,,,,,,,,,,,,,,,,,,,,,,,,,,,,,,,,,,,,,,,,,,,B_13,001,2024-11-30_11h44.07.012,untitled,2024.1.5,None,2024-11-30 11h44.21.858727 +0530,
square.png,you,1,M,,,,,,,,,35,1,141,0,,,,,,,,,465.80461739999737,,,,,,,,,,,,,,,,,,,,,,,,,,,,,,,,,,465.7887570000021,465.80461739999737,466.2881011999998,466.2881011999998,466.2881011999998,466.2881011999998,466.30488609999884,466.5881644999972,466.5881644999972,466.5881644999972,,467.2558523999978,m,467.25628020000295,467.2719982999988,468.25618840000243,468.27241140000115,0.9636854999989737,None,,,,,,,,,,,,,,,,,,,,,,,,,,,,,,,,,,,,,,,,,,,,,,,,,,,,,,,,,,,,,,,,,,,,,,,,,,,,,,,,,,,,B_13,001,2024-11-30_11h44.07.012,untitled,2024.1.5,None,2024-11-30 11h44.21.858727 +0530,
square.png,stranger,0,Z,,,,,,,,,35,2,142,2,,,,,,,,,468.27241140000115,,,,,,,,,,,,,,,,,,,,,,,,,,,,,,,,,,468.25654439999926,468.27241140000115,468.75627689999965,468.75627689999965,468.75627689999965,468.75627689999965,468.77265980000084,469.0562233000019,469.0562233000019,469.0562233000019,,469.6071161,z,469.6075415000014,469.6232259000026,470.60753909999767,470.62370580000425,0.8350873999952455,None,,,,,,,,,,,,,,,,,,,,,,,,,,,,,,,,,,,,,,,,,,,,,,,,,,,,,,,,,,,,,,,,,,,,,,,,,,,,,,,,,,,,B_13,001,2024-11-30_11h44.07.012,untitled,2024.1.5,None,2024-11-30 11h44.21.858727 +0530,
triangle.png,you,0,Z,,,,,,,,,35,3,143,3,,,,,,,,,470.62370580000425,,,,,,,,,,,,,,,,,,,,,,,,,,,,,,,,,,470.6079030000037,470.62370580000425,471.1075248999987,471.1075248999987,471.1075248999987,471.1075248999987,471.12404909999896,471.40745980000065,471.40745980000065,471.40745980000065,,472.17502329999843,z,472.1754535,472.1910762999978,473.1754168000043,473.1914881999983,1.0566372000030242,None,,,,,,,,,,,,,,,,,,,,,,,,,,,,,,,,,,,,,,,,,,,,,,,,,,,,,,,,,,,,,,,,,,,,,,,,,,,,,,,,,,,,B_13,001,2024-11-30_11h44.07.012,untitled,2024.1.5,None,2024-11-30 11h44.21.858727 +0530,
square.png,you,1,M,,,,,,,,,36,0,144,0,,,,,,,,,473.1914881999983,,,,,,,,,,,,,,,,,,,,,,,,,,,,,,,,,,473.17576689999987,473.1914881999983,473.6754351999989,473.6754351999989,473.6754351999989,473.6754351999989,473.691891100003,473.9752711999972,473.9752711999972,473.9752711999972,,474.5428783000025,m,474.54330990000017,474.5589545999974,475.5433781000029,475.5597198000032,0.8517385000013746,None,,,,,,,,,,,,,,,,,,,,,,,,,,,,,,,,,,,,,,,,,,,,,,,,,,,,,,,,,,,,,,,,,,,,,,,,,,,,,,,,,,,,B_13,001,2024-11-30_11h44.07.012,untitled,2024.1.5,None,2024-11-30 11h44.21.858727 +0530,
