stimulus_b,label_b,is_match_b,shouldpress_b,stimulus_2b,label_2b,is_match_2b,shouldpress_2b,p_trials.thisRepN,p_trials.thisTrialN,p_trials.thisN,p_trials.thisIndex,trials.thisRepN,trials.thisTrialN,trials.thisN,trials.thisIndex,p_trials_2.thisRepN,p_trials_2.thisTrialN,p_trials_2.thisN,p_trials_2.thisIndex,trials_2.thisRepN,trials_2.thisTrialN,trials_2.thisN,trials_2.thisIndex,thisRow.t,notes,Intruduction.started,text_3.started,key_resp_2.started,Intruduction.stopped,key_resp_2.keys,key_resp_2.rt,key_resp_2.duration,self_other_instructions.started,text_4.started,key_resp_3.started,self_other_instructions.stopped,key_resp_3.keys,key_resp_3.rt,key_resp_3.duration,self_other_info.started,square_image.started,triangle_image.started,self_label.started,other_label.started,key_resp_4.started,text_5.started,self_other_info.stopped,key_resp_4.keys,key_resp_4.rt,key_resp_4.duration,self_other_starting_2.started,text_6.started,key_resp_5.started,self_other_starting_2.stopped,key_resp_5.keys,key_resp_5.rt,key_resp_5.duration,b1.started,p_fication.started,p_fixation_3.started,p_text.started,key_resp_p.started,p_image.started,p_fication.stopped,p_fixation_3.stopped,p_text.stopped,p_image.stopped,key_resp_p.stopped,b1.stopped,key_resp_p.keys,b_feedback.started,text_15.started,text_15.stopped,b_feedback.stopped,key_resp_p.rt,key_resp_p.duration,start2.started,start_2.started,key_resp_11.started,start2.stopped,key_resp_11.keys,key_resp_11.rt,key_resp_11.duration,break_3.started,text_13.started,text_14.started,key_resp_10.started,text_13.stopped,break_3.stopped,key_resp_10.keys,key_resp_10.rt,key_resp_10.duration,self_instructions_2.started,text_10.started,key_resp_7.started,self_instructions_2.stopped,key_resp_7.keys,key_resp_7.rt,key_resp_7.duration,self_intro_2.started,circle_image.started,diamond_image.started,Disgusting_self_lable.started,Desirable_self_lable.started,key_resp_8.started,text_11.started,self_intro_2.stopped,key_resp_8.keys,key_resp_8.rt,key_resp_8.duration,self_starting_3.started,text_12.started,key_resp_9.started,self_starting_3.stopped,key_resp_9.keys,key_resp_9.rt,key_resp_9.duration,practice2.started,p_fixation_2.started,p_fixation_4.started,p_text_8.started,key_resp_6_p.started,p_image_2.started,p_fixation_2.stopped,p_fixation_4.stopped,p_text_8.stopped,p_image_2.stopped,practice2.stopped,key_resp_6_p.keys,key_resp_6_p.rt,key_resp_6_p.duration,feedback_2_p.started,text_16.started,text_16.stopped,feedback_2_p.stopped,trial_2.started,fixation_2.started,fixation_4.started,text_8.started,key_resp_6.started,image_2.started,fixation_2.stopped,fixation_4.stopped,text_8.stopped,image_2.stopped,trial_2.stopped,key_resp_6.keys,key_resp_6.rt,key_resp_6.duration,feedback_2.started,text_9.started,text_9.stopped,feedback_2.stopped,key_resp_6.stopped,Thank_you.started,text_7.started,text_7.stopped,Thank_you.stopped,participant,session,date,expName,psychopyVersion,frameRate,expStart,
,,,,,,,,,,,,,,,,,,,,,,,,,,0.0026836000033654273,0.00636060000397265,0.00636060000397265,4.9678890999930445,space,4.943924000006518,None,,,,,,,,,,,,,,,,,,,,,,,,,,,,,,,,,,,,,,,,,,,,,,,,,,,,,,,,,,,,,,,,,,,,,,,,,,,,,,,,,,,,,,,,,,,,,,,,,,,,,,,,,,,,,,,,,,,,,,,,,,,,,,,B_14,001,2024-11-30_13h02.09.314,untitled,2024.1.5,None,2024-11-30 13h02.22.455829 +0530,
,,,,,,,,,,,,,,,,,,,,,,,,,,,,,,,,,4.967912799998885,4.982211599999573,4.982211599999573,23.492485800001305,space,18.49579960000119,None,,,,,,,,,,,,,,,,,,,,,,,,,,,,,,,,,,,,,,,,,,,,,,,,,,,,,,,,,,,,,,,,,,,,,,,,,,,,,,,,,,,,,,,,,,,,,,,,,,,,,,,,,,,,,,,,,,,,,,,,B_14,001,2024-11-30_13h02.09.314,untitled,2024.1.5,None,2024-11-30 13h02.22.455829 +0530,
,,,,,,,,,,,,,,,,,,,,,,,,,,,,,,,,,,,,,,,,23.492511799995555,23.525776299997233,23.525776299997233,23.525776299997233,23.525776299997233,23.525776299997233,23.525776299997233,69.59867540000414,space,46.069507800013525,None,,,,,,,,,,,,,,,,,,,,,,,,,,,,,,,,,,,,,,,,,,,,,,,,,,,,,,,,,,,,,,,,,,,,,,,,,,,,,,,,,,,,,,,,,,,,,,,,,,,,,,,,,,,,,B_14,001,2024-11-30_13h02.09.314,untitled,2024.1.5,None,2024-11-30 13h02.22.455829 +0530,
,,,,,,,,,,,,,,,,,,,,,,,,,,,,,,,,,,,,,,,,,,,,,,,,,,,69.59870370000135,69.61444699999993,69.61444699999993,83.83909919999132,space,14.20881169999484,None,,,,,,,,,,,,,,,,,,,,,,,,,,,,,,,,,,,,,,,,,,,,,,,,,,,,,,,,,,,,,,,,,,,,,,,,,,,,,,,,,,,,,,,,,,,,,,,,,,,,,,B_14,001,2024-11-30_13h02.09.314,untitled,2024.1.5,None,2024-11-30 13h02.22.455829 +0530,
square.png,you,1,M,,,,,0,0,0,0,,,,,,,,,,,,,83.85570559999906,,,,,,,,,,,,,,,,,,,,,,,,,,,,,,,,,,83.84517980000237,83.85570559999906,84.33848730000318,84.33848730000318,84.33848730000318,84.33848730000318,84.3548679999949,84.63835339999059,84.63835339999059,84.63835339999059,85.4387696999911,85.4226278999995,None,85.4228323999996,85.4387696999911,86.43940869999642,86.42304039999726,,,,,,,,,,,,,,,,,,,,,,,,,,,,,,,,,,,,,,,,,,,,,,,,,,,,,,,,,,,,,,,,,,,,,,,,,,,,,,,,,,,,,B_14,001,2024-11-30_13h02.09.314,untitled,2024.1.5,None,2024-11-30 13h02.22.455829 +0530,
triangle.png,you,0,Z,,,,,0,1,1,3,,,,,,,,,,,,,86.43940869999642,,,,,,,,,,,,,,,,,,,,,,,,,,,,,,,,,,86.42326989999856,86.43940869999642,86.93988150000223,86.93988150000223,86.93988150000223,86.93988150000223,86.93988150000223,,,,,87.2074500000017,z,87.20777290000115,87.22312059999967,88.2233930999937,88.20725779999339,0.26333830000658054,None,,,,,,,,,,,,,,,,,,,,,,,,,,,,,,,,,,,,,,,,,,,,,,,,,,,,,,,,,,,,,,,,,,,,,,,,,,,,,,,,,,,B_14,001,2024-11-30_13h02.09.314,untitled,2024.1.5,None,2024-11-30 13h02.22.455829 +0530,
triangle.png,stranger,1,M,,,,,0,2,2,1,,,,,,,,,,,,,88.2233930999937,,,,,,,,,,,,,,,,,,,,,,,,,,,,,,,,,,88.20748989999993,88.2233930999937,88.70737309999822,88.70737309999822,88.70737309999822,88.70737309999822,88.7240199999942,89.00735010000062,89.00735010000062,89.00735010000062,,88.99168730000383,z,88.9919319999899,89.00735010000062,90.00798249999934,89.99170199999935,0.2784436999936588,None,,,,,,,,,,,,,,,,,,,,,,,,,,,,,,,,,,,,,,,,,,,,,,,,,,,,,,,,,,,,,,,,,,,,,,,,,,,,,,,,,,,B_14,001,2024-11-30_13h02.09.314,untitled,2024.1.5,None,2024-11-30 13h02.22.455829 +0530,
square.png,stranger,0,Z,,,,,0,3,3,2,,,,,,,,,,,,,90.00798249999934,,,,,,,,,,,,,,,,,,,,,,,,,,,,,,,,,,89.99193389998982,90.00798249999934,90.49179339999682,90.49179339999682,90.49179339999682,90.49179339999682,90.50809950000257,,,,,90.70907070000248,z,90.70931740000378,90.72487179999007,91.72541420000198,91.70931419999397,0.20425399999658111,None,,,,,,,,,,,,,,,,,,,,,,,,,,,,,,,,,,,,,,,,,,,,,,,,,,,,,,,,,,,,,,,,,,,,,,,,,,,,,,,,,,,B_14,001,2024-11-30_13h02.09.314,untitled,2024.1.5,None,2024-11-30 13h02.22.455829 +0530,
triangle.png,you,0,Z,,,,,1,0,4,3,,,,,,,,,,,,,91.72541420000198,,,,,,,,,,,,,,,,,,,,,,,,,,,,,,,,,,91.70954349999374,91.72541420000198,92.20917229999031,92.20917229999031,92.20917229999031,92.20917229999031,92.22556500000064,,,,,92.42675139999483,z,92.42699269999866,92.44234189999406,93.44311340000422,93.42676279999432,0.2126328000013018,None,,,,,,,,,,,,,,,,,,,,,,,,,,,,,,,,,,,,,,,,,,,,,,,,,,,,,,,,,,,,,,,,,,,,,,,,,,,,,,,,,,,B_14,001,2024-11-30_13h02.09.314,untitled,2024.1.5,None,2024-11-30 13h02.22.455829 +0530,
square.png,you,1,M,,,,,1,1,5,0,,,,,,,,,,,,,93.44311340000422,,,,,,,,,,,,,,,,,,,,,,,,,,,,,,,,,,93.42699229999562,93.44311340000422,93.92655669999658,93.92655669999658,93.92655669999658,93.92655669999658,93.94311729999026,,,,,94.07738760000211,z,94.0776360000018,94.09320119999757,95.09375099999306,95.07765870000003,0.14056169999821577,None,,,,,,,,,,,,,,,,,,,,,,,,,,,,,,,,,,,,,,,,,,,,,,,,,,,,,,,,,,,,,,,,,,,,,,,,,,,,,,,,,,,B_14,001,2024-11-30_13h02.09.314,untitled,2024.1.5,None,2024-11-30 13h02.22.455829 +0530,
square.png,stranger,0,Z,,,,,1,2,6,2,,,,,,,,,,,,,95.09375099999306,,,,,,,,,,,,,,,,,,,,,,,,,,,,,,,,,,95.07790139999997,95.09375099999306,95.57761320000282,95.57761320000282,95.57761320000282,95.57761320000282,95.5940483000013,,,,,95.61164139999892,z,95.6118822999997,95.62742309999885,96.62791229999857,96.61174399999436,0.0176045999978669,None,,,,,,,,,,,,,,,,,,,,,,,,,,,,,,,,,,,,,,,,,,,,,,,,,,,,,,,,,,,,,,,,,,,,,,,,,,,,,,,,,,,B_14,001,2024-11-30_13h02.09.314,untitled,2024.1.5,None,2024-11-30 13h02.22.455829 +0530,
triangle.png,stranger,1,M,,,,,1,3,7,1,,,,,,,,,,,,,96.62791229999857,,,,,,,,,,,,,,,,,,,,,,,,,,,,,,,,,,96.61197840000386,96.62791229999857,97.11148239999602,97.11148239999602,97.11148239999602,97.11148239999602,97.12813979999919,,,,,97.1457711999974,z,97.14601319999201,97.16152159999183,98.16208639999968,98.14597389999835,0.018883299999288283,None,,,,,,,,,,,,,,,,,,,,,,,,,,,,,,,,,,,,,,,,,,,,,,,,,,,,,,,,,,,,,,,,,,,,,,,,,,,,,,,,,,,B_14,001,2024-11-30_13h02.09.314,untitled,2024.1.5,None,2024-11-30 13h02.22.455829 +0530,
square.png,you,1,M,,,,,2,0,8,0,,,,,,,,,,,,,98.16208639999968,,,,,,,,,,,,,,,,,,,,,,,,,,,,,,,,,,98.14620819999254,98.16208639999968,98.64565669999865,98.64565669999865,98.64565669999865,98.64565669999865,98.66210760000104,,,,,98.79668719999609,z,98.79694449999079,98.81237220000185,99.8129515999899,99.79672199999914,0.14895799999067094,None,,,,,,,,,,,,,,,,,,,,,,,,,,,,,,,,,,,,,,,,,,,,,,,,,,,,,,,,,,,,,,,,,,,,,,,,,,,,,,,,,,,B_14,001,2024-11-30_13h02.09.314,untitled,2024.1.5,None,2024-11-30 13h02.22.455829 +0530,
triangle.png,stranger,1,M,,,,,2,1,9,1,,,,,,,,,,,,,99.8129515999899,,,,,,,,,,,,,,,,,,,,,,,,,,,,,,,,,,99.79695269999502,99.8129515999899,100.29674199999135,100.29674199999135,100.29674199999135,100.29674199999135,100.31333289999748,,,,,100.51418410000042,m,100.51442609999503,100.52994259999832,101.53057529999933,101.51405719999457,0.2063023999944562,None,,,,,,,,,,,,,,,,,,,,,,,,,,,,,,,,,,,,,,,,,,,,,,,,,,,,,,,,,,,,,,,,,,,,,,,,,,,,,,,,,,,B_14,001,2024-11-30_13h02.09.314,untitled,2024.1.5,None,2024-11-30 13h02.22.455829 +0530,
square.png,stranger,0,Z,,,,,2,2,10,2,,,,,,,,,,,,,101.53057529999933,,,,,,,,,,,,,,,,,,,,,,,,,,,,,,,,,,101.51428419999138,101.53057529999933,102.01414449998992,102.01414449998992,102.01414449998992,102.01414449998992,102.03070269999444,102.31426329999522,102.31426329999522,102.31426329999522,,102.53168420000293,z,102.53192670000135,102.54767580000043,103.54812839999795,103.53198590000102,0.5123836999991909,None,,,,,,,,,,,,,,,,,,,,,,,,,,,,,,,,,,,,,,,,,,,,,,,,,,,,,,,,,,,,,,,,,,,,,,,,,,,,,,,,,,,B_14,001,2024-11-30_13h02.09.314,untitled,2024.1.5,None,2024-11-30 13h02.22.455829 +0530,
triangle.png,you,0,Z,,,,,2,3,11,3,,,,,,,,,,,,,103.54812839999795,,,,,,,,,,,,,,,,,,,,,,,,,,,,,,,,,,103.53221340000164,103.54812839999795,104.03185479999229,104.03185479999229,104.03185479999229,104.03185479999229,104.04839599999832,,,,,104.11592189999647,m,104.11616639999556,104.1318528999982,105.13207789999433,105.11599379999097,0.0671336999948835,None,,,,,,,,,,,,,,,,,,,,,,,,,,,,,,,,,,,,,,,,,,,,,,,,,,,,,,,,,,,,,,,,,,,,,,,,,,,,,,,,,,,B_14,001,2024-11-30_13h02.09.314,untitled,2024.1.5,None,2024-11-30 13h02.22.455829 +0530,
square.png,you,1,M,,,,,3,0,12,0,,,,,,,,,,,,,105.13207789999433,,,,,,,,,,,,,,,,,,,,,,,,,,,,,,,,,,105.1162309999927,105.13207789999433,105.61564059999364,105.61564059999364,105.61564059999364,105.61564059999364,105.6322533999919,,,,,105.68296039999404,z,105.6832177000033,105.699068300004,106.69958359999873,106.68348920000426,0.050541799995698966,None,,,,,,,,,,,,,,,,,,,,,,,,,,,,,,,,,,,,,,,,,,,,,,,,,,,,,,,,,,,,,,,,,,,,,,,,,,,,,,,,,,,B_14,001,2024-11-30_13h02.09.314,untitled,2024.1.5,None,2024-11-30 13h02.22.455829 +0530,
triangle.png,stranger,1,M,,,,,3,1,13,1,,,,,,,,,,,,,106.69958359999873,,,,,,,,,,,,,,,,,,,,,,,,,,,,,,,,,,106.68371969999862,106.69958359999873,107.18327259999933,107.18327259999933,107.18327259999933,107.18327259999933,107.20013359999575,,,,,107.33405510000011,z,107.33430099999532,107.35008380000363,108.35054220000166,108.33433830000286,0.13469079999777023,None,,,,,,,,,,,,,,,,,,,,,,,,,,,,,,,,,,,,,,,,,,,,,,,,,,,,,,,,,,,,,,,,,,,,,,,,,,,,,,,,,,,B_14,001,2024-11-30_13h02.09.314,untitled,2024.1.5,None,2024-11-30 13h02.22.455829 +0530,
square.png,stranger,0,Z,,,,,3,2,14,2,,,,,,,,,,,,,108.35054220000166,,,,,,,,,,,,,,,,,,,,,,,,,,,,,,,,,,108.33456360000127,108.35054220000166,108.83430020000378,108.83430020000378,108.83430020000378,108.83430020000378,108.8509492000012,109.13409979999415,109.13409979999415,109.13409979999415,,109.30174480000278,z,109.30199179999181,109.31762119999621,110.318317199999,110.30208979999588,0.4564323999948101,None,,,,,,,,,,,,,,,,,,,,,,,,,,,,,,,,,,,,,,,,,,,,,,,,,,,,,,,,,,,,,,,,,,,,,,,,,,,,,,,,,,,B_14,001,2024-11-30_13h02.09.314,untitled,2024.1.5,None,2024-11-30 13h02.22.455829 +0530,
triangle.png,you,0,Z,,,,,3,3,15,3,,,,,,,,,,,,,110.318317199999,,,,,,,,,,,,,,,,,,,,,,,,,,,,,,,,,,110.30232079999405,110.318317199999,110.801950699999,110.801950699999,110.801950699999,110.801950699999,110.81847889999335,,,,,110.98590749999858,z,110.98615630000131,111.00198319999618,112.0022089999984,111.98599950000062,0.1722765000013169,None,,,,,,,,,,,,,,,,,,,,,,,,,,,,,,,,,,,,,,,,,,,,,,,,,,,,,,,,,,,,,,,,,,,,,,,,,,,,,,,,,,,B_14,001,2024-11-30_13h02.09.314,untitled,2024.1.5,None,2024-11-30 13h02.22.455829 +0530,
triangle.png,you,0,Z,,,,,4,0,16,3,,,,,,,,,,,,,112.0022089999984,,,,,,,,,,,,,,,,,,,,,,,,,,,,,,,,,,111.9862293000042,112.0022089999984,112.4860578999942,112.4860578999942,112.4860578999942,112.4860578999942,112.50281179999001,,,,,112.636540099993,z,112.63677529999404,112.65238459999091,113.65309569999226,113.63706579999416,0.14020109998818953,None,,,,,,,,,,,,,,,,,,,,,,,,,,,,,,,,,,,,,,,,,,,,,,,,,,,,,,,,,,,,,,,,,,,,,,,,,,,,,,,,,,,B_14,001,2024-11-30_13h02.09.314,untitled,2024.1.5,None,2024-11-30 13h02.22.455829 +0530,
triangle.png,stranger,1,M,,,,,4,1,17,1,,,,,,,,,,,,,113.65309569999226,,,,,,,,,,,,,,,,,,,,,,,,,,,,,,,,,,113.63729820000299,113.65309569999226,114.1371247999923,114.1371247999923,114.1371247999923,114.1371247999923,114.15338779999001,,,,,114.27104900000268,z,114.27129910000076,114.28698740000254,115.28743729999405,115.27137960000255,0.13306800001009833,None,,,,,,,,,,,,,,,,,,,,,,,,,,,,,,,,,,,,,,,,,,,,,,,,,,,,,,,,,,,,,,,,,,,,,,,,,,,,,,,,,,,B_14,001,2024-11-30_13h02.09.314,untitled,2024.1.5,None,2024-11-30 13h02.22.455829 +0530,
square.png,you,1,M,,,,,4,2,18,0,,,,,,,,,,,,,115.28743729999405,,,,,,,,,,,,,,,,,,,,,,,,,,,,,,,,,,115.27161549999437,115.28743729999405,115.77117789999465,115.77117789999465,115.77117789999465,115.77117789999465,115.7877531999984,,,,,115.87175989999378,z,115.87200780000421,115.88754509999126,116.88826330000302,116.87185280000267,0.09184430001187138,None,,,,,,,,,,,,,,,,,,,,,,,,,,,,,,,,,,,,,,,,,,,,,,,,,,,,,,,,,,,,,,,,,,,,,,,,,,,,,,,,,,,B_14,001,2024-11-30_13h02.09.314,untitled,2024.1.5,None,2024-11-30 13h02.22.455829 +0530,
square.png,stranger,0,Z,,,,,4,3,19,2,,,,,,,,,,,,,116.88826330000302,,,,,,,,,,,,,,,,,,,,,,,,,,,,,,,,,,116.87208099999407,116.88826330000302,117.372002899996,117.372002899996,117.372002899996,117.372002899996,117.38860229999409,,,,,117.5558588999993,z,117.55610519999755,117.57176299999992,118.57255329999316,118.55639800000063,0.17006429999310058,None,,,,,,,,,,,,,,,,,,,,,,,,,,,,,,,,,,,,,,,,,,,,,,,,,,,,,,,,,,,,,,,,,,,,,,,,,,,,,,,,,,,B_14,001,2024-11-30_13h02.09.314,untitled,2024.1.5,None,2024-11-30 13h02.22.455829 +0530,
,,,,,,,,,,,,,,,,,,,,,,,,,,,,,,,,,,,,,,,,,,,,,,,,,,,,,,,,,,,,,,,,,,,,,,,,,,,,,118.5564757999964,118.57255329999316,118.57255329999316,119.54041869999492,space,0.9666352999920491,None,,,,,,,,,,,,,,,,,,,,,,,,,,,,,,,,,,,,,,,,,,,,,,,,,,,,,,,,,,,,,,,,,,,,,,,,,,,,B_14,001,2024-11-30_13h02.09.314,untitled,2024.1.5,None,2024-11-30 13h02.22.455829 +0530,
triangle.png,you,0,Z,,,,,,,,,0,0,0,3,,,,,,,,,119.55614239998977,,,,,,,,,,,,,,,,,,,,,,,,,,,,,,,,,,119.54590549999557,119.55614239998977,120.03976699999475,120.03976699999475,120.03976699999475,120.03976699999475,120.05657580000116,120.33985570000368,120.33985570000368,120.33985570000368,,120.5071753999946,z,120.50787709999713,120.52336350000405,121.52398319999338,121.50772379999398,0.4548151999915717,None,,,,,,,,,,,,,,,,,,,,,,,,,,,,,,,,,,,,,,,,,,,,,,,,,,,,,,,,,,,,,,,,,,,,,,,,,,,,,,,,,,,B_14,001,2024-11-30_13h02.09.314,untitled,2024.1.5,None,2024-11-30 13h02.22.455829 +0530,
square.png,stranger,0,Z,,,,,,,,,0,1,1,2,,,,,,,,,121.52398319999338,,,,,,,,,,,,,,,,,,,,,,,,,,,,,,,,,,121.50807699999132,121.52398319999338,122.00768809999863,122.00768809999863,122.00768809999863,122.00768809999863,122.0241984000022,122.30751600000076,122.30751600000076,122.30751600000076,,122.44158769999922,z,122.44201459999022,122.45778630000132,123.4584307000041,123.44190449999587,0.4192200999968918,None,,,,,,,,,,,,,,,,,,,,,,,,,,,,,,,,,,,,,,,,,,,,,,,,,,,,,,,,,,,,,,,,,,,,,,,,,,,,,,,,,,,B_14,001,2024-11-30_13h02.09.314,untitled,2024.1.5,None,2024-11-30 13h02.22.455829 +0530,
square.png,you,1,M,,,,,,,,,0,2,2,0,,,,,,,,,123.4584307000041,,,,,,,,,,,,,,,,,,,,,,,,,,,,,,,,,,123.4422545999987,123.4584307000041,123.94193239999004,123.94193239999004,123.94193239999004,123.94193239999004,123.95849449999514,,,,,124.00919509999221,z,124.00962949999666,124.02506030000222,125.02560049999738,125.00949290000426,0.06519660000049043,None,,,,,,,,,,,,,,,,,,,,,,,,,,,,,,,,,,,,,,,,,,,,,,,,,,,,,,,,,,,,,,,,,,,,,,,,,,,,,,,,,,,B_14,001,2024-11-30_13h02.09.314,untitled,2024.1.5,None,2024-11-30 13h02.22.455829 +0530,
triangle.png,stranger,1,M,,,,,,,,,0,3,3,1,,,,,,,,,125.02560049999738,,,,,,,,,,,,,,,,,,,,,,,,,,,,,,,,,,125.00984269999026,125.02560049999738,125.5093315999984,125.5093315999984,125.5093315999984,125.5093315999984,125.52609299999312,,,,,125.5432218999922,z,125.5436553999898,125.55912429999444,126.5596835000033,126.5435817999969,0.02036160000716336,None,,,,,,,,,,,,,,,,,,,,,,,,,,,,,,,,,,,,,,,,,,,,,,,,,,,,,,,,,,,,,,,,,,,,,,,,,,,,,,,,,,,B_14,001,2024-11-30_13h02.09.314,untitled,2024.1.5,None,2024-11-30 13h02.22.455829 +0530,
square.png,stranger,0,Z,,,,,,,,,1,0,4,2,,,,,,,,,126.5596835000033,,,,,,,,,,,,,,,,,,,,,,,,,,,,,,,,,,126.54393259999051,126.5596835000033,127.04348729999037,127.04348729999037,127.04348729999037,127.04348729999037,127.06021670000337,,,,,127.21111530000053,z,127.21154370000295,127.22682100000384,128.2272273999988,128.21118070000375,0.15871699999843258,None,,,,,,,,,,,,,,,,,,,,,,,,,,,,,,,,,,,,,,,,,,,,,,,,,,,,,,,,,,,,,,,,,,,,,,,,,,,,,,,,,,,B_14,001,2024-11-30_13h02.09.314,untitled,2024.1.5,None,2024-11-30 13h02.22.455829 +0530,
triangle.png,stranger,1,M,,,,,,,,,1,1,5,1,,,,,,,,,128.2272273999988,,,,,,,,,,,,,,,,,,,,,,,,,,,,,,,,,,128.21154920000117,128.2272273999988,128.71090949999052,128.71090949999052,128.71090949999052,128.71090949999052,128.7276800999971,,,,,128.94507619999058,z,128.945504599993,128.96116930000426,129.96135869999125,129.9452767000039,0.2242714000021806,None,,,,,,,,,,,,,,,,,,,,,,,,,,,,,,,,,,,,,,,,,,,,,,,,,,,,,,,,,,,,,,,,,,,,,,,,,,,,,,,,,,,B_14,001,2024-11-30_13h02.09.314,untitled,2024.1.5,None,2024-11-30 13h02.22.455829 +0530,
square.png,you,1,M,,,,,,,,,1,2,6,0,,,,,,,,,129.96135869999125,,,,,,,,,,,,,,,,,,,,,,,,,,,,,,,,,,129.9456252999953,129.96135869999125,130.44517669999914,130.44517669999914,130.44517669999914,130.44517669999914,130.46171839999442,,,,,130.64579239999875,z,130.6462121999939,130.66188919999695,131.66247999999905,131.64604589999362,0.19746820000000298,None,,,,,,,,,,,,,,,,,,,,,,,,,,,,,,,,,,,,,,,,,,,,,,,,,,,,,,,,,,,,,,,,,,,,,,,,,,,,,,,,,,,B_14,001,2024-11-30_13h02.09.314,untitled,2024.1.5,None,2024-11-30 13h02.22.455829 +0530,
triangle.png,you,0,Z,,,,,,,,,1,3,7,3,,,,,,,,,131.66247999999905,,,,,,,,,,,,,,,,,,,,,,,,,,,,,,,,,,131.64639680000255,131.66247999999905,132.14589489999344,132.14589489999344,132.14589489999344,132.14589489999344,132.16246669999964,,,,,132.31346330000088,z,132.31390959999408,132.32911079999758,133.3301053000032,133.31366410000192,0.16437490000680555,None,,,,,,,,,,,,,,,,,,,,,,,,,,,,,,,,,,,,,,,,,,,,,,,,,,,,,,,,,,,,,,,,,,,,,,,,,,,,,,,,,,,B_14,001,2024-11-30_13h02.09.314,untitled,2024.1.5,None,2024-11-30 13h02.22.455829 +0530,
triangle.png,you,0,Z,,,,,,,,,2,0,8,3,,,,,,,,,133.3301053000032,,,,,,,,,,,,,,,,,,,,,,,,,,,,,,,,,,133.31401839999307,133.3301053000032,133.8137934999977,133.8137934999977,133.8137934999977,133.8137934999977,133.83019419999619,134.11352220000117,134.11352220000117,134.11352220000117,,134.33140309998998,z,134.3318702999968,134.34737109999696,135.34764079999877,135.330967899994,0.513409799998044,None,,,,,,,,,,,,,,,,,,,,,,,,,,,,,,,,,,,,,,,,,,,,,,,,,,,,,,,,,,,,,,,,,,,,,,,,,,,,,,,,,,,B_14,001,2024-11-30_13h02.09.314,untitled,2024.1.5,None,2024-11-30 13h02.22.455829 +0530,
triangle.png,stranger,1,M,,,,,,,,,2,1,9,1,,,,,,,,,135.34764079999877,,,,,,,,,,,,,,,,,,,,,,,,,,,,,,,,,,135.33129239999107,135.34764079999877,135.83148439999786,135.83148439999786,135.83148439999786,135.83148439999786,135.84811179999087,,,,,135.94890380000288,z,135.9493336000014,135.9647502000007,136.9653535999969,136.94889390000026,0.10738169999967795,None,,,,,,,,,,,,,,,,,,,,,,,,,,,,,,,,,,,,,,,,,,,,,,,,,,,,,,,,,,,,,,,,,,,,,,,,,,,,,,,,,,,B_14,001,2024-11-30_13h02.09.314,untitled,2024.1.5,None,2024-11-30 13h02.22.455829 +0530,
square.png,you,1,M,,,,,,,,,2,2,10,0,,,,,,,,,136.9653535999969,,,,,,,,,,,,,,,,,,,,,,,,,,,,,,,,,,136.94924859999446,136.9653535999969,137.44895639999595,137.44895639999595,137.44895639999595,137.44895639999595,137.46559900000284,,,,,137.54970059999323,z,137.55012220000208,137.56534489999467,138.56604930000321,138.5496751000028,0.09002170000167098,None,,,,,,,,,,,,,,,,,,,,,,,,,,,,,,,,,,,,,,,,,,,,,,,,,,,,,,,,,,,,,,,,,,,,,,,,,,,,,,,,,,,B_14,001,2024-11-30_13h02.09.314,untitled,2024.1.5,None,2024-11-30 13h02.22.455829 +0530,
square.png,stranger,0,Z,,,,,,,,,2,3,11,2,,,,,,,,,138.56604930000321,,,,,,,,,,,,,,,,,,,,,,,,,,,,,,,,,,138.55003679999209,138.56604930000321,139.04982289999316,139.04982289999316,139.04982289999316,139.04982289999316,139.06646190000174,,,,,139.11727139999857,m,139.1176900999999,139.13287580000178,140.1335543000023,140.1172979999974,0.05237489999854006,None,,,,,,,,,,,,,,,,,,,,,,,,,,,,,,,,,,,,,,,,,,,,,,,,,,,,,,,,,,,,,,,,,,,,,,,,,,,,,,,,,,,B_14,001,2024-11-30_13h02.09.314,untitled,2024.1.5,None,2024-11-30 13h02.22.455829 +0530,
square.png,stranger,0,Z,,,,,,,,,3,0,12,2,,,,,,,,,140.1335543000023,,,,,,,,,,,,,,,,,,,,,,,,,,,,,,,,,,140.1177047999954,140.1335543000023,140.61701220000396,140.61701220000396,140.61701220000396,140.61701220000396,140.63394459999108,,,,,140.6347483999998,z,140.6351788000029,140.65035080000234,141.65091810000013,141.63459819999116,0.013452600003802218,None,,,,,,,,,,,,,,,,,,,,,,,,,,,,,,,,,,,,,,,,,,,,,,,,,,,,,,,,,,,,,,,,,,,,,,,,,,,,,,,,,,,B_14,001,2024-11-30_13h02.09.314,untitled,2024.1.5,None,2024-11-30 13h02.22.455829 +0530,
square.png,you,1,M,,,,,,,,,3,1,13,0,,,,,,,,,141.65091810000013,,,,,,,,,,,,,,,,,,,,,,,,,,,,,,,,,,141.63494089999585,141.65091810000013,142.13472039999033,142.13472039999033,142.13472039999033,142.13472039999033,142.15130299999146,,,,,142.25225150000188,z,142.25268700000015,142.26790299999993,143.26850350000313,143.25223889999324,0.11584430000220891,None,,,,,,,,,,,,,,,,,,,,,,,,,,,,,,,,,,,,,,,,,,,,,,,,,,,,,,,,,,,,,,,,,,,,,,,,,,,,,,,,,,,B_14,001,2024-11-30_13h02.09.314,untitled,2024.1.5,None,2024-11-30 13h02.22.455829 +0530,
triangle.png,you,0,Z,,,,,,,,,3,2,14,3,,,,,,,,,143.26850350000313,,,,,,,,,,,,,,,,,,,,,,,,,,,,,,,,,,143.2525886999938,143.26850350000313,143.7522200999956,143.7522200999956,143.7522200999956,143.7522200999956,143.76862229999097,,,,,143.81947069999296,z,143.81989410000097,143.83528859999205,144.8357413999911,144.81967470000382,0.05477380000229459,None,,,,,,,,,,,,,,,,,,,,,,,,,,,,,,,,,,,,,,,,,,,,,,,,,,,,,,,,,,,,,,,,,,,,,,,,,,,,,,,,,,,B_14,001,2024-11-30_13h02.09.314,untitled,2024.1.5,None,2024-11-30 13h02.22.455829 +0530,
triangle.png,stranger,1,M,,,,,,,,,3,3,15,1,,,,,,,,,144.8357413999911,,,,,,,,,,,,,,,,,,,,,,,,,,,,,,,,,,144.82001539999328,144.8357413999911,145.31978839999647,145.31978839999647,145.31978839999647,145.31978839999647,145.33627030000207,,,,,145.52025960000174,z,145.52071949999663,145.53606199999922,146.5367927999905,146.52051079999364,0.1861988000018755,None,,,,,,,,,,,,,,,,,,,,,,,,,,,,,,,,,,,,,,,,,,,,,,,,,,,,,,,,,,,,,,,,,,,,,,,,,,,,,,,,,,,B_14,001,2024-11-30_13h02.09.314,untitled,2024.1.5,None,2024-11-30 13h02.22.455829 +0530,
triangle.png,stranger,1,M,,,,,,,,,4,0,16,1,,,,,,,,,146.5367927999905,,,,,,,,,,,,,,,,,,,,,,,,,,,,,,,,,,146.5208552999975,146.5367927999905,147.02035459999752,147.02035459999752,147.02035459999752,147.02035459999752,147.03715199998987,,,,,147.0543980999937,z,147.05483139998978,147.0701429999899,148.07093509999686,148.05447479999566,0.02678159999777563,None,,,,,,,,,,,,,,,,,,,,,,,,,,,,,,,,,,,,,,,,,,,,,,,,,,,,,,,,,,,,,,,,,,,,,,,,,,,,,,,,,,,B_14,001,2024-11-30_13h02.09.314,untitled,2024.1.5,None,2024-11-30 13h02.22.455829 +0530,
square.png,stranger,0,Z,,,,,,,,,4,1,17,2,,,,,,,,,148.07093509999686,,,,,,,,,,,,,,,,,,,,,,,,,,,,,,,,,,148.0548187999957,148.07093509999686,148.554595900001,148.554595900001,148.554595900001,148.554595900001,148.57108049999806,,,,,148.57185339998978,z,148.57227520000015,148.5877482999931,149.58843669999624,149.57207449999987,0.01588110000011511,None,,,,,,,,,,,,,,,,,,,,,,,,,,,,,,,,,,,,,,,,,,,,,,,,,,,,,,,,,,,,,,,,,,,,,,,,,,,,,,,,,,,B_14,001,2024-11-30_13h02.09.314,untitled,2024.1.5,None,2024-11-30 13h02.22.455829 +0530,
triangle.png,you,0,Z,,,,,,,,,4,2,18,3,,,,,,,,,149.58843669999624,,,,,,,,,,,,,,,,,,,,,,,,,,,,,,,,,,149.57241989999602,149.58843669999624,150.07183489999443,150.07183489999443,150.07183489999443,150.07183489999443,150.0887703999906,,,,,150.30591559999448,m,150.30634529999224,150.32183749999967,151.32257689999824,151.30611069999577,0.21795079999719746,None,,,,,,,,,,,,,,,,,,,,,,,,,,,,,,,,,,,,,,,,,,,,,,,,,,,,,,,,,,,,,,,,,,,,,,,,,,,,,,,,,,,B_14,001,2024-11-30_13h02.09.314,untitled,2024.1.5,None,2024-11-30 13h02.22.455829 +0530,
square.png,you,1,M,,,,,,,,,4,3,19,0,,,,,,,,,151.32257689999824,,,,,,,,,,,,,,,,,,,,,,,,,,,,,,,,,,151.30645519999962,151.32257689999824,151.8062687999918,151.8062687999918,151.8062687999918,151.8062687999918,151.8229563999921,152.10635649999313,152.10635649999313,152.10635649999313,,152.17392590000236,m,152.17434089999006,152.1895108000026,153.19011399999727,153.17414409999037,0.36461160000180826,None,,,,,,,,,,,,,,,,,,,,,,,,,,,,,,,,,,,,,,,,,,,,,,,,,,,,,,,,,,,,,,,,,,,,,,,,,,,,,,,,,,,B_14,001,2024-11-30_13h02.09.314,untitled,2024.1.5,None,2024-11-30 13h02.22.455829 +0530,
triangle.png,you,0,Z,,,,,,,,,5,0,20,3,,,,,,,,,153.19011399999727,,,,,,,,,,,,,,,,,,,,,,,,,,,,,,,,,,153.17452760000015,153.19011399999727,153.6738478999905,153.6738478999905,153.6738478999905,153.6738478999905,153.69032249999873,153.97399119999318,153.97399119999318,153.97399119999318,,154.174769499994,z,154.17518829999608,154.19061199999123,155.1913116999931,155.17495249999047,0.4892110000073444,None,,,,,,,,,,,,,,,,,,,,,,,,,,,,,,,,,,,,,,,,,,,,,,,,,,,,,,,,,,,,,,,,,,,,,,,,,,,,,,,,,,,B_14,001,2024-11-30_13h02.09.314,untitled,2024.1.5,None,2024-11-30 13h02.22.455829 +0530,
triangle.png,stranger,1,M,,,,,,,,,5,1,21,1,,,,,,,,,155.1913116999931,,,,,,,,,,,,,,,,,,,,,,,,,,,,,,,,,,155.17531189999136,155.1913116999931,155.67470899999898,155.67470899999898,155.67470899999898,155.67470899999898,155.6914007000014,,,,,155.9257990000042,m,155.92622019999544,155.94141899999522,156.94205389999843,156.92564639999182,0.24426419999508653,None,,,,,,,,,,,,,,,,,,,,,,,,,,,,,,,,,,,,,,,,,,,,,,,,,,,,,,,,,,,,,,,,,,,,,,,,,,,,,,,,,,,B_14,001,2024-11-30_13h02.09.314,untitled,2024.1.5,None,2024-11-30 13h02.22.455829 +0530,
square.png,stranger,0,Z,,,,,,,,,5,2,22,2,,,,,,,,,156.94205389999843,,,,,,,,,,,,,,,,,,,,,,,,,,,,,,,,,,156.92599489999702,156.94205389999843,157.4256056000013,157.4256056000013,157.4256056000013,157.4256056000013,157.44240739999805,,,,,157.52656240000215,z,157.52699650000432,157.54219710000325,158.54272830000264,158.52659829999902,0.09301589999813586,None,,,,,,,,,,,,,,,,,,,,,,,,,,,,,,,,,,,,,,,,,,,,,,,,,,,,,,,,,,,,,,,,,,,,,,,,,,,,,,,,,,,B_14,001,2024-11-30_13h02.09.314,untitled,2024.1.5,None,2024-11-30 13h02.22.455829 +0530,
square.png,you,1,M,,,,,,,,,5,3,23,0,,,,,,,,,158.54272830000264,,,,,,,,,,,,,,,,,,,,,,,,,,,,,,,,,,158.5269488999911,158.54272830000264,159.0268603000004,159.0268603000004,159.0268603000004,159.0268603000004,159.0431605999911,,,,,159.1106044999906,m,159.111026700004,159.1266464999935,160.12710589999915,160.11082560000068,0.08010710000235122,None,,,,,,,,,,,,,,,,,,,,,,,,,,,,,,,,,,,,,,,,,,,,,,,,,,,,,,,,,,,,,,,,,,,,,,,,,,,,,,,,,,,B_14,001,2024-11-30_13h02.09.314,untitled,2024.1.5,None,2024-11-30 13h02.22.455829 +0530,
square.png,stranger,0,Z,,,,,,,,,6,0,24,2,,,,,,,,,160.12710589999915,,,,,,,,,,,,,,,,,,,,,,,,,,,,,,,,,,160.11118189999252,160.12710589999915,160.61058799999591,160.61058799999591,160.61058799999591,160.61058799999591,160.62745600000198,160.91088670000318,160.91088670000318,160.91088670000318,,161.06139139999868,z,161.0618231999979,161.07744880000246,162.07779929999379,162.06174229999306,0.4440734999952838,None,,,,,,,,,,,,,,,,,,,,,,,,,,,,,,,,,,,,,,,,,,,,,,,,,,,,,,,,,,,,,,,,,,,,,,,,,,,,,,,,,,,B_14,001,2024-11-30_13h02.09.314,untitled,2024.1.5,None,2024-11-30 13h02.22.455829 +0530,
square.png,you,1,M,,,,,,,,,6,1,25,0,,,,,,,,,162.07779929999379,,,,,,,,,,,,,,,,,,,,,,,,,,,,,,,,,,162.0620947999996,162.07779929999379,162.5615850000031,162.5615850000031,162.5615850000031,162.5615850000031,162.5784122999903,,,,,162.7957180999947,z,162.79615149999154,162.81176899999264,163.8121159000002,163.79598799999803,0.23277909999887925,None,,,,,,,,,,,,,,,,,,,,,,,,,,,,,,,,,,,,,,,,,,,,,,,,,,,,,,,,,,,,,,,,,,,,,,,,,,,,,,,,,,,B_14,001,2024-11-30_13h02.09.314,untitled,2024.1.5,None,2024-11-30 13h02.22.455829 +0530,
triangle.png,stranger,1,M,,,,,,,,,6,2,26,1,,,,,,,,,163.8121159000002,,,,,,,,,,,,,,,,,,,,,,,,,,,,,,,,,,163.79633869999088,163.8121159000002,164.29607569999644,164.29607569999644,164.29607569999644,164.29607569999644,164.31254600000102,,,,,164.41355739999563,z,164.4139792999922,164.42907669999113,165.42976450000424,165.4135757999902,0.102333600007114,None,,,,,,,,,,,,,,,,,,,,,,,,,,,,,,,,,,,,,,,,,,,,,,,,,,,,,,,,,,,,,,,,,,,,,,,,,,,,,,,,,,,B_14,001,2024-11-30_13h02.09.314,untitled,2024.1.5,None,2024-11-30 13h02.22.455829 +0530,
triangle.png,you,0,Z,,,,,,,,,6,3,27,3,,,,,,,,,165.42976450000424,,,,,,,,,,,,,,,,,,,,,,,,,,,,,,,,,,165.41391580000345,165.42976450000424,165.9133518000017,165.9133518000017,165.9133518000017,165.9133518000017,165.93025659999694,,,,,166.14761929999804,z,166.1480426999915,166.16330400000152,167.16407640000398,167.14766239999153,0.22956500000145752,None,,,,,,,,,,,,,,,,,,,,,,,,,,,,,,,,,,,,,,,,,,,,,,,,,,,,,,,,,,,,,,,,,,,,,,,,,,,,,,,,,,,B_14,001,2024-11-30_13h02.09.314,untitled,2024.1.5,None,2024-11-30 13h02.22.455829 +0530,
triangle.png,you,0,Z,,,,,,,,,7,0,28,3,,,,,,,,,167.16407640000398,,,,,,,,,,,,,,,,,,,,,,,,,,,,,,,,,,167.14800970000215,167.16407640000398,167.64766449999297,167.64766449999297,167.64766449999297,167.64766449999297,167.66413819999434,167.94772539999394,167.94772539999394,167.94772539999394,,168.03165950000403,z,168.03208769999037,168.04781459999504,169.0482095000043,169.03182209999068,0.370699599996442,None,,,,,,,,,,,,,,,,,,,,,,,,,,,,,,,,,,,,,,,,,,,,,,,,,,,,,,,,,,,,,,,,,,,,,,,,,,,,,,,,,,,B_14,001,2024-11-30_13h02.09.314,untitled,2024.1.5,None,2024-11-30 13h02.22.455829 +0530,
square.png,stranger,0,Z,,,,,,,,,7,1,29,2,,,,,,,,,169.0482095000043,,,,,,,,,,,,,,,,,,,,,,,,,,,,,,,,,,169.0321724999958,169.0482095000043,169.53197359999467,169.53197359999467,169.53197359999467,169.53197359999467,169.54849689999537,,,,,169.71591590000025,m,169.71634189999895,169.7318876999925,170.73248209999292,170.71622760000173,0.18244920000142884,None,,,,,,,,,,,,,,,,,,,,,,,,,,,,,,,,,,,,,,,,,,,,,,,,,,,,,,,,,,,,,,,,,,,,,,,,,,,,,,,,,,,B_14,001,2024-11-30_13h02.09.314,untitled,2024.1.5,None,2024-11-30 13h02.22.455829 +0530,
square.png,you,1,M,,,,,,,,,7,2,30,0,,,,,,,,,170.73248209999292,,,,,,,,,,,,,,,,,,,,,,,,,,,,,,,,,,170.7165718000033,170.73248209999292,171.21619890000147,171.21619890000147,171.21619890000147,171.21619890000147,171.23280659999,,,,,171.3001377999899,z,171.30056629999308,171.31594829999085,172.3166918999923,172.3004884999973,0.07426280000072438,None,,,,,,,,,,,,,,,,,,,,,,,,,,,,,,,,,,,,,,,,,,,,,,,,,,,,,,,,,,,,,,,,,,,,,,,,,,,,,,,,,,,B_14,001,2024-11-30_13h02.09.314,untitled,2024.1.5,None,2024-11-30 13h02.22.455829 +0530,
triangle.png,stranger,1,M,,,,,,,,,7,3,31,1,,,,,,,,,172.3166918999923,,,,,,,,,,,,,,,,,,,,,,,,,,,,,,,,,,172.30087900000217,172.3166918999923,172.80012709999573,172.80012709999573,172.80012709999573,172.80012709999573,172.8169737999997,,,,,172.95112929999596,z,172.95155109999178,172.96684500000265,173.96746729999722,173.95118319999892,0.1349947999988217,None,,,,,,,,,,,,,,,,,,,,,,,,,,,,,,,,,,,,,,,,,,,,,,,,,,,,,,,,,,,,,,,,,,,,,,,,,,,,,,,,,,,B_14,001,2024-11-30_13h02.09.314,untitled,2024.1.5,None,2024-11-30 13h02.22.455829 +0530,
triangle.png,you,0,Z,,,,,,,,,8,0,32,3,,,,,,,,,173.96746729999722,,,,,,,,,,,,,,,,,,,,,,,,,,,,,,,,,,173.95152719999896,173.96746729999722,174.45101199999044,174.45101199999044,174.45101199999044,174.45101199999044,174.4678821999987,,,,,174.5018757999933,z,174.5023516999936,174.51766369999677,175.5181356999965,175.50180450000335,0.03521590000309516,None,,,,,,,,,,,,,,,,,,,,,,,,,,,,,,,,,,,,,,,,,,,,,,,,,,,,,,,,,,,,,,,,,,,,,,,,,,,,,,,,,,,B_14,001,2024-11-30_13h02.09.314,untitled,2024.1.5,None,2024-11-30 13h02.22.455829 +0530,
triangle.png,stranger,1,M,,,,,,,,,8,1,33,1,,,,,,,,,175.5181356999965,,,,,,,,,,,,,,,,,,,,,,,,,,,,,,,,,,175.50215849999222,175.5181356999965,176.0017155999958,176.0017155999958,176.0017155999958,176.0017155999958,176.0186046000017,,,,,176.1525210999971,z,176.15294960000028,176.1686139999947,177.16895160000422,177.152934800004,0.1360263000096893,None,,,,,,,,,,,,,,,,,,,,,,,,,,,,,,,,,,,,,,,,,,,,,,,,,,,,,,,,,,,,,,,,,,,,,,,,,,,,,,,,,,,B_14,001,2024-11-30_13h02.09.314,untitled,2024.1.5,None,2024-11-30 13h02.22.455829 +0530,
square.png,stranger,0,Z,,,,,,,,,8,2,34,2,,,,,,,,,177.16895160000422,,,,,,,,,,,,,,,,,,,,,,,,,,,,,,,,,,177.15327850000176,177.16895160000422,177.65289759999723,177.65289759999723,177.65289759999723,177.65289759999723,177.66931260000274,177.95258650000324,177.95258650000324,177.95258650000324,,178.02025049999065,z,178.02068159999908,178.03629259999434,179.03684049998992,179.02030679999734,0.3583792999997968,None,,,,,,,,,,,,,,,,,,,,,,,,,,,,,,,,,,,,,,,,,,,,,,,,,,,,,,,,,,,,,,,,,,,,,,,,,,,,,,,,,,,B_14,001,2024-11-30_13h02.09.314,untitled,2024.1.5,None,2024-11-30 13h02.22.455829 +0530,
square.png,you,1,M,,,,,,,,,8,3,35,0,,,,,,,,,179.03684049998992,,,,,,,,,,,,,,,,,,,,,,,,,,,,,,,,,,179.02065249999578,179.03684049998992,179.52030580000428,179.52030580000428,179.52030580000428,179.52030580000428,179.53697879999527,,,,,179.55432889999065,z,179.55474949999189,179.5703930000018,180.57070129999192,180.55476259998977,0.030510600001434796,None,,,,,,,,,,,,,,,,,,,,,,,,,,,,,,,,,,,,,,,,,,,,,,,,,,,,,,,,,,,,,,,,,,,,,,,,,,,,,,,,,,,B_14,001,2024-11-30_13h02.09.314,untitled,2024.1.5,None,2024-11-30 13h02.22.455829 +0530,
triangle.png,stranger,1,M,,,,,,,,,9,0,36,1,,,,,,,,,180.57070129999192,,,,,,,,,,,,,,,,,,,,,,,,,,,,,,,,,,180.55515780000133,180.57070129999192,181.05440349999117,181.05440349999117,181.05440349999117,181.05440349999117,181.0712773999985,,,,,181.15544989999034,z,181.15586830000393,181.17101209999237,182.17173689999618,182.15523950000352,0.0994704000040656,None,,,,,,,,,,,,,,,,,,,,,,,,,,,,,,,,,,,,,,,,,,,,,,,,,,,,,,,,,,,,,,,,,,,,,,,,,,,,,,,,,,,B_14,001,2024-11-30_13h02.09.314,untitled,2024.1.5,None,2024-11-30 13h02.22.455829 +0530,
square.png,stranger,0,Z,,,,,,,,,9,1,37,2,,,,,,,,,182.17173689999618,,,,,,,,,,,,,,,,,,,,,,,,,,,,,,,,,,182.1555837999913,182.17173689999618,182.65528029999405,182.65528029999405,182.65528029999405,182.65528029999405,182.67207190000045,,,,,182.87282699999923,z,182.87325550000241,182.88868920000095,183.88917769999534,183.87302699999418,0.2023260999994818,None,,,,,,,,,,,,,,,,,,,,,,,,,,,,,,,,,,,,,,,,,,,,,,,,,,,,,,,,,,,,,,,,,,,,,,,,,,,,,,,,,,,B_14,001,2024-11-30_13h02.09.314,untitled,2024.1.5,None,2024-11-30 13h02.22.455829 +0530,
square.png,you,1,M,,,,,,,,,9,2,38,0,,,,,,,,,183.88917769999534,,,,,,,,,,,,,,,,,,,,,,,,,,,,,,,,,,183.8733740000025,183.88917769999534,184.37295389999053,184.37295389999053,184.37295389999053,184.37295389999053,184.3893379999936,,,,,184.5903319999925,z,184.59078649998992,184.60633359999338,185.60657089999586,185.59044519999588,0.2102397000126075,None,,,,,,,,,,,,,,,,,,,,,,,,,,,,,,,,,,,,,,,,,,,,,,,,,,,,,,,,,,,,,,,,,,,,,,,,,,,,,,,,,,,B_14,001,2024-11-30_13h02.09.314,untitled,2024.1.5,None,2024-11-30 13h02.22.455829 +0530,
triangle.png,you,0,Z,,,,,,,,,9,3,39,3,,,,,,,,,185.60657089999586,,,,,,,,,,,,,,,,,,,,,,,,,,,,,,,,,,185.59079570000176,185.60657089999586,186.09056329999294,186.09056329999294,186.09056329999294,186.09056329999294,186.10714910000388,,,,,186.20790589999524,z,186.20832479999808,186.22362219999195,187.22427569999127,187.20799909999187,0.11508950000279583,None,,,,,,,,,,,,,,,,,,,,,,,,,,,,,,,,,,,,,,,,,,,,,,,,,,,,,,,,,,,,,,,,,,,,,,,,,,,,,,,,,,,B_14,001,2024-11-30_13h02.09.314,untitled,2024.1.5,None,2024-11-30 13h02.22.455829 +0530,
triangle.png,stranger,1,M,,,,,,,,,10,0,40,1,,,,,,,,,187.22427569999127,,,,,,,,,,,,,,,,,,,,,,,,,,,,,,,,,,187.20834569999715,187.22427569999127,187.70770990000165,187.70770990000165,187.70770990000165,187.70770990000165,187.7243499000033,,,,,187.74188299999514,z,187.74230939999688,187.75786250000237,188.75824919999286,188.74211829999695,0.02304129999538418,None,,,,,,,,,,,,,,,,,,,,,,,,,,,,,,,,,,,,,,,,,,,,,,,,,,,,,,,,,,,,,,,,,,,,,,,,,,,,,,,,,,,B_14,001,2024-11-30_13h02.09.314,untitled,2024.1.5,None,2024-11-30 13h02.22.455829 +0530,
square.png,stranger,0,Z,,,,,,,,,10,1,41,2,,,,,,,,,188.75824919999286,,,,,,,,,,,,,,,,,,,,,,,,,,,,,,,,,,188.7424694999936,188.75824919999286,189.24214349999966,189.24214349999966,189.24214349999966,189.24214349999966,189.25857609999366,,,,,189.2762270999956,z,189.27665559999878,189.29177209999762,190.29236609999498,190.27619859999686,0.024960599999758415,None,,,,,,,,,,,,,,,,,,,,,,,,,,,,,,,,,,,,,,,,,,,,,,,,,,,,,,,,,,,,,,,,,,,,,,,,,,,,,,,,,,,B_14,001,2024-11-30_13h02.09.314,untitled,2024.1.5,None,2024-11-30 13h02.22.455829 +0530,
triangle.png,you,0,Z,,,,,,,,,10,2,42,3,,,,,,,,,190.29236609999498,,,,,,,,,,,,,,,,,,,,,,,,,,,,,,,,,,190.27655880000384,190.29236609999498,190.77627609999035,190.77627609999035,190.77627609999035,190.77627609999035,190.7928971999936,,,,,190.86018689999764,z,190.8606318999955,190.87601589999394,191.87647429999197,191.8604636999953,0.08189989998936653,None,,,,,,,,,,,,,,,,,,,,,,,,,,,,,,,,,,,,,,,,,,,,,,,,,,,,,,,,,,,,,,,,,,,,,,,,,,,,,,,,,,,B_14,001,2024-11-30_13h02.09.314,untitled,2024.1.5,None,2024-11-30 13h02.22.455829 +0530,
square.png,you,1,M,,,,,,,,,10,3,43,0,,,,,,,,,191.87647429999197,,,,,,,,,,,,,,,,,,,,,,,,,,,,,,,,,,191.86081849999027,191.87647429999197,192.36018580000382,192.36018580000382,192.36018580000382,192.36018580000382,192.3770058999944,,,,,192.394432400004,z,192.39486059999035,192.4102447000041,193.41082229999301,193.39429299999028,0.026668100006645545,None,,,,,,,,,,,,,,,,,,,,,,,,,,,,,,,,,,,,,,,,,,,,,,,,,,,,,,,,,,,,,,,,,,,,,,,,,,,,,,,,,,,B_14,001,2024-11-30_13h02.09.314,untitled,2024.1.5,None,2024-11-30 13h02.22.455829 +0530,
triangle.png,you,0,Z,,,,,,,,,11,0,44,3,,,,,,,,,193.41082229999301,,,,,,,,,,,,,,,,,,,,,,,,,,,,,,,,,,193.3946419999993,193.41082229999301,193.8945776000037,193.8945776000037,193.8945776000037,193.8945776000037,193.91082239999378,,,,,193.97848879999947,z,193.9789296999952,193.99422989999584,194.99484289999236,194.9785891999927,0.0797887999942759,None,,,,,,,,,,,,,,,,,,,,,,,,,,,,,,,,,,,,,,,,,,,,,,,,,,,,,,,,,,,,,,,,,,,,,,,,,,,,,,,,,,,B_14,001,2024-11-30_13h02.09.314,untitled,2024.1.5,None,2024-11-30 13h02.22.455829 +0530,
square.png,stranger,0,Z,,,,,,,,,11,1,45,2,,,,,,,,,194.99484289999236,,,,,,,,,,,,,,,,,,,,,,,,,,,,,,,,,,194.97893610000028,194.99484289999236,195.47863469998993,195.47863469998993,195.47863469998993,195.47863469998993,195.49502590000338,,,,,195.57920359999116,z,195.5796377999941,195.59518599999137,196.59577200000058,196.57950720000372,0.08461880001414102,None,,,,,,,,,,,,,,,,,,,,,,,,,,,,,,,,,,,,,,,,,,,,,,,,,,,,,,,,,,,,,,,,,,,,,,,,,,,,,,,,,,,B_14,001,2024-11-30_13h02.09.314,untitled,2024.1.5,None,2024-11-30 13h02.22.455829 +0530,
square.png,you,1,M,,,,,,,,,11,2,46,0,,,,,,,,,196.59577200000058,,,,,,,,,,,,,,,,,,,,,,,,,,,,,,,,,,196.579857299992,196.59577200000058,197.07927960000234,197.07927960000234,197.07927960000234,197.07927960000234,197.09611369999766,,,,,197.32996639999328,m,197.33039809999173,197.34588789999543,198.34649250000075,198.3304441999935,0.24713240000710357,None,,,,,,,,,,,,,,,,,,,,,,,,,,,,,,,,,,,,,,,,,,,,,,,,,,,,,,,,,,,,,,,,,,,,,,,,,,,,,,,,,,,B_14,001,2024-11-30_13h02.09.314,untitled,2024.1.5,None,2024-11-30 13h02.22.455829 +0530,
triangle.png,stranger,1,M,,,,,,,,,11,3,47,1,,,,,,,,,198.34649250000075,,,,,,,,,,,,,,,,,,,,,,,,,,,,,,,,,,198.33079700000235,198.34649250000075,198.83002339999075,198.83002339999075,198.83002339999075,198.83002339999075,198.84680279999156,199.130267799992,199.130267799992,199.130267799992,,199.2309924000001,m,199.23142240000016,199.24710609999602,200.24742980000156,200.23125129999244,0.392954999988433,None,,,,,,,,,,,,,,,,,,,,,,,,,,,,,,,,,,,,,,,,,,,,,,,,,,,,,,,,,,,,,,,,,,,,,,,,,,,,,,,,,,,B_14,001,2024-11-30_13h02.09.314,untitled,2024.1.5,None,2024-11-30 13h02.22.455829 +0530,
square.png,stranger,0,Z,,,,,,,,,12,0,48,2,,,,,,,,,200.24742980000156,,,,,,,,,,,,,,,,,,,,,,,,,,,,,,,,,,200.23159959999612,200.24742980000156,200.7313337999949,200.7313337999949,200.7313337999949,200.7313337999949,200.74772289999237,,,,,200.86556619999465,m,200.86598889999732,200.88140929999645,201.88177429999632,201.86557359999279,0.12746850000985432,None,,,,,,,,,,,,,,,,,,,,,,,,,,,,,,,,,,,,,,,,,,,,,,,,,,,,,,,,,,,,,,,,,,,,,,,,,,,,,,,,,,,B_14,001,2024-11-30_13h02.09.314,untitled,2024.1.5,None,2024-11-30 13h02.22.455829 +0530,
square.png,you,1,M,,,,,,,,,12,1,49,0,,,,,,,,,201.88177429999632,,,,,,,,,,,,,,,,,,,,,,,,,,,,,,,,,,201.86591619999672,201.88177429999632,202.36524119999376,202.36524119999376,202.36524119999376,202.36524119999376,202.38191179999558,,,,,202.41593499999726,z,202.4163625999936,202.43180209999264,203.43261509999866,203.41615059999458,0.04196970000339206,None,,,,,,,,,,,,,,,,,,,,,,,,,,,,,,,,,,,,,,,,,,,,,,,,,,,,,,,,,,,,,,,,,,,,,,,,,,,,,,,,,,,B_14,001,2024-11-30_13h02.09.314,untitled,2024.1.5,None,2024-11-30 13h02.22.455829 +0530,
triangle.png,stranger,1,M,,,,,,,,,12,2,50,1,,,,,,,,,203.43261509999866,,,,,,,,,,,,,,,,,,,,,,,,,,,,,,,,,,203.41649529999995,203.43261509999866,203.91635159999714,203.91635159999714,203.91635159999714,203.91635159999714,203.93292429999565,,,,,204.00005429999146,z,204.00049320000107,204.0159627999965,205.016423699999,205.00030469999183,0.07086370000615716,None,,,,,,,,,,,,,,,,,,,,,,,,,,,,,,,,,,,,,,,,,,,,,,,,,,,,,,,,,,,,,,,,,,,,,,,,,,,,,,,,,,,B_14,001,2024-11-30_13h02.09.314,untitled,2024.1.5,None,2024-11-30 13h02.22.455829 +0530,
triangle.png,you,0,Z,,,,,,,,,12,3,51,3,,,,,,,,,205.016423699999,,,,,,,,,,,,,,,,,,,,,,,,,,,,,,,,,,205.00066109999898,205.016423699999,205.50051499999245,205.50051499999245,205.50051499999245,205.50051499999245,205.51703950000228,,,,,205.58453959999315,z,205.58496199999354,205.60034129999985,206.60084839999035,206.5845827000012,0.081833899996127,None,,,,,,,,,,,,,,,,,,,,,,,,,,,,,,,,,,,,,,,,,,,,,,,,,,,,,,,,,,,,,,,,,,,,,,,,,,,,,,,,,,,B_14,001,2024-11-30_13h02.09.314,untitled,2024.1.5,None,2024-11-30 13h02.22.455829 +0530,
square.png,stranger,0,Z,,,,,,,,,13,0,52,2,,,,,,,,,206.60084839999035,,,,,,,,,,,,,,,,,,,,,,,,,,,,,,,,,,206.58492799999658,206.60084839999035,207.08463709999342,207.08463709999342,207.08463709999342,207.08463709999342,207.1010452999908,,,,,207.35199719999218,z,207.35241599999426,207.36796969998977,208.36849110000185,208.35229609999806,0.25468159999581985,None,,,,,,,,,,,,,,,,,,,,,,,,,,,,,,,,,,,,,,,,,,,,,,,,,,,,,,,,,,,,,,,,,,,,,,,,,,,,,,,,,,,B_14,001,2024-11-30_13h02.09.314,untitled,2024.1.5,None,2024-11-30 13h02.22.455829 +0530,
triangle.png,stranger,1,M,,,,,,,,,13,1,53,1,,,,,,,,,208.36849110000185,,,,,,,,,,,,,,,,,,,,,,,,,,,,,,,,,,208.35264499999175,208.36849110000185,208.85201039999083,208.85201039999083,208.85201039999083,208.85201039999083,208.86880889999156,,,,,209.03601860000344,m,209.03644769999664,209.05187539999315,210.05252660000406,210.0363873000024,0.18276470000273548,None,,,,,,,,,,,,,,,,,,,,,,,,,,,,,,,,,,,,,,,,,,,,,,,,,,,,,,,,,,,,,,,,,,,,,,,,,,,,,,,,,,,B_14,001,2024-11-30_13h02.09.314,untitled,2024.1.5,None,2024-11-30 13h02.22.455829 +0530,
square.png,you,1,M,,,,,,,,,13,2,54,0,,,,,,,,,210.05252660000406,,,,,,,,,,,,,,,,,,,,,,,,,,,,,,,,,,210.03681459999643,210.05252660000406,210.53647300000011,210.53647300000011,210.53647300000011,210.53647300000011,210.55289079999784,,,,,210.58689869999944,z,210.58732659999805,210.60269679999328,211.6034609999915,211.5871182999981,0.042315500002587214,None,,,,,,,,,,,,,,,,,,,,,,,,,,,,,,,,,,,,,,,,,,,,,,,,,,,,,,,,,,,,,,,,,,,,,,,,,,,,,,,,,,,B_14,001,2024-11-30_13h02.09.314,untitled,2024.1.5,None,2024-11-30 13h02.22.455829 +0530,
triangle.png,you,0,Z,,,,,,,,,13,3,55,3,,,,,,,,,211.6034609999915,,,,,,,,,,,,,,,,,,,,,,,,,,,,,,,,,,211.58748109999578,211.6034609999915,212.08713649999117,212.08713649999117,212.08713649999117,212.08713649999117,212.10368479999306,,,,,212.15433029999258,m,212.15478299999086,212.17033490000176,213.17096129999845,213.1547159000038,0.06012099998770282,None,,,,,,,,,,,,,,,,,,,,,,,,,,,,,,,,,,,,,,,,,,,,,,,,,,,,,,,,,,,,,,,,,,,,,,,,,,,,,,,,,,,B_14,001,2024-11-30_13h02.09.314,untitled,2024.1.5,None,2024-11-30 13h02.22.455829 +0530,
square.png,stranger,0,Z,,,,,,,,,14,0,56,2,,,,,,,,,213.17096129999845,,,,,,,,,,,,,,,,,,,,,,,,,,,,,,,,,,213.15506119999918,213.17096129999845,213.65440739999758,213.65440739999758,213.65440739999758,213.65440739999758,213.67115280000144,,,,,213.67187219999323,z,213.6722948999959,213.68774959999428,214.68834999999672,214.6721094999957,0.004435900002135895,None,,,,,,,,,,,,,,,,,,,,,,,,,,,,,,,,,,,,,,,,,,,,,,,,,,,,,,,,,,,,,,,,,,,,,,,,,,,,,,,,,,,B_14,001,2024-11-30_13h02.09.314,untitled,2024.1.5,None,2024-11-30 13h02.22.455829 +0530,
square.png,you,1,M,,,,,,,,,14,1,57,0,,,,,,,,,214.68834999999672,,,,,,,,,,,,,,,,,,,,,,,,,,,,,,,,,,214.67245650000405,214.68834999999672,215.1719996000029,215.1719996000029,215.1719996000029,215.1719996000029,215.18869480000285,,,,,215.3895349999948,z,215.38995440000144,215.4053974999988,216.40570429999207,216.3894558000029,0.20245599999907427,None,,,,,,,,,,,,,,,,,,,,,,,,,,,,,,,,,,,,,,,,,,,,,,,,,,,,,,,,,,,,,,,,,,,,,,,,,,,,,,,,,,,B_14,001,2024-11-30_13h02.09.314,untitled,2024.1.5,None,2024-11-30 13h02.22.455829 +0530,
triangle.png,stranger,1,M,,,,,,,,,14,2,58,1,,,,,,,,,216.40570429999207,,,,,,,,,,,,,,,,,,,,,,,,,,,,,,,,,,216.38980150000134,216.40570429999207,216.88963419999345,216.88963419999345,216.88963419999345,216.88963419999345,216.90628549999383,217.18948800000362,217.18948800000362,217.18948800000362,,217.30697949999012,m,217.30741090000083,217.32292099999904,218.32351869999547,218.30709709999792,0.4135112000076333,None,,,,,,,,,,,,,,,,,,,,,,,,,,,,,,,,,,,,,,,,,,,,,,,,,,,,,,,,,,,,,,,,,,,,,,,,,,,,,,,,,,,B_14,001,2024-11-30_13h02.09.314,untitled,2024.1.5,None,2024-11-30 13h02.22.455829 +0530,
triangle.png,you,0,Z,,,,,,,,,14,3,59,3,,,,,,,,,218.32351869999547,,,,,,,,,,,,,,,,,,,,,,,,,,,,,,,,,,218.30744699999923,218.32351869999547,218.80721349999658,218.80721349999658,218.80721349999658,218.80721349999658,218.82385169999907,,,,,218.99099879999994,z,218.99144840000372,219.00728679999884,220.0075813000003,219.99115319999692,0.179725399997551,None,,,,,,,,,,,,,,,,,,,,,,,,,,,,,,,,,,,,,,,,,,,,,,,,,,,,,,,,,,,,,,,,,,,,,,,,,,,,,,,,,,,B_14,001,2024-11-30_13h02.09.314,untitled,2024.1.5,None,2024-11-30 13h02.22.455829 +0530,
square.png,stranger,0,Z,,,,,,,,,15,0,60,2,,,,,,,,,220.0075813000003,,,,,,,,,,,,,,,,,,,,,,,,,,,,,,,,,,219.9915684000007,220.0075813000003,220.49143339999137,220.49143339999137,220.49143339999137,220.49143339999137,220.50796339999943,220.79149039999174,220.79149039999174,220.79149039999174,,220.77573829999892,m,220.77615229999356,220.79149039999174,221.79191529999662,221.7756531999912,0.2754512999963481,None,,,,,,,,,,,,,,,,,,,,,,,,,,,,,,,,,,,,,,,,,,,,,,,,,,,,,,,,,,,,,,,,,,,,,,,,,,,,,,,,,,,B_14,001,2024-11-30_13h02.09.314,untitled,2024.1.5,None,2024-11-30 13h02.22.455829 +0530,
square.png,you,1,M,,,,,,,,,15,1,61,0,,,,,,,,,221.79191529999662,,,,,,,,,,,,,,,,,,,,,,,,,,,,,,,,,,221.775997299992,221.79191529999662,222.27542550000362,222.27542550000362,222.27542550000362,222.27542550000362,222.2920174000028,,,,,222.54317069999524,z,222.54358729999512,222.55901070000255,223.55948460000218,223.54313259999617,0.2553578999941237,None,,,,,,,,,,,,,,,,,,,,,,,,,,,,,,,,,,,,,,,,,,,,,,,,,,,,,,,,,,,,,,,,,,,,,,,,,,,,,,,,,,,B_14,001,2024-11-30_13h02.09.314,untitled,2024.1.5,None,2024-11-30 13h02.22.455829 +0530,
triangle.png,stranger,1,M,,,,,,,,,15,2,62,1,,,,,,,,,223.55948460000218,,,,,,,,,,,,,,,,,,,,,,,,,,,,,,,,,,223.54347799999232,223.55948460000218,224.043141999995,224.043141999995,224.043141999995,224.043141999995,224.0597790000029,224.3430534999934,224.3430534999934,224.3430534999934,,224.3274492999917,z,224.32787009999447,224.3430534999934,225.34370519999356,225.32736830000067,0.2799339999910444,None,,,,,,,,,,,,,,,,,,,,,,,,,,,,,,,,,,,,,,,,,,,,,,,,,,,,,,,,,,,,,,,,,,,,,,,,,,,,,,,,,,,B_14,001,2024-11-30_13h02.09.314,untitled,2024.1.5,None,2024-11-30 13h02.22.455829 +0530,
triangle.png,you,0,Z,,,,,,,,,15,3,63,3,,,,,,,,,225.34370519999356,,,,,,,,,,,,,,,,,,,,,,,,,,,,,,,,,,225.3277129999915,225.34370519999356,225.82738719999907,225.82738719999907,225.82738719999907,225.82738719999907,225.84400169999572,226.12743559999217,226.12743559999217,226.12743559999217,,226.22820769999817,z,226.22863019999932,226.24425669999619,227.24463220000325,227.2283221999969,0.39422620000550523,None,,,,,,,,,,,,,,,,,,,,,,,,,,,,,,,,,,,,,,,,,,,,,,,,,,,,,,,,,,,,,,,,,,,,,,,,,,,,,,,,,,,B_14,001,2024-11-30_13h02.09.314,untitled,2024.1.5,None,2024-11-30 13h02.22.455829 +0530,
square.png,stranger,0,Z,,,,,,,,,16,0,64,2,,,,,,,,,227.24463220000325,,,,,,,,,,,,,,,,,,,,,,,,,,,,,,,,,,227.22867860000406,227.24463220000325,227.7282292000018,227.7282292000018,227.7282292000018,227.7282292000018,227.7450225999928,228.0284232999984,228.0284232999984,228.0284232999984,,228.0623162999982,z,228.06274120000307,228.07843359999242,229.07897519999824,229.06263600000239,0.3303159000060987,None,,,,,,,,,,,,,,,,,,,,,,,,,,,,,,,,,,,,,,,,,,,,,,,,,,,,,,,,,,,,,,,,,,,,,,,,,,,,,,,,,,,B_14,001,2024-11-30_13h02.09.314,untitled,2024.1.5,None,2024-11-30 13h02.22.455829 +0530,
triangle.png,you,0,Z,,,,,,,,,16,1,65,3,,,,,,,,,229.07897519999824,,,,,,,,,,,,,,,,,,,,,,,,,,,,,,,,,,229.0629798000009,229.07897519999824,229.56277330000012,229.56277330000012,229.56277330000012,229.56277330000012,229.5793291000009,229.86244420000003,229.86244420000003,229.86244420000003,,229.9299120999931,z,229.93033619999187,229.94598019999103,230.94657949999964,230.93054129999655,0.3634228000009898,None,,,,,,,,,,,,,,,,,,,,,,,,,,,,,,,,,,,,,,,,,,,,,,,,,,,,,,,,,,,,,,,,,,,,,,,,,,,,,,,,,,,B_14,001,2024-11-30_13h02.09.314,untitled,2024.1.5,None,2024-11-30 13h02.22.455829 +0530,
square.png,you,1,M,,,,,,,,,16,2,66,0,,,,,,,,,230.94657949999964,,,,,,,,,,,,,,,,,,,,,,,,,,,,,,,,,,230.9308877000003,230.94657949999964,231.43050539999967,231.43050539999967,231.43050539999967,231.43050539999967,231.44681110000238,,,,,231.53088550000393,z,231.5313540999923,231.5469599999924,232.54749470000388,232.53113139999914,0.09244790000957437,None,,,,,,,,,,,,,,,,,,,,,,,,,,,,,,,,,,,,,,,,,,,,,,,,,,,,,,,,,,,,,,,,,,,,,,,,,,,,,,,,,,,B_14,001,2024-11-30_13h02.09.314,untitled,2024.1.5,None,2024-11-30 13h02.22.455829 +0530,
triangle.png,stranger,1,M,,,,,,,,,16,3,67,1,,,,,,,,,232.54749470000388,,,,,,,,,,,,,,,,,,,,,,,,,,,,,,,,,,232.5314909000008,232.54749470000388,233.03104919999896,233.03104919999896,233.03104919999896,233.03104919999896,233.04778330000408,233.33097889999044,233.33097889999044,233.33097889999044,,233.38164579999284,z,233.38206479999644,233.39787099999376,234.39822560000175,234.38224679999985,0.3355630000005476,None,,,,,,,,,,,,,,,,,,,,,,,,,,,,,,,,,,,,,,,,,,,,,,,,,,,,,,,,,,,,,,,,,,,,,,,,,,,,,,,,,,,B_14,001,2024-11-30_13h02.09.314,untitled,2024.1.5,None,2024-11-30 13h02.22.455829 +0530,
square.png,you,1,M,,,,,,,,,17,0,68,0,,,,,,,,,234.39822560000175,,,,,,,,,,,,,,,,,,,,,,,,,,,,,,,,,,234.3825938999944,234.39822560000175,234.88201649999246,234.88201649999246,234.88201649999246,234.88201649999246,234.89869580000232,235.18200049998995,235.18200049998995,235.18200049998995,,235.21605160000036,z,235.2164788999944,235.2320452999993,236.23262159999285,236.2163387000037,0.3289673999970546,None,,,,,,,,,,,,,,,,,,,,,,,,,,,,,,,,,,,,,,,,,,,,,,,,,,,,,,,,,,,,,,,,,,,,,,,,,,,,,,,,,,,B_14,001,2024-11-30_13h02.09.314,untitled,2024.1.5,None,2024-11-30 13h02.22.455829 +0530,
triangle.png,you,0,Z,,,,,,,,,17,1,69,3,,,,,,,,,236.23262159999285,,,,,,,,,,,,,,,,,,,,,,,,,,,,,,,,,,236.21669739999925,236.23262159999285,236.7162973999948,236.7162973999948,236.7162973999948,236.7162973999948,236.73261209999328,237.01611359999515,237.01611359999515,237.01611359999515,,237.2336646999902,z,237.2340977999993,237.24975740000082,238.2502542000002,238.23393889999716,0.5144032000098377,None,,,,,,,,,,,,,,,,,,,,,,,,,,,,,,,,,,,,,,,,,,,,,,,,,,,,,,,,,,,,,,,,,,,,,,,,,,,,,,,,,,,B_14,001,2024-11-30_13h02.09.314,untitled,2024.1.5,None,2024-11-30 13h02.22.455829 +0530,
triangle.png,stranger,1,M,,,,,,,,,17,2,70,1,,,,,,,,,238.2502542000002,,,,,,,,,,,,,,,,,,,,,,,,,,,,,,,,,,238.23428940000304,238.2502542000002,238.73403989999497,238.73403989999497,238.73403989999497,238.73403989999497,238.75056230000337,239.03421319999325,239.03421319999325,239.03421319999325,,239.0180088999914,z,239.0184312999918,239.03421319999325,240.03445739999006,240.01849999999104,0.28060669999103993,None,,,,,,,,,,,,,,,,,,,,,,,,,,,,,,,,,,,,,,,,,,,,,,,,,,,,,,,,,,,,,,,,,,,,,,,,,,,,,,,,,,,B_14,001,2024-11-30_13h02.09.314,untitled,2024.1.5,None,2024-11-30 13h02.22.455829 +0530,
square.png,stranger,0,Z,,,,,,,,,17,3,71,2,,,,,,,,,240.03445739999006,,,,,,,,,,,,,,,,,,,,,,,,,,,,,,,,,,240.01885710000352,240.03445739999006,240.5181797999976,240.5181797999976,240.5181797999976,240.5181797999976,240.53478760000144,,,,,240.73580460000085,z,240.73623349999252,240.7518551999965,241.7521912999946,241.73578319999797,0.21533740000450052,None,,,,,,,,,,,,,,,,,,,,,,,,,,,,,,,,,,,,,,,,,,,,,,,,,,,,,,,,,,,,,,,,,,,,,,,,,,,,,,,,,,,B_14,001,2024-11-30_13h02.09.314,untitled,2024.1.5,None,2024-11-30 13h02.22.455829 +0530,
square.png,you,1,M,,,,,,,,,18,0,72,0,,,,,,,,,241.7521912999946,,,,,,,,,,,,,,,,,,,,,,,,,,,,,,,,,,241.73612960000173,241.7521912999946,242.2358069000038,242.2358069000038,242.2358069000038,242.2358069000038,242.25254760000098,242.53565700000036,242.53565700000036,242.53565700000036,,242.67011359999015,z,242.67053279999527,242.68591200000083,243.686392100004,243.67022489999363,0.4269579999963753,None,,,,,,,,,,,,,,,,,,,,,,,,,,,,,,,,,,,,,,,,,,,,,,,,,,,,,,,,,,,,,,,,,,,,,,,,,,,,,,,,,,,B_14,001,2024-11-30_13h02.09.314,untitled,2024.1.5,None,2024-11-30 13h02.22.455829 +0530,
square.png,stranger,0,Z,,,,,,,,,18,1,73,2,,,,,,,,,243.686392100004,,,,,,,,,,,,,,,,,,,,,,,,,,,,,,,,,,243.67057669999485,243.686392100004,244.170022899998,244.170022899998,244.170022899998,244.170022899998,244.18649929999083,,,,,244.43744999999763,z,244.43788489999133,244.4532823999907,245.45412310000393,245.43767899999511,0.26422399999864865,None,,,,,,,,,,,,,,,,,,,,,,,,,,,,,,,,,,,,,,,,,,,,,,,,,,,,,,,,,,,,,,,,,,,,,,,,,,,,,,,,,,,B_14,001,2024-11-30_13h02.09.314,untitled,2024.1.5,None,2024-11-30 13h02.22.455829 +0530,
triangle.png,stranger,1,M,,,,,,,,,18,2,74,1,,,,,,,,,245.45412310000393,,,,,,,,,,,,,,,,,,,,,,,,,,,,,,,,,,245.43802229998983,245.45412310000393,245.93764979999105,245.93764979999105,245.93764979999105,245.93764979999105,245.95439810000244,246.23768340000242,246.23768340000242,246.23768340000242,,246.32171380000364,z,246.32214679999743,246.3375861999957,247.33837149999454,247.32214679999743,0.36783429999195505,None,,,,,,,,,,,,,,,,,,,,,,,,,,,,,,,,,,,,,,,,,,,,,,,,,,,,,,,,,,,,,,,,,,,,,,,,,,,,,,,,,,,B_14,001,2024-11-30_13h02.09.314,untitled,2024.1.5,None,2024-11-30 13h02.22.455829 +0530,
triangle.png,you,0,Z,,,,,,,,,18,3,75,3,,,,,,,,,247.33837149999454,,,,,,,,,,,,,,,,,,,,,,,,,,,,,,,,,,247.32248819999222,247.33837149999454,247.82218380000268,247.82218380000268,247.82218380000268,247.82218380000268,247.83868220000295,248.1219926999911,248.1219926999911,248.1219926999911,,248.38960809999844,z,248.3900244999968,248.40549019999162,249.40593239999725,249.38985259999754,0.5646715000038967,None,,,,,,,,,,,,,,,,,,,,,,,,,,,,,,,,,,,,,,,,,,,,,,,,,,,,,,,,,,,,,,,,,,,,,,,,,,,,,,,,,,,B_14,001,2024-11-30_13h02.09.314,untitled,2024.1.5,None,2024-11-30 13h02.22.455829 +0530,
square.png,you,1,M,,,,,,,,,19,0,76,0,,,,,,,,,249.40593239999725,,,,,,,,,,,,,,,,,,,,,,,,,,,,,,,,,,249.3901967999991,249.40593239999725,249.88968389999354,249.88968389999354,249.88968389999354,249.88968389999354,249.90633899999375,,,,,250.0236081000039,z,250.0240283000021,250.03956180000387,251.0402649000025,251.02370119999978,0.12015240000619087,None,,,,,,,,,,,,,,,,,,,,,,,,,,,,,,,,,,,,,,,,,,,,,,,,,,,,,,,,,,,,,,,,,,,,,,,,,,,,,,,,,,,B_14,001,2024-11-30_13h02.09.314,untitled,2024.1.5,None,2024-11-30 13h02.22.455829 +0530,
triangle.png,stranger,1,M,,,,,,,,,19,1,77,1,,,,,,,,,251.0402649000025,,,,,,,,,,,,,,,,,,,,,,,,,,,,,,,,,,251.02405939999153,251.0402649000025,251.52375739999115,251.52375739999115,251.52375739999115,251.52375739999115,251.5402849999955,251.82380230000126,251.82380230000126,251.82380230000126,252.62418759999855,252.60810990000027,None,252.60829699999886,252.62418759999855,253.62480140000116,253.6085599999933,,,,,,,,,,,,,,,,,,,,,,,,,,,,,,,,,,,,,,,,,,,,,,,,,,,,,,,,,,,,,,,,,,,,,,,,,,,,,,,,,,,,,B_14,001,2024-11-30_13h02.09.314,untitled,2024.1.5,None,2024-11-30 13h02.22.455829 +0530,
triangle.png,you,0,Z,,,,,,,,,19,2,78,3,,,,,,,,,253.62480140000116,,,,,,,,,,,,,,,,,,,,,,,,,,,,,,,,,,253.60890929999005,253.62480140000116,254.1253402000002,254.1253402000002,254.1253402000002,254.1253402000002,254.1253402000002,254.42513180000242,254.42513180000242,254.42513180000242,,254.49245340000198,z,254.492874699994,254.50869729999977,255.50924759999907,255.49293300000136,0.3560399999987567,None,,,,,,,,,,,,,,,,,,,,,,,,,,,,,,,,,,,,,,,,,,,,,,,,,,,,,,,,,,,,,,,,,,,,,,,,,,,,,,,,,,,B_14,001,2024-11-30_13h02.09.314,untitled,2024.1.5,None,2024-11-30 13h02.22.455829 +0530,
square.png,stranger,0,Z,,,,,,,,,19,3,79,2,,,,,,,,,255.50924759999907,,,,,,,,,,,,,,,,,,,,,,,,,,,,,,,,,,255.49328019999666,255.50924759999907,255.9929112999962,255.9929112999962,255.9929112999962,255.9929112999962,256.00946859999385,,,,,256.26037570000335,z,256.260798599993,256.2761499999906,257.27651830000104,257.26037160000124,0.2619964999903459,None,,,,,,,,,,,,,,,,,,,,,,,,,,,,,,,,,,,,,,,,,,,,,,,,,,,,,,,,,,,,,,,,,,,,,,,,,,,,,,,,,,,B_14,001,2024-11-30_13h02.09.314,untitled,2024.1.5,None,2024-11-30 13h02.22.455829 +0530,
triangle.png,stranger,1,M,,,,,,,,,20,0,80,1,,,,,,,,,257.27651830000104,,,,,,,,,,,,,,,,,,,,,,,,,,,,,,,,,,257.2607263999962,257.27651830000104,257.7603658000007,257.7603658000007,257.7603658000007,257.7603658000007,257.77718879999884,258.0603334999905,258.0603334999905,258.0603334999905,,258.1445664999919,z,258.1449813999934,258.16063659999054,259.1609730999917,259.1448501999985,0.37058560000150464,None,,,,,,,,,,,,,,,,,,,,,,,,,,,,,,,,,,,,,,,,,,,,,,,,,,,,,,,,,,,,,,,,,,,,,,,,,,,,,,,,,,,B_14,001,2024-11-30_13h02.09.314,untitled,2024.1.5,None,2024-11-30 13h02.22.455829 +0530,
triangle.png,you,0,Z,,,,,,,,,20,1,81,3,,,,,,,,,259.1609730999917,,,,,,,,,,,,,,,,,,,,,,,,,,,,,,,,,,259.14519409999775,259.1609730999917,259.64465049999126,259.64465049999126,259.64465049999126,259.64465049999126,259.66141129999596,,,,,259.91210239999054,z,259.9125304999907,259.92815829999745,260.9283800999983,260.91217830000096,0.2615845999971498,None,,,,,,,,,,,,,,,,,,,,,,,,,,,,,,,,,,,,,,,,,,,,,,,,,,,,,,,,,,,,,,,,,,,,,,,,,,,,,,,,,,,B_14,001,2024-11-30_13h02.09.314,untitled,2024.1.5,None,2024-11-30 13h02.22.455829 +0530,
square.png,stranger,0,Z,,,,,,,,,20,2,82,2,,,,,,,,,260.9283800999983,,,,,,,,,,,,,,,,,,,,,,,,,,,,,,,,,,260.91252270000405,260.9283800999983,261.41215009998996,261.41215009998996,261.41215009998996,261.41215009998996,261.42885739999474,261.71218370000133,261.71218370000133,261.71218370000133,262.5127984999999,262.49633700000413,None,262.4965247999935,262.5127984999999,263.51317279999785,263.497062800001,,,,,,,,,,,,,,,,,,,,,,,,,,,,,,,,,,,,,,,,,,,,,,,,,,,,,,,,,,,,,,,,,,,,,,,,,,,,,,,,,,,,,B_14,001,2024-11-30_13h02.09.314,untitled,2024.1.5,None,2024-11-30 13h02.22.455829 +0530,
square.png,you,1,M,,,,,,,,,20,3,83,0,,,,,,,,,263.51317279999785,,,,,,,,,,,,,,,,,,,,,,,,,,,,,,,,,,263.49741070000164,263.51317279999785,264.01361599999655,264.01361599999655,264.01361599999655,264.01361599999655,264.01361599999655,264.31350329999987,264.31350329999987,264.31350329999987,,264.6477954000002,z,264.64822259999346,264.66369990000385,265.6644601000007,265.64818039999227,0.6237293000012869,None,,,,,,,,,,,,,,,,,,,,,,,,,,,,,,,,,,,,,,,,,,,,,,,,,,,,,,,,,,,,,,,,,,,,,,,,,,,,,,,,,,,B_14,001,2024-11-30_13h02.09.314,untitled,2024.1.5,None,2024-11-30 13h02.22.455829 +0530,
triangle.png,stranger,1,M,,,,,,,,,21,0,84,1,,,,,,,,,265.6644601000007,,,,,,,,,,,,,,,,,,,,,,,,,,,,,,,,,,265.648526399993,265.6644601000007,266.1480966999952,266.1480966999952,266.1480966999952,266.1480966999952,266.1647585000028,,,,,266.38232360000256,z,266.3827411999955,266.39818849999574,267.39848599999095,267.382154299994,0.21786180000344757,None,,,,,,,,,,,,,,,,,,,,,,,,,,,,,,,,,,,,,,,,,,,,,,,,,,,,,,,,,,,,,,,,,,,,,,,,,,,,,,,,,,,B_14,001,2024-11-30_13h02.09.314,untitled,2024.1.5,None,2024-11-30 13h02.22.455829 +0530,
square.png,stranger,0,Z,,,,,,,,,21,1,85,2,,,,,,,,,267.39848599999095,,,,,,,,,,,,,,,,,,,,,,,,,,,,,,,,,,267.3824983999948,267.39848599999095,267.8823740999942,267.8823740999942,267.8823740999942,267.8823740999942,267.8989822000003,,,,,268.0662253999908,z,268.06665369999246,268.08211859999574,269.08267969998997,269.0662403000024,0.17992019999655895,None,,,,,,,,,,,,,,,,,,,,,,,,,,,,,,,,,,,,,,,,,,,,,,,,,,,,,,,,,,,,,,,,,,,,,,,,,,,,,,,,,,,B_14,001,2024-11-30_13h02.09.314,untitled,2024.1.5,None,2024-11-30 13h02.22.455829 +0530,
triangle.png,you,0,Z,,,,,,,,,21,2,86,3,,,,,,,,,269.08267969998997,,,,,,,,,,,,,,,,,,,,,,,,,,,,,,,,,,269.06659010000294,269.08267969998997,269.5664198000013,269.5664198000013,269.5664198000013,269.5664198000013,269.58317830000306,,,,,269.78373049999936,z,269.7841735999973,269.799660699995,270.8003660999966,270.78387149999617,0.20833939999283757,None,,,,,,,,,,,,,,,,,,,,,,,,,,,,,,,,,,,,,,,,,,,,,,,,,,,,,,,,,,,,,,,,,,,,,,,,,,,,,,,,,,,B_14,001,2024-11-30_13h02.09.314,untitled,2024.1.5,None,2024-11-30 13h02.22.455829 +0530,
square.png,you,1,M,,,,,,,,,21,3,87,0,,,,,,,,,270.8003660999966,,,,,,,,,,,,,,,,,,,,,,,,,,,,,,,,,,270.78421030000027,270.8003660999966,271.28403999999864,271.28403999999864,271.28403999999864,271.28403999999864,271.30056940000213,271.583859499995,271.583859499995,271.583859499995,,271.6011467999924,z,271.6015641999984,271.61723849999544,272.61797849999857,272.6015527999989,0.30550239999138284,None,,,,,,,,,,,,,,,,,,,,,,,,,,,,,,,,,,,,,,,,,,,,,,,,,,,,,,,,,,,,,,,,,,,,,,,,,,,,,,,,,,,B_14,001,2024-11-30_13h02.09.314,untitled,2024.1.5,None,2024-11-30 13h02.22.455829 +0530,
square.png,stranger,0,Z,,,,,,,,,22,0,88,2,,,,,,,,,272.61797849999857,,,,,,,,,,,,,,,,,,,,,,,,,,,,,,,,,,272.6018941999937,272.61797849999857,273.101634199993,273.101634199993,273.101634199993,273.101634199993,273.1182401999977,,,,,273.31931469999836,m,273.3197338000027,273.3349906999938,274.33534320000035,274.31920929999615,0.2051359000033699,None,,,,,,,,,,,,,,,,,,,,,,,,,,,,,,,,,,,,,,,,,,,,,,,,,,,,,,,,,,,,,,,,,,,,,,,,,,,,,,,,,,,B_14,001,2024-11-30_13h02.09.314,untitled,2024.1.5,None,2024-11-30 13h02.22.455829 +0530,
triangle.png,you,0,Z,,,,,,,,,22,1,89,3,,,,,,,,,274.33534320000035,,,,,,,,,,,,,,,,,,,,,,,,,,,,,,,,,,274.3195621999912,274.33534320000035,274.8188928000018,274.8188928000018,274.8188928000018,274.8188928000018,274.835507900003,,,,,274.869597900004,z,274.87003029999323,274.88571590000356,275.8861054000008,275.86989000000176,0.039888300001621246,None,,,,,,,,,,,,,,,,,,,,,,,,,,,,,,,,,,,,,,,,,,,,,,,,,,,,,,,,,,,,,,,,,,,,,,,,,,,,,,,,,,,B_14,001,2024-11-30_13h02.09.314,untitled,2024.1.5,None,2024-11-30 13h02.22.455829 +0530,
square.png,you,1,M,,,,,,,,,22,2,90,0,,,,,,,,,275.8861054000008,,,,,,,,,,,,,,,,,,,,,,,,,,,,,,,,,,275.8702443999937,275.8861054000008,276.3700364999968,276.3700364999968,276.3700364999968,276.3700364999968,276.3865291999973,,,,,276.4872278999974,m,276.48765999999887,276.50309719999495,277.50351840000076,277.4875231999904,0.11206499999389052,None,,,,,,,,,,,,,,,,,,,,,,,,,,,,,,,,,,,,,,,,,,,,,,,,,,,,,,,,,,,,,,,,,,,,,,,,,,,,,,,,,,,B_14,001,2024-11-30_13h02.09.314,untitled,2024.1.5,None,2024-11-30 13h02.22.455829 +0530,
triangle.png,stranger,1,M,,,,,,,,,22,3,91,1,,,,,,,,,277.50351840000076,,,,,,,,,,,,,,,,,,,,,,,,,,,,,,,,,,277.4878746000031,277.50351840000076,277.9871507999924,277.9871507999924,277.9871507999924,277.9871507999924,278.0038659999991,,,,,278.08799489999365,z,278.08842529999674,278.1038572999969,279.10461690000375,279.08819529999164,0.09024989999306854,None,,,,,,,,,,,,,,,,,,,,,,,,,,,,,,,,,,,,,,,,,,,,,,,,,,,,,,,,,,,,,,,,,,,,,,,,,,,,,,,,,,,B_14,001,2024-11-30_13h02.09.314,untitled,2024.1.5,None,2024-11-30 13h02.22.455829 +0530,
triangle.png,stranger,1,M,,,,,,,,,23,0,92,1,,,,,,,,,279.10461690000375,,,,,,,,,,,,,,,,,,,,,,,,,,,,,,,,,,279.0885374999925,279.10461690000375,279.5881224999903,279.5881224999903,279.5881224999903,279.5881224999903,279.60490530000243,,,,,279.6056532999937,m,279.60607199999504,279.6214512000006,280.62200960000337,280.6055450999993,0.006677099998341873,None,,,,,,,,,,,,,,,,,,,,,,,,,,,,,,,,,,,,,,,,,,,,,,,,,,,,,,,,,,,,,,,,,,,,,,,,,,,,,,,,,,,B_14,001,2024-11-30_13h02.09.314,untitled,2024.1.5,None,2024-11-30 13h02.22.455829 +0530,
triangle.png,you,0,Z,,,,,,,,,23,1,93,3,,,,,,,,,280.62200960000337,,,,,,,,,,,,,,,,,,,,,,,,,,,,,,,,,,280.60589409999375,280.62200960000337,281.10586189999594,281.10586189999594,281.10586189999594,281.10586189999594,281.12235249999503,,,,,281.2061523000011,m,281.20658329999424,281.2220670999959,282.2227817999956,282.20662040000025,0.09300510000321083,None,,,,,,,,,,,,,,,,,,,,,,,,,,,,,,,,,,,,,,,,,,,,,,,,,,,,,,,,,,,,,,,,,,,,,,,,,,,,,,,,,,,B_14,001,2024-11-30_13h02.09.314,untitled,2024.1.5,None,2024-11-30 13h02.22.455829 +0530,
square.png,stranger,0,Z,,,,,,,,,23,2,94,2,,,,,,,,,282.2227817999956,,,,,,,,,,,,,,,,,,,,,,,,,,,,,,,,,,282.20698069999344,282.2227817999956,282.7064259000035,282.7064259000035,282.7064259000035,282.7064259000035,282.72290860000066,,,,,282.8739571000042,m,282.87439070000255,282.889623199997,283.89032189999125,283.87406190000183,0.15091550000943244,None,,,,,,,,,,,,,,,,,,,,,,,,,,,,,,,,,,,,,,,,,,,,,,,,,,,,,,,,,,,,,,,,,,,,,,,,,,,,,,,,,,,B_14,001,2024-11-30_13h02.09.314,untitled,2024.1.5,None,2024-11-30 13h02.22.455829 +0530,
square.png,you,1,M,,,,,,,,,23,3,95,0,,,,,,,,,283.89032189999125,,,,,,,,,,,,,,,,,,,,,,,,,,,,,,,,,,283.87441950000357,283.89032189999125,284.37392099999124,284.37392099999124,284.37392099999124,284.37392099999124,284.39056189999974,,,,,284.4580081000022,m,284.45843649999006,284.47379139999975,285.47460069999215,285.4583064000035,0.0810434000013629,None,,,,,,,,,,,,,,,,,,,,,,,,,,,,,,,,,,,,,,,,,,,,,,,,,,,,,,,,,,,,,,,,,,,,,,,,,,,,,,,,,,,B_14,001,2024-11-30_13h02.09.314,untitled,2024.1.5,None,2024-11-30 13h02.22.455829 +0530,
square.png,stranger,0,Z,,,,,,,,,24,0,96,2,,,,,,,,,285.47460069999215,,,,,,,,,,,,,,,,,,,,,,,,,,,,,,,,,,285.45865129999584,285.47460069999215,285.9580588999961,285.9580588999961,285.9580588999961,285.9580588999961,285.9747842999932,,,,,286.09235039999476,z,286.0927682000038,286.1080929000018,287.1086298000009,287.0922731000028,0.12431929999729618,None,,,,,,,,,,,,,,,,,,,,,,,,,,,,,,,,,,,,,,,,,,,,,,,,,,,,,,,,,,,,,,,,,,,,,,,,,,,,,,,,,,,B_14,001,2024-11-30_13h02.09.314,untitled,2024.1.5,None,2024-11-30 13h02.22.455829 +0530,
triangle.png,you,0,Z,,,,,,,,,24,1,97,3,,,,,,,,,287.1086298000009,,,,,,,,,,,,,,,,,,,,,,,,,,,,,,,,,,287.09262820000004,287.1086298000009,287.5922823000001,287.5922823000001,287.5922823000001,287.5922823000001,287.60891779999656,,,,,287.6096541000006,z,287.61008269999,287.62558259999787,288.6260615999927,288.6097626999981,0.010439699995913543,None,,,,,,,,,,,,,,,,,,,,,,,,,,,,,,,,,,,,,,,,,,,,,,,,,,,,,,,,,,,,,,,,,,,,,,,,,,,,,,,,,,,B_14,001,2024-11-30_13h02.09.314,untitled,2024.1.5,None,2024-11-30 13h02.22.455829 +0530,
square.png,you,1,M,,,,,,,,,24,2,98,0,,,,,,,,,288.6260615999927,,,,,,,,,,,,,,,,,,,,,,,,,,,,,,,,,,288.61011639999924,288.6260615999927,289.1097291000042,289.1097291000042,289.1097291000042,289.1097291000042,289.1262463000021,,,,,289.1269231999904,m,289.1273552999919,289.14272309999797,290.1435480999935,290.1273521999974,0.0006347000016830862,None,,,,,,,,,,,,,,,,,,,,,,,,,,,,,,,,,,,,,,,,,,,,,,,,,,,,,,,,,,,,,,,,,,,,,,,,,,,,,,,,,,,B_14,001,2024-11-30_13h02.09.314,untitled,2024.1.5,None,2024-11-30 13h02.22.455829 +0530,
triangle.png,stranger,1,M,,,,,,,,,24,3,99,1,,,,,,,,,290.1435480999935,,,,,,,,,,,,,,,,,,,,,,,,,,,,,,,,,,290.12769979999575,290.1435480999935,290.62743639999826,290.62743639999826,290.62743639999826,290.62743639999826,290.64369359999546,,,,,290.69433089999075,z,290.6947615999961,290.7102614000032,291.71101319999434,291.69477180000104,0.05570909999369178,None,,,,,,,,,,,,,,,,,,,,,,,,,,,,,,,,,,,,,,,,,,,,,,,,,,,,,,,,,,,,,,,,,,,,,,,,,,,,,,,,,,,B_14,001,2024-11-30_13h02.09.314,untitled,2024.1.5,None,2024-11-30 13h02.22.455829 +0530,
triangle.png,you,0,Z,,,,,,,,,25,0,100,3,,,,,,,,,291.71101319999434,,,,,,,,,,,,,,,,,,,,,,,,,,,,,,,,,,291.6951262999937,291.71101319999434,292.1946029999963,292.1946029999963,292.1946029999963,292.1946029999963,292.2113793000026,,,,,292.2951667000016,z,292.2956070999935,292.3112362999964,293.3117428999976,293.2958149999904,0.09152889999677427,None,,,,,,,,,,,,,,,,,,,,,,,,,,,,,,,,,,,,,,,,,,,,,,,,,,,,,,,,,,,,,,,,,,,,,,,,,,,,,,,,,,,B_14,001,2024-11-30_13h02.09.314,untitled,2024.1.5,None,2024-11-30 13h02.22.455829 +0530,
square.png,stranger,0,Z,,,,,,,,,25,1,101,2,,,,,,,,,293.3117428999976,,,,,,,,,,,,,,,,,,,,,,,,,,,,,,,,,,293.2961665999901,293.3117428999976,293.79549309999857,293.79549309999857,293.79549309999857,293.79549309999857,293.8121756999899,,,,,293.8130403999967,z,293.81345679999504,293.82853389999946,294.8291950999992,294.8129134999908,0.009853499999735504,None,,,,,,,,,,,,,,,,,,,,,,,,,,,,,,,,,,,,,,,,,,,,,,,,,,,,,,,,,,,,,,,,,,,,,,,,,,,,,,,,,,,B_14,001,2024-11-30_13h02.09.314,untitled,2024.1.5,None,2024-11-30 13h02.22.455829 +0530,
triangle.png,stranger,1,M,,,,,,,,,25,2,102,1,,,,,,,,,294.8291950999992,,,,,,,,,,,,,,,,,,,,,,,,,,,,,,,,,,294.81326249999984,294.8291950999992,295.3126884999947,295.3126884999947,295.3126884999947,295.3126884999947,295.32951460000186,,,,,295.413707899992,m,295.4141327999969,295.4296856000001,296.43011939999997,296.4137664000009,0.08474279999791179,None,,,,,,,,,,,,,,,,,,,,,,,,,,,,,,,,,,,,,,,,,,,,,,,,,,,,,,,,,,,,,,,,,,,,,,,,,,,,,,,,,,,B_14,001,2024-11-30_13h02.09.314,untitled,2024.1.5,None,2024-11-30 13h02.22.455829 +0530,
square.png,you,1,M,,,,,,,,,25,3,103,0,,,,,,,,,296.43011939999997,,,,,,,,,,,,,,,,,,,,,,,,,,,,,,,,,,296.41410890000407,296.43011939999997,296.91360289999284,296.91360289999284,296.91360289999284,296.91360289999284,296.93035899999086,,,,,296.9311216999922,m,296.93154859999777,296.94678659999045,297.9472780999931,297.93119629999273,0.008691900002304465,None,,,,,,,,,,,,,,,,,,,,,,,,,,,,,,,,,,,,,,,,,,,,,,,,,,,,,,,,,,,,,,,,,,,,,,,,,,,,,,,,,,,B_14,001,2024-11-30_13h02.09.314,untitled,2024.1.5,None,2024-11-30 13h02.22.455829 +0530,
triangle.png,stranger,1,M,,,,,,,,,26,0,104,1,,,,,,,,,297.9472780999931,,,,,,,,,,,,,,,,,,,,,,,,,,,,,,,,,,297.9315435000026,297.9472780999931,298.43118980000145,298.43118980000145,298.43118980000145,298.43118980000145,298.4477334999974,,,,,298.4981740999938,m,298.4985897000006,298.514062000002,299.51469799999904,299.4987648999959,0.05957779999880586,None,,,,,,,,,,,,,,,,,,,,,,,,,,,,,,,,,,,,,,,,,,,,,,,,,,,,,,,,,,,,,,,,,,,,,,,,,,,,,,,,,,,B_14,001,2024-11-30_13h02.09.314,untitled,2024.1.5,None,2024-11-30 13h02.22.455829 +0530,
square.png,you,1,M,,,,,,,,,26,1,105,0,,,,,,,,,299.51469799999904,,,,,,,,,,,,,,,,,,,,,,,,,,,,,,,,,,299.499118599997,299.51469799999904,299.9985358999984,299.9985358999984,299.9985358999984,299.9985358999984,300.0151132000028,,,,,300.0324735000031,z,300.032902299994,300.0485445999948,301.0488403999916,301.0327292000002,0.019773599997279234,None,,,,,,,,,,,,,,,,,,,,,,,,,,,,,,,,,,,,,,,,,,,,,,,,,,,,,,,,,,,,,,,,,,,,,,,,,,,,,,,,,,,B_14,001,2024-11-30_13h02.09.314,untitled,2024.1.5,None,2024-11-30 13h02.22.455829 +0530,
square.png,stranger,0,Z,,,,,,,,,26,2,106,2,,,,,,,,,301.0488403999916,,,,,,,,,,,,,,,,,,,,,,,,,,,,,,,,,,301.0330807999999,301.0488403999916,301.53279810000095,301.53279810000095,301.53279810000095,301.53279810000095,301.5492559999984,,,,,301.60002270000405,m,301.6004441999976,301.6159059999918,302.6165798000002,302.6003331999964,0.05245400000421796,None,,,,,,,,,,,,,,,,,,,,,,,,,,,,,,,,,,,,,,,,,,,,,,,,,,,,,,,,,,,,,,,,,,,,,,,,,,,,,,,,,,,B_14,001,2024-11-30_13h02.09.314,untitled,2024.1.5,None,2024-11-30 13h02.22.455829 +0530,
triangle.png,you,0,Z,,,,,,,,,26,3,107,3,,,,,,,,,302.6165798000002,,,,,,,,,,,,,,,,,,,,,,,,,,,,,,,,,,302.6006877000036,302.6165798000002,303.10016539999924,303.10016539999924,303.10016539999924,303.10016539999924,303.11682409999776,,,,,303.2673810999986,z,303.2678073999996,303.28325359999144,304.28390319999016,304.26787409999815,0.16591410001274198,None,,,,,,,,,,,,,,,,,,,,,,,,,,,,,,,,,,,,,,,,,,,,,,,,,,,,,,,,,,,,,,,,,,,,,,,,,,,,,,,,,,,B_14,001,2024-11-30_13h02.09.314,untitled,2024.1.5,None,2024-11-30 13h02.22.455829 +0530,
square.png,stranger,0,Z,,,,,,,,,27,0,108,2,,,,,,,,,304.28390319999016,,,,,,,,,,,,,,,,,,,,,,,,,,,,,,,,,,304.26822460000403,304.28390319999016,304.7677244999941,304.7677244999941,304.7677244999941,304.7677244999941,304.78422529999807,,,,,304.96878539999307,m,304.96920369999134,304.98447779999697,305.98503759999585,305.9687491999939,0.1990141999995103,None,,,,,,,,,,,,,,,,,,,,,,,,,,,,,,,,,,,,,,,,,,,,,,,,,,,,,,,,,,,,,,,,,,,,,,,,,,,,,,,,,,,B_14,001,2024-11-30_13h02.09.314,untitled,2024.1.5,None,2024-11-30 13h02.22.455829 +0530,
square.png,you,1,M,,,,,,,,,27,1,109,0,,,,,,,,,305.98503759999585,,,,,,,,,,,,,,,,,,,,,,,,,,,,,,,,,,305.96909790000063,305.98503759999585,306.4683911000029,306.4683911000029,306.4683911000029,306.4683911000029,306.48516169999493,,,,,306.6026606999949,z,306.60308810000424,306.6183794999961,307.61898259999,307.60292589999153,0.11823029999504797,None,,,,,,,,,,,,,,,,,,,,,,,,,,,,,,,,,,,,,,,,,,,,,,,,,,,,,,,,,,,,,,,,,,,,,,,,,,,,,,,,,,,B_14,001,2024-11-30_13h02.09.314,untitled,2024.1.5,None,2024-11-30 13h02.22.455829 +0530,
triangle.png,stranger,1,M,,,,,,,,,27,2,110,1,,,,,,,,,307.61898259999,,,,,,,,,,,,,,,,,,,,,,,,,,,,,,,,,,307.6032777999935,307.61898259999,308.10267069999827,308.10267069999827,308.10267069999827,308.10267069999827,308.11931129998993,,,,,308.25346969999373,m,308.2538937999925,308.2695090999914,309.2698087000026,309.253727000003,0.14409300000988878,None,,,,,,,,,,,,,,,,,,,,,,,,,,,,,,,,,,,,,,,,,,,,,,,,,,,,,,,,,,,,,,,,,,,,,,,,,,,,,,,,,,,B_14,001,2024-11-30_13h02.09.314,untitled,2024.1.5,None,2024-11-30 13h02.22.455829 +0530,
triangle.png,you,0,Z,,,,,,,,,27,3,111,3,,,,,,,,,309.2698087000026,,,,,,,,,,,,,,,,,,,,,,,,,,,,,,,,,,309.25407209999685,309.2698087000026,309.753661499999,309.753661499999,309.753661499999,309.753661499999,309.7703210999898,,,,,309.90444079998997,m,309.90487129999383,309.9201982999948,310.9207482999918,310.90457869999227,0.13673849999031518,None,,,,,,,,,,,,,,,,,,,,,,,,,,,,,,,,,,,,,,,,,,,,,,,,,,,,,,,,,,,,,,,,,,,,,,,,,,,,,,,,,,,B_14,001,2024-11-30_13h02.09.314,untitled,2024.1.5,None,2024-11-30 13h02.22.455829 +0530,
square.png,you,1,M,,,,,,,,,28,0,112,0,,,,,,,,,310.9207482999918,,,,,,,,,,,,,,,,,,,,,,,,,,,,,,,,,,310.90492309999536,310.9207482999918,311.4046013999905,311.4046013999905,311.4046013999905,311.4046013999905,311.42113780000363,,,,,311.47183699999005,z,311.4722662999993,311.4875311999931,312.4884189000004,312.4721597000025,0.05354710000392515,None,,,,,,,,,,,,,,,,,,,,,,,,,,,,,,,,,,,,,,,,,,,,,,,,,,,,,,,,,,,,,,,,,,,,,,,,,,,,,,,,,,,B_14,001,2024-11-30_13h02.09.314,untitled,2024.1.5,None,2024-11-30 13h02.22.455829 +0530,
triangle.png,stranger,1,M,,,,,,,,,28,1,113,1,,,,,,,,,312.4884189000004,,,,,,,,,,,,,,,,,,,,,,,,,,,,,,,,,,312.4725005999935,312.4884189000004,312.97196739999345,312.97196739999345,312.97196739999345,312.97196739999345,312.98843209999905,,,,,313.1059854999912,m,313.10641409999516,313.1217181999964,314.1224050000019,314.10606469999766,0.13091659999918193,None,,,,,,,,,,,,,,,,,,,,,,,,,,,,,,,,,,,,,,,,,,,,,,,,,,,,,,,,,,,,,,,,,,,,,,,,,,,,,,,,,,,B_14,001,2024-11-30_13h02.09.314,untitled,2024.1.5,None,2024-11-30 13h02.22.455829 +0530,
triangle.png,you,0,Z,,,,,,,,,28,2,114,3,,,,,,,,,314.1224050000019,,,,,,,,,,,,,,,,,,,,,,,,,,,,,,,,,,314.1064105999976,314.1224050000019,314.60621810000157,314.60621810000157,314.60621810000157,314.60621810000157,314.6225650999986,,,,,314.7571229000023,z,314.75754069999675,314.7729124000034,315.7731957999931,315.75692469999194,0.148702400008915,None,,,,,,,,,,,,,,,,,,,,,,,,,,,,,,,,,,,,,,,,,,,,,,,,,,,,,,,,,,,,,,,,,,,,,,,,,,,,,,,,,,,B_14,001,2024-11-30_13h02.09.314,untitled,2024.1.5,None,2024-11-30 13h02.22.455829 +0530,
square.png,stranger,0,Z,,,,,,,,,28,3,115,2,,,,,,,,,315.7731957999931,,,,,,,,,,,,,,,,,,,,,,,,,,,,,,,,,,315.7572813000006,315.7731957999931,316.256790600004,316.256790600004,316.256790600004,316.256790600004,316.2735928000038,,,,,316.45772320000106,m,316.4581567999994,316.47363549999136,317.47390969999833,317.45788729999913,0.19767870000214316,None,,,,,,,,,,,,,,,,,,,,,,,,,,,,,,,,,,,,,,,,,,,,,,,,,,,,,,,,,,,,,,,,,,,,,,,,,,,,,,,,,,,B_14,001,2024-11-30_13h02.09.314,untitled,2024.1.5,None,2024-11-30 13h02.22.455829 +0530,
triangle.png,you,0,Z,,,,,,,,,29,0,116,3,,,,,,,,,317.47390969999833,,,,,,,,,,,,,,,,,,,,,,,,,,,,,,,,,,317.4582631999947,317.47390969999833,317.95779929999844,317.95779929999844,317.95779929999844,317.95779929999844,317.97424159999355,,,,,318.14186170000175,m,318.1423170999915,318.1578284999996,319.1584265999991,319.1419428999943,0.1761692000000039,None,,,,,,,,,,,,,,,,,,,,,,,,,,,,,,,,,,,,,,,,,,,,,,,,,,,,,,,,,,,,,,,,,,,,,,,,,,,,,,,,,,,B_14,001,2024-11-30_13h02.09.314,untitled,2024.1.5,None,2024-11-30 13h02.22.455829 +0530,
triangle.png,stranger,1,M,,,,,,,,,29,1,117,1,,,,,,,,,319.1584265999991,,,,,,,,,,,,,,,,,,,,,,,,,,,,,,,,,,319.14229419999174,319.1584265999991,319.6420117999951,319.6420117999951,319.6420117999951,319.6420117999951,319.6586640000023,,,,,319.75959239999065,z,319.76002380000136,319.7755201999971,320.77585530000215,320.75959659999353,0.11617219999607187,None,,,,,,,,,,,,,,,,,,,,,,,,,,,,,,,,,,,,,,,,,,,,,,,,,,,,,,,,,,,,,,,,,,,,,,,,,,,,,,,,,,,B_14,001,2024-11-30_13h02.09.314,untitled,2024.1.5,None,2024-11-30 13h02.22.455829 +0530,
square.png,you,1,M,,,,,,,,,29,2,118,0,,,,,,,,,320.77585530000215,,,,,,,,,,,,,,,,,,,,,,,,,,,,,,,,,,320.7599412999989,320.77585530000215,321.25936149999325,321.25936149999325,321.25936149999325,321.25936149999325,321.27607789999456,321.55932269999175,321.55932269999175,321.55932269999175,322.3600359999982,322.3436694999982,None,322.343855500003,322.3600359999982,323.3603787000029,323.34427659999346,,,,,,,,,,,,,,,,,,,,,,,,,,,,,,,,,,,,,,,,,,,,,,,,,,,,,,,,,,,,,,,,,,,,,,,,,,,,,,,,,,,,,B_14,001,2024-11-30_13h02.09.314,untitled,2024.1.5,None,2024-11-30 13h02.22.455829 +0530,
square.png,stranger,0,Z,,,,,,,,,29,3,119,2,,,,,,,,,323.3603787000029,,,,,,,,,,,,,,,,,,,,,,,,,,,,,,,,,,323.3446216000011,323.3603787000029,323.86070009999094,323.86070009999094,323.86070009999094,323.86070009999094,323.86070009999094,,,,,323.9781617999979,z,323.9785911999934,323.9941586999921,324.99455390000367,324.97841759999574,0.11328859999775887,None,,,,,,,,,,,,,,,,,,,,,,,,,,,,,,,,,,,,,,,,,,,,,,,,,,,,,,,,,,,,,,,,,,,,,,,,,,,,,,,,,,,B_14,001,2024-11-30_13h02.09.314,untitled,2024.1.5,None,2024-11-30 13h02.22.455829 +0530,
triangle.png,you,0,Z,,,,,,,,,30,0,120,3,,,,,,,,,324.99455390000367,,,,,,,,,,,,,,,,,,,,,,,,,,,,,,,,,,324.97877359999984,324.99455390000367,325.4781765999942,325.4781765999942,325.4781765999942,325.4781765999942,325.49504120000347,,,,,325.51244049999514,z,325.51286119999713,325.52805459999945,326.5287007000006,326.512501899997,0.028424800009815954,None,,,,,,,,,,,,,,,,,,,,,,,,,,,,,,,,,,,,,,,,,,,,,,,,,,,,,,,,,,,,,,,,,,,,,,,,,,,,,,,,,,,B_14,001,2024-11-30_13h02.09.314,untitled,2024.1.5,None,2024-11-30 13h02.22.455829 +0530,
square.png,you,1,M,,,,,,,,,30,1,121,0,,,,,,,,,326.5287007000006,,,,,,,,,,,,,,,,,,,,,,,,,,,,,,,,,,326.512853799999,326.5287007000006,327.0123489999969,327.0123489999969,327.0123489999969,327.0123489999969,327.0290939999977,,,,,327.1132518999948,z,327.1136698999908,327.12897740000335,328.12948889999825,328.11337829999684,0.08900900000298861,None,,,,,,,,,,,,,,,,,,,,,,,,,,,,,,,,,,,,,,,,,,,,,,,,,,,,,,,,,,,,,,,,,,,,,,,,,,,,,,,,,,,B_14,001,2024-11-30_13h02.09.314,untitled,2024.1.5,None,2024-11-30 13h02.22.455829 +0530,
square.png,stranger,0,Z,,,,,,,,,30,2,122,2,,,,,,,,,328.12948889999825,,,,,,,,,,,,,,,,,,,,,,,,,,,,,,,,,,328.11373260000255,328.12948889999825,328.6132743999915,328.6132743999915,328.6132743999915,328.6132743999915,328.6298317000037,,,,,328.6806394000014,m,328.6810630999971,328.6963386999996,329.6967975000007,329.68066589999944,0.05760980000195559,None,,,,,,,,,,,,,,,,,,,,,,,,,,,,,,,,,,,,,,,,,,,,,,,,,,,,,,,,,,,,,,,,,,,,,,,,,,,,,,,,,,,B_14,001,2024-11-30_13h02.09.314,untitled,2024.1.5,None,2024-11-30 13h02.22.455829 +0530,
triangle.png,stranger,1,M,,,,,,,,,30,3,123,1,,,,,,,,,329.6967975000007,,,,,,,,,,,,,,,,,,,,,,,,,,,,,,,,,,329.6810181000037,329.6967975000007,330.18087599999853,330.18087599999853,330.18087599999853,330.18087599999853,330.1973549999966,,,,,330.2479617999925,z,330.24838869999803,330.26406619999034,331.26441269999486,331.2480757000012,0.06579389999387786,None,,,,,,,,,,,,,,,,,,,,,,,,,,,,,,,,,,,,,,,,,,,,,,,,,,,,,,,,,,,,,,,,,,,,,,,,,,,,,,,,,,,B_14,001,2024-11-30_13h02.09.314,untitled,2024.1.5,None,2024-11-30 13h02.22.455829 +0530,
square.png,stranger,0,Z,,,,,,,,,31,0,124,2,,,,,,,,,331.26441269999486,,,,,,,,,,,,,,,,,,,,,,,,,,,,,,,,,,331.2484315000038,331.26441269999486,331.7482583999954,331.7482583999954,331.7482583999954,331.7482583999954,331.76490589999594,,,,,331.89876759999606,m,331.89921109999705,331.9147263999912,332.91513919999124,332.899098599999,0.14616449999448378,None,,,,,,,,,,,,,,,,,,,,,,,,,,,,,,,,,,,,,,,,,,,,,,,,,,,,,,,,,,,,,,,,,,,,,,,,,,,,,,,,,,,B_14,001,2024-11-30_13h02.09.314,untitled,2024.1.5,None,2024-11-30 13h02.22.455829 +0530,
triangle.png,you,0,Z,,,,,,,,,31,1,125,3,,,,,,,,,332.91513919999124,,,,,,,,,,,,,,,,,,,,,,,,,,,,,,,,,,332.8994413999899,332.91513919999124,333.39925859999494,333.39925859999494,333.39925859999494,333.39925859999494,333.4155826999922,333.69891759999155,333.69891759999155,333.69891759999155,,333.7830784999969,z,333.78361349999614,333.7989876999927,334.7995613999956,334.7834811999928,0.38246999999682885,None,,,,,,,,,,,,,,,,,,,,,,,,,,,,,,,,,,,,,,,,,,,,,,,,,,,,,,,,,,,,,,,,,,,,,,,,,,,,,,,,,,,B_14,001,2024-11-30_13h02.09.314,untitled,2024.1.5,None,2024-11-30 13h02.22.455829 +0530,
triangle.png,stranger,1,M,,,,,,,,,31,2,126,1,,,,,,,,,334.7995613999956,,,,,,,,,,,,,,,,,,,,,,,,,,,,,,,,,,334.78382460000284,334.7995613999956,335.2832855000015,335.2832855000015,335.2832855000015,335.2832855000015,335.2999259999924,,,,,335.3838898999966,m,335.3843218999973,335.39980410000135,336.40050629999314,336.384255099998,0.08688350000011269,None,,,,,,,,,,,,,,,,,,,,,,,,,,,,,,,,,,,,,,,,,,,,,,,,,,,,,,,,,,,,,,,,,,,,,,,,,,,,,,,,,,,B_14,001,2024-11-30_13h02.09.314,untitled,2024.1.5,None,2024-11-30 13h02.22.455829 +0530,
square.png,you,1,M,,,,,,,,,31,3,127,0,,,,,,,,,336.40050629999314,,,,,,,,,,,,,,,,,,,,,,,,,,,,,,,,,,336.3845985999942,336.40050629999314,336.8840676999971,336.8840676999971,336.8840676999971,336.8840676999971,336.90056369999365,337.1841657999903,337.1841657999903,337.1841657999903,,337.33501719999185,z,337.33543959999224,337.35088939999696,338.3515420999902,338.3351468999899,0.446009099992807,None,,,,,,,,,,,,,,,,,,,,,,,,,,,,,,,,,,,,,,,,,,,,,,,,,,,,,,,,,,,,,,,,,,,,,,,,,,,,,,,,,,,B_14,001,2024-11-30_13h02.09.314,untitled,2024.1.5,None,2024-11-30 13h02.22.455829 +0530,
square.png,you,1,M,,,,,,,,,32,0,128,0,,,,,,,,,338.3515420999902,,,,,,,,,,,,,,,,,,,,,,,,,,,,,,,,,,338.33548949999386,338.3515420999902,338.835258799998,338.835258799998,338.835258799998,338.835258799998,338.85201329999836,,,,,338.8528712999978,z,338.85328769999614,338.8684338000021,339.86897929999395,339.85278980000294,0.011573499999940395,None,,,,,,,,,,,,,,,,,,,,,,,,,,,,,,,,,,,,,,,,,,,,,,,,,,,,,,,,,,,,,,,,,,,,,,,,,,,,,,,,,,,B_14,001,2024-11-30_13h02.09.314,untitled,2024.1.5,None,2024-11-30 13h02.22.455829 +0530,
triangle.png,you,0,Z,,,,,,,,,32,1,129,3,,,,,,,,,339.86897929999395,,,,,,,,,,,,,,,,,,,,,,,,,,,,,,,,,,339.8531368999975,339.86897929999395,340.352684700003,340.352684700003,340.352684700003,340.352684700003,340.3691733000014,,,,,340.4701314999984,m,340.4705488999898,340.48572250000143,341.4864447,341.4702238000027,0.10549410000385251,None,,,,,,,,,,,,,,,,,,,,,,,,,,,,,,,,,,,,,,,,,,,,,,,,,,,,,,,,,,,,,,,,,,,,,,,,,,,,,,,,,,,B_14,001,2024-11-30_13h02.09.314,untitled,2024.1.5,None,2024-11-30 13h02.22.455829 +0530,
triangle.png,stranger,1,M,,,,,,,,,32,2,130,1,,,,,,,,,341.4864447,,,,,,,,,,,,,,,,,,,,,,,,,,,,,,,,,,341.4705699999904,341.4864447,341.970004399991,341.970004399991,341.970004399991,341.970004399991,341.9868635000021,,,,,341.9877637000027,m,341.9881821000017,342.0035274999973,343.0037913999986,342.9878233999916,0.015210099998512305,None,,,,,,,,,,,,,,,,,,,,,,,,,,,,,,,,,,,,,,,,,,,,,,,,,,,,,,,,,,,,,,,,,,,,,,,,,,,,,,,,,,,B_14,001,2024-11-30_13h02.09.314,untitled,2024.1.5,None,2024-11-30 13h02.22.455829 +0530,
square.png,stranger,0,Z,,,,,,,,,32,3,131,2,,,,,,,,,343.0037913999986,,,,,,,,,,,,,,,,,,,,,,,,,,,,,,,,,,342.9881689000031,343.0037913999986,343.4875059999904,343.4875059999904,343.4875059999904,343.4875059999904,343.50421800000186,,,,,343.5715918999922,m,343.5720467999927,343.58749499999976,344.58774479999556,344.57170909999695,0.07517990001360886,None,,,,,,,,,,,,,,,,,,,,,,,,,,,,,,,,,,,,,,,,,,,,,,,,,,,,,,,,,,,,,,,,,,,,,,,,,,,,,,,,,,,B_14,001,2024-11-30_13h02.09.314,untitled,2024.1.5,None,2024-11-30 13h02.22.455829 +0530,
square.png,stranger,0,Z,,,,,,,,,33,0,132,2,,,,,,,,,344.58774479999556,,,,,,,,,,,,,,,,,,,,,,,,,,,,,,,,,,344.57206789999327,344.58774479999556,345.0714677999931,345.0714677999931,345.0714677999931,345.0714677999931,345.0882200999913,,,,,345.18889439999475,m,345.18932750000386,345.2048791999987,346.20522530000017,346.18912919999275,0.10257780000392813,None,,,,,,,,,,,,,,,,,,,,,,,,,,,,,,,,,,,,,,,,,,,,,,,,,,,,,,,,,,,,,,,,,,,,,,,,,,,,,,,,,,,B_14,001,2024-11-30_13h02.09.314,untitled,2024.1.5,None,2024-11-30 13h02.22.455829 +0530,
triangle.png,you,0,Z,,,,,,,,,33,1,133,3,,,,,,,,,346.20522530000017,,,,,,,,,,,,,,,,,,,,,,,,,,,,,,,,,,346.1894878000021,346.20522530000017,346.6889741999912,346.6889741999912,346.6889741999912,346.6889741999912,346.70578019999084,,,,,346.8067527999956,z,346.8071834000002,346.822345499997,347.8231095999945,347.80675150000025,0.11304919999383856,None,,,,,,,,,,,,,,,,,,,,,,,,,,,,,,,,,,,,,,,,,,,,,,,,,,,,,,,,,,,,,,,,,,,,,,,,,,,,,,,,,,,B_14,001,2024-11-30_13h02.09.314,untitled,2024.1.5,None,2024-11-30 13h02.22.455829 +0530,
square.png,you,1,M,,,,,,,,,33,2,134,0,,,,,,,,,347.8231095999945,,,,,,,,,,,,,,,,,,,,,,,,,,,,,,,,,,347.80710059999547,347.8231095999945,348.3066942000005,348.3066942000005,348.3066942000005,348.3066942000005,348.3233651999908,,,,,348.42413800000213,z,348.42456679999304,348.43976329998986,349.4404125000001,349.42428340000333,0.11196739999286365,None,,,,,,,,,,,,,,,,,,,,,,,,,,,,,,,,,,,,,,,,,,,,,,,,,,,,,,,,,,,,,,,,,,,,,,,,,,,,,,,,,,,B_14,001,2024-11-30_13h02.09.314,untitled,2024.1.5,None,2024-11-30 13h02.22.455829 +0530,
triangle.png,stranger,1,M,,,,,,,,,33,3,135,1,,,,,,,,,349.4404125000001,,,,,,,,,,,,,,,,,,,,,,,,,,,,,,,,,,349.4246259999927,349.4404125000001,349.9242618999997,349.9242618999997,349.9242618999997,349.9242618999997,349.9407996999944,350.224126000001,350.224126000001,350.224126000001,351.02442580000206,351.00845809999737,None,351.00865239999257,351.02442580000206,352.02535299999,352.00888100000157,,,,,,,,,,,,,,,,,,,,,,,,,,,,,,,,,,,,,,,,,,,,,,,,,,,,,,,,,,,,,,,,,,,,,,,,,,,,,,,,,,,,,B_14,001,2024-11-30_13h02.09.314,untitled,2024.1.5,None,2024-11-30 13h02.22.455829 +0530,
square.png,you,1,M,,,,,,,,,34,0,136,0,,,,,,,,,352.02535299999,,,,,,,,,,,,,,,,,,,,,,,,,,,,,,,,,,352.00931259999925,352.02535299999,352.525510499996,352.525510499996,352.525510499996,352.525510499996,352.525510499996,352.82558309999877,352.82558309999877,352.82558309999877,,352.95958539999265,z,352.96000609999464,352.9755080000032,353.97605509999266,353.95999439999287,0.4288576999970246,None,,,,,,,,,,,,,,,,,,,,,,,,,,,,,,,,,,,,,,,,,,,,,,,,,,,,,,,,,,,,,,,,,,,,,,,,,,,,,,,,,,,B_14,001,2024-11-30_13h02.09.314,untitled,2024.1.5,None,2024-11-30 13h02.22.455829 +0530,
square.png,stranger,0,Z,,,,,,,,,34,1,137,2,,,,,,,,,353.97605509999266,,,,,,,,,,,,,,,,,,,,,,,,,,,,,,,,,,353.9603430999996,353.97605509999266,354.45986899999843,354.45986899999843,354.45986899999843,354.45986899999843,354.4762841999909,,,,,354.7105986999959,z,354.7110313000012,354.72644030000083,355.7270550999965,355.71061680000275,0.2383113000105368,None,,,,,,,,,,,,,,,,,,,,,,,,,,,,,,,,,,,,,,,,,,,,,,,,,,,,,,,,,,,,,,,,,,,,,,,,,,,,,,,,,,,B_14,001,2024-11-30_13h02.09.314,untitled,2024.1.5,None,2024-11-30 13h02.22.455829 +0530,
triangle.png,you,0,Z,,,,,,,,,34,2,138,3,,,,,,,,,355.7270550999965,,,,,,,,,,,,,,,,,,,,,,,,,,,,,,,,,,355.710974799993,355.7270550999965,356.2106800000038,356.2106800000038,356.2106800000038,356.2106800000038,356.22727399998985,356.5107786000008,356.5107786000008,356.5107786000008,,357.09504279999237,z,357.09546189999674,357.1109732999903,358.11165169999003,358.09513770000194,0.8712376000039512,None,,,,,,,,,,,,,,,,,,,,,,,,,,,,,,,,,,,,,,,,,,,,,,,,,,,,,,,,,,,,,,,,,,,,,,,,,,,,,,,,,,,B_14,001,2024-11-30_13h02.09.314,untitled,2024.1.5,None,2024-11-30 13h02.22.455829 +0530,
triangle.png,stranger,1,M,,,,,,,,,34,3,139,1,,,,,,,,,358.11165169999003,,,,,,,,,,,,,,,,,,,,,,,,,,,,,,,,,,358.0954808999959,358.11165169999003,358.59520549999434,358.59520549999434,358.59520549999434,358.59520549999434,358.6121609999973,,,,,358.6129072999902,z,358.61332439999387,358.6285513000039,359.62888889999886,359.61261430000013,0.006111800001235679,None,,,,,,,,,,,,,,,,,,,,,,,,,,,,,,,,,,,,,,,,,,,,,,,,,,,,,,,,,,,,,,,,,,,,,,,,,,,,,,,,,,,B_14,001,2024-11-30_13h02.09.314,untitled,2024.1.5,None,2024-11-30 13h02.22.455829 +0530,
triangle.png,you,0,Z,,,,,,,,,35,0,140,3,,,,,,,,,359.62888889999886,,,,,,,,,,,,,,,,,,,,,,,,,,,,,,,,,,359.6129591999925,359.62888889999886,360.112535399996,360.112535399996,360.112535399996,360.112535399996,360.12915039999643,360.41276249999646,360.41276249999646,360.41276249999646,361.21312059999036,361.19662750000134,None,361.1968174999929,361.21312059999036,362.21367749999627,362.1973714999913,,,,,,,,,,,,,,,,,,,,,,,,,,,,,,,,,,,,,,,,,,,,,,,,,,,,,,,,,,,,,,,,,,,,,,,,,,,,,,,,,,,,,B_14,001,2024-11-30_13h02.09.314,untitled,2024.1.5,None,2024-11-30 13h02.22.455829 +0530,
square.png,stranger,0,Z,,,,,,,,,35,1,141,2,,,,,,,,,362.21367749999627,,,,,,,,,,,,,,,,,,,,,,,,,,,,,,,,,,362.1977232999925,362.21367749999627,362.7139820000011,362.7139820000011,362.7139820000011,362.7139820000011,362.7139820000011,363.01387070000055,363.01387070000055,363.01387070000055,363.81445049999456,363.7980763999949,None,363.7982667000033,363.81445049999456,364.8150306000025,364.79856290000316,,,,,,,,,,,,,,,,,,,,,,,,,,,,,,,,,,,,,,,,,,,,,,,,,,,,,,,,,,,,,,,,,,,,,,,,,,,,,,,,,,,,,B_14,001,2024-11-30_13h02.09.314,untitled,2024.1.5,None,2024-11-30 13h02.22.455829 +0530,
square.png,you,1,M,,,,,,,,,35,2,142,0,,,,,,,,,364.8150306000025,,,,,,,,,,,,,,,,,,,,,,,,,,,,,,,,,,364.79890959999466,364.8150306000025,365.31525919999694,365.31525919999694,365.31525919999694,365.31525919999694,365.31525919999694,,,,,365.53258329999517,m,365.53300460000173,365.54870250000386,366.5490476999985,366.5329800000036,0.20179770000686403,None,,,,,,,,,,,,,,,,,,,,,,,,,,,,,,,,,,,,,,,,,,,,,,,,,,,,,,,,,,,,,,,,,,,,,,,,,,,,,,,,,,,B_14,001,2024-11-30_13h02.09.314,untitled,2024.1.5,None,2024-11-30 13h02.22.455829 +0530,
triangle.png,stranger,1,M,,,,,,,,,35,3,143,1,,,,,,,,,366.5490476999985,,,,,,,,,,,,,,,,,,,,,,,,,,,,,,,,,,366.5333305999957,366.5490476999985,367.03279319999274,367.03279319999274,367.03279319999274,367.03279319999274,367.0496281999949,,,,,367.26724390000163,m,367.2676603,367.28287199999613,368.2833605999913,368.2670908,0.22980420000385493,None,,,,,,,,,,,,,,,,,,,,,,,,,,,,,,,,,,,,,,,,,,,,,,,,,,,,,,,,,,,,,,,,,,,,,,,,,,,,,,,,,,,B_14,001,2024-11-30_13h02.09.314,untitled,2024.1.5,None,2024-11-30 13h02.22.455829 +0530,
triangle.png,stranger,1,M,,,,,,,,,36,0,144,1,,,,,,,,,368.2833605999913,,,,,,,,,,,,,,,,,,,,,,,,,,,,,,,,,,368.2674333000032,368.2833605999913,368.7669593000028,368.7669593000028,368.7669593000028,368.7669593000028,368.7835863999935,369.0670364999969,369.0670364999969,369.0670364999969,,369.1346157999942,m,369.1350354000024,369.1507496999984,370.1511184999981,370.1348524999921,0.35415690000809263,None,,,,,,,,,,,,,,,,,,,,,,,,,,,,,,,,,,,,,,,,,,,,,,,,,,,,,,,,,,,,,,,,,,,,,,,,,,,,,,,,,,,B_14,001,2024-11-30_13h02.09.314,untitled,2024.1.5,None,2024-11-30 13h02.22.455829 +0530,
triangle.png,you,0,Z,,,,,,,,,36,1,145,3,,,,,,,,,370.1511184999981,,,,,,,,,,,,,,,,,,,,,,,,,,,,,,,,,,370.1352012999996,370.1511184999981,370.6348299999954,370.6348299999954,370.6348299999954,370.6348299999954,370.6511043999926,370.93466679999256,370.93466679999256,370.93466679999256,,370.9354314999946,z,370.93586319999304,370.9513211000012,371.95203459999175,371.9355316000001,0.2959670999989612,None,,,,,,,,,,,,,,,,,,,,,,,,,,,,,,,,,,,,,,,,,,,,,,,,,,,,,,,,,,,,,,,,,,,,,,,,,,,,,,,,,,,B_14,001,2024-11-30_13h02.09.314,untitled,2024.1.5,None,2024-11-30 13h02.22.455829 +0530,
square.png,you,1,M,,,,,,,,,36,2,146,0,,,,,,,,,371.95203459999175,,,,,,,,,,,,,,,,,,,,,,,,,,,,,,,,,,371.9358757000009,371.95203459999175,372.43545989999257,372.43545989999257,372.43545989999257,372.43545989999257,372.4520674999949,372.73563619999913,372.73563619999913,372.73563619999913,,372.7531001000025,z,372.7535276999988,372.7688027999975,373.76940799999284,373.75328809999337,0.3070889999944484,None,,,,,,,,,,,,,,,,,,,,,,,,,,,,,,,,,,,,,,,,,,,,,,,,,,,,,,,,,,,,,,,,,,,,,,,,,,,,,,,,,,,B_14,001,2024-11-30_13h02.09.314,untitled,2024.1.5,None,2024-11-30 13h02.22.455829 +0530,
square.png,stranger,0,Z,,,,,,,,,36,3,147,2,,,,,,,,,373.76940799999284,,,,,,,,,,,,,,,,,,,,,,,,,,,,,,,,,,373.7536309999996,373.76940799999284,374.2533560000011,374.2533560000011,374.2533560000011,374.2533560000011,374.26993290000246,,,,,374.5205619999906,z,374.5210068000015,374.5365487999952,375.5371593000018,375.5208317999932,0.26090820001263637,None,,,,,,,,,,,,,,,,,,,,,,,,,,,,,,,,,,,,,,,,,,,,,,,,,,,,,,,,,,,,,,,,,,,,,,,,,,,,,,,,,,,B_14,001,2024-11-30_13h02.09.314,untitled,2024.1.5,None,2024-11-30 13h02.22.455829 +0530,
square.png,stranger,0,Z,,,,,,,,,37,0,148,2,,,,,,,,,375.5371593000018,,,,,,,,,,,,,,,,,,,,,,,,,,,,,,,,,,375.52118569999584,375.5371593000018,376.02095479999844,376.02095479999844,376.02095479999844,376.02095479999844,376.03754489999847,376.32086490000074,376.32086490000074,376.32086490000074,,376.32159890000185,m,376.3220164999948,376.33747559999756,377.33790299999237,377.3216648999951,0.2882072999927914,None,,,,,,,,,,,,,,,,,,,,,,,,,,,,,,,,,,,,,,,,,,,,,,,,,,,,,,,,,,,,,,,,,,,,,,,,,,,,,,,,,,,B_14,001,2024-11-30_13h02.09.314,untitled,2024.1.5,None,2024-11-30 13h02.22.455829 +0530,
square.png,you,1,M,,,,,,,,,37,1,149,0,,,,,,,,,377.33790299999237,,,,,,,,,,,,,,,,,,,,,,,,,,,,,,,,,,377.3220108999958,377.33790299999237,377.82176849999814,377.82176849999814,377.82176849999814,377.82176849999814,377.83835179999005,,,,,378.0560182999907,z,378.05644149999716,378.07142389999353,379.0722328999982,379.055898599996,0.2274946999968961,None,,,,,,,,,,,,,,,,,,,,,,,,,,,,,,,,,,,,,,,,,,,,,,,,,,,,,,,,,,,,,,,,,,,,,,,,,,,,,,,,,,,B_14,001,2024-11-30_13h02.09.314,untitled,2024.1.5,None,2024-11-30 13h02.22.455829 +0530,
triangle.png,you,0,Z,,,,,,,,,37,2,150,3,,,,,,,,,379.0722328999982,,,,,,,,,,,,,,,,,,,,,,,,,,,,,,,,,,379.0562402999931,379.0722328999982,379.5559398000041,379.5559398000041,379.5559398000041,379.5559398000041,379.57263039999816,379.8560201999935,379.8560201999935,379.8560201999935,,379.8733377000026,z,379.87375909999537,379.8891302999982,380.88976799999364,380.8736543999985,0.3107616000052076,None,,,,,,,,,,,,,,,,,,,,,,,,,,,,,,,,,,,,,,,,,,,,,,,,,,,,,,,,,,,,,,,,,,,,,,,,,,,,,,,,,,,B_14,001,2024-11-30_13h02.09.314,untitled,2024.1.5,None,2024-11-30 13h02.22.455829 +0530,
triangle.png,stranger,1,M,,,,,,,,,37,3,151,1,,,,,,,,,380.88976799999364,,,,,,,,,,,,,,,,,,,,,,,,,,,,,,,,,,380.87400119999074,380.88976799999364,381.373591399999,381.373591399999,381.373591399999,381.373591399999,381.39020149999124,381.6736024999991,381.6736024999991,381.6736024999991,,381.8242962999939,m,381.82475030000205,381.8402645000024,382.8408613999927,382.82469480000145,0.4489991000009468,None,,,,,,,,,,,,,,,,,,,,,,,,,,,,,,,,,,,,,,,,,,,,,,,,,,,,,,,,,,,,,,,,,,,,,,,,,,,,,,,,,,,B_14,001,2024-11-30_13h02.09.314,untitled,2024.1.5,None,2024-11-30 13h02.22.455829 +0530,
triangle.png,stranger,1,M,,,,,,,,,38,0,152,1,,,,,,,,,382.8408613999927,,,,,,,,,,,,,,,,,,,,,,,,,,,,,,,,,,382.8250379999954,382.8408613999927,383.32445629998983,383.32445629998983,383.32445629998983,383.32445629998983,383.34126669999387,,,,,383.54214389999106,m,383.5425649999961,383.55778740000096,384.5584744999942,384.54198399999586,0.2126916999986861,None,,,,,,,,,,,,,,,,,,,,,,,,,,,,,,,,,,,,,,,,,,,,,,,,,,,,,,,,,,,,,,,,,,,,,,,,,,,,,,,,,,,B_14,001,2024-11-30_13h02.09.314,untitled,2024.1.5,None,2024-11-30 13h02.22.455829 +0530,
square.png,you,1,M,,,,,,,,,38,1,153,0,,,,,,,,,384.5584744999942,,,,,,,,,,,,,,,,,,,,,,,,,,,,,,,,,,384.5423271000036,384.5584744999942,385.04217790000257,385.04217790000257,385.04217790000257,385.04217790000257,385.05851069999335,,,,,385.2593668999907,m,385.2598353999929,385.2754939000006,386.275779699994,386.2596515000041,0.20312279999780003,None,,,,,,,,,,,,,,,,,,,,,,,,,,,,,,,,,,,,,,,,,,,,,,,,,,,,,,,,,,,,,,,,,,,,,,,,,,,,,,,,,,,B_14,001,2024-11-30_13h02.09.314,untitled,2024.1.5,None,2024-11-30 13h02.22.455829 +0530,
triangle.png,you,0,Z,,,,,,,,,38,2,154,3,,,,,,,,,386.275779699994,,,,,,,,,,,,,,,,,,,,,,,,,,,,,,,,,,386.25999890000094,386.275779699994,386.7598139000038,386.7598139000038,386.7598139000038,386.7598139000038,386.77635539999756,387.0595717999968,387.0595717999968,387.0595717999968,,387.1936461000005,z,387.1940692999924,387.2098901999998,388.21030749999045,388.1940811999957,0.4187883000122383,None,,,,,,,,,,,,,,,,,,,,,,,,,,,,,,,,,,,,,,,,,,,,,,,,,,,,,,,,,,,,,,,,,,,,,,,,,,,,,,,,,,,B_14,001,2024-11-30_13h02.09.314,untitled,2024.1.5,None,2024-11-30 13h02.22.455829 +0530,
square.png,stranger,0,Z,,,,,,,,,38,3,155,2,,,,,,,,,388.21030749999045,,,,,,,,,,,,,,,,,,,,,,,,,,,,,,,,,,388.19443370000226,388.21030749999045,388.69393929999205,388.69393929999205,388.69393929999205,388.69393929999205,388.7105348999903,,,,,388.8448913000029,m,388.8453090999974,388.86047829999006,389.8610769999941,389.84465210000053,0.1393680999899516,None,,,,,,,,,,,,,,,,,,,,,,,,,,,,,,,,,,,,,,,,,,,,,,,,,,,,,,,,,,,,,,,,,,,,,,,,,,,,,,,,,,,B_14,001,2024-11-30_13h02.09.314,untitled,2024.1.5,None,2024-11-30 13h02.22.455829 +0530,
