stimulus_b,label_b,is_match_b,shouldpress_b,stimulus_2b,label_2b,is_match_2b,shouldpress_2b,p_trials.thisRepN,p_trials.thisTrialN,p_trials.thisN,p_trials.thisIndex,trials.thisRepN,trials.thisTrialN,trials.thisN,trials.thisIndex,p_trials_2.thisRepN,p_trials_2.thisTrialN,p_trials_2.thisN,p_trials_2.thisIndex,trials_2.thisRepN,trials_2.thisTrialN,trials_2.thisN,trials_2.thisIndex,thisRow.t,notes,Intruduction.started,text_3.started,key_resp_2.started,Intruduction.stopped,key_resp_2.keys,key_resp_2.rt,key_resp_2.duration,self_other_instructions.started,text_4.started,key_resp_3.started,self_other_instructions.stopped,key_resp_3.keys,key_resp_3.rt,key_resp_3.duration,self_other_info.started,square_image.started,triangle_image.started,self_label.started,other_label.started,key_resp_4.started,text_5.started,self_other_info.stopped,key_resp_4.keys,key_resp_4.rt,key_resp_4.duration,self_other_starting_2.started,text_6.started,key_resp_5.started,self_other_starting_2.stopped,key_resp_5.keys,key_resp_5.rt,key_resp_5.duration,b1.started,p_fication.started,p_fication.stopped,p_fixation_3.started,p_text.started,key_resp_p.started,p_image.started,p_fixation_3.stopped,p_text.stopped,p_image.stopped,key_resp_p.stopped,b1.stopped,key_resp_p.keys,b_feedback.started,text_15.started,b_feedback.stopped,key_resp_p.rt,key_resp_p.duration,text_15.stopped,start2.started,start_2.started,key_resp_11.started,start2.stopped,key_resp_11.keys,key_resp_11.rt,key_resp_11.duration,break_3.started,text_13.started,text_14.started,key_resp_10.started,text_13.stopped,break_3.stopped,key_resp_10.keys,key_resp_10.rt,key_resp_10.duration,self_instructions_2.started,text_10.started,key_resp_7.started,self_instructions_2.stopped,key_resp_7.keys,key_resp_7.rt,key_resp_7.duration,self_intro_2.started,circle_image.started,diamond_image.started,Disgusting_self_lable.started,Desirable_self_lable.started,key_resp_8.started,text_11.started,self_intro_2.stopped,key_resp_8.keys,key_resp_8.rt,key_resp_8.duration,self_starting_3.started,text_12.started,key_resp_9.started,self_starting_3.stopped,key_resp_9.keys,key_resp_9.rt,key_resp_9.duration,practice2.started,p_fixation_2.started,p_fixation_4.started,p_text_8.started,key_resp_6_p.started,p_image_2.started,p_fixation_2.stopped,p_fixation_4.stopped,p_text_8.stopped,p_image_2.stopped,practice2.stopped,key_resp_6_p.keys,key_resp_6_p.rt,key_resp_6_p.duration,feedback_2_p.started,text_16.started,text_16.stopped,feedback_2_p.stopped,trial_2.started,fixation_2.started,fixation_4.started,text_8.started,key_resp_6.started,image_2.started,fixation_2.stopped,fixation_4.stopped,text_8.stopped,image_2.stopped,trial_2.stopped,key_resp_6.keys,key_resp_6.rt,key_resp_6.duration,feedback_2.started,text_9.started,text_9.stopped,feedback_2.stopped,key_resp_6.stopped,Thank_you.started,text_7.started,text_7.stopped,Thank_you.stopped,participant,session,date,expName,psychopyVersion,frameRate,expStart,
,,,,,,,,,,,,,,,,,,,,,,,,,,0.0026624000020092353,0.006433399990783073,0.006433399990783073,4.195394700000179,space,4.171754599999986,None,,,,,,,,,,,,,,,,,,,,,,,,,,,,,,,,,,,,,,,,,,,,,,,,,,,,,,,,,,,,,,,,,,,,,,,,,,,,,,,,,,,,,,,,,,,,,,,,,,,,,,,,,,,,,,,,,,,,,,,,,,,,,,,B_15,001,2024-11-30_16h00.54.229,untitled,2024.1.5,None,2024-11-30 16h01.07.559330 +0530,
,,,,,,,,,,,,,,,,,,,,,,,,,,,,,,,,,4.195418299990706,4.209625999996206,4.209625999996206,18.901319700002205,space,14.677393500009202,None,,,,,,,,,,,,,,,,,,,,,,,,,,,,,,,,,,,,,,,,,,,,,,,,,,,,,,,,,,,,,,,,,,,,,,,,,,,,,,,,,,,,,,,,,,,,,,,,,,,,,,,,,,,,,,,,,,,,,,,,B_15,001,2024-11-30_16h00.54.229,untitled,2024.1.5,None,2024-11-30 16h01.07.559330 +0530,
,,,,,,,,,,,,,,,,,,,,,,,,,,,,,,,,,,,,,,,,18.90134599999874,18.934453199995914,18.934453199995914,18.934453199995914,18.934453199995914,18.934453199995914,18.934453199995914,58.83721469999,space,39.89652520000527,None,,,,,,,,,,,,,,,,,,,,,,,,,,,,,,,,,,,,,,,,,,,,,,,,,,,,,,,,,,,,,,,,,,,,,,,,,,,,,,,,,,,,,,,,,,,,,,,,,,,,,,,,,,,,,B_15,001,2024-11-30_16h00.54.229,untitled,2024.1.5,None,2024-11-30 16h01.07.559330 +0530,
,,,,,,,,,,,,,,,,,,,,,,,,,,,,,,,,,,,,,,,,,,,,,,,,,,,58.83724449999863,58.85363709999365,58.85363709999365,70.62684879999142,space,11.761995300010312,None,,,,,,,,,,,,,,,,,,,,,,,,,,,,,,,,,,,,,,,,,,,,,,,,,,,,,,,,,,,,,,,,,,,,,,,,,,,,,,,,,,,,,,,,,,,,,,,,,,,,,,B_15,001,2024-11-30_16h00.54.229,untitled,2024.1.5,None,2024-11-30 16h01.07.559330 +0530,
square.png,you,1,M,,,,,0,0,0,0,,,,,,,,,,,,,70.64315229999193,,,,,,,,,,,,,,,,,,,,,,,,,,,,,,,,,,70.63294369999494,70.64315229999193,71.14285519999976,71.14285519999976,71.14285519999976,71.14285519999976,71.14285519999976,71.44271049999224,71.44271049999224,71.44271049999224,72.24332480000157,72.22696590000123,None,72.2271705000021,72.24332480000157,73.22699480000301,,,,,,,,,,,,,,,,,,,,,,,,,,,,,,,,,,,,,,,,,,,,,,,,,,,,,,,,,,,,,,,,,,,,,,,,,,,,,,,,,,,,,,B_15,001,2024-11-30_16h00.54.229,untitled,2024.1.5,None,2024-11-30 16h01.07.559330 +0530,
triangle.png,stranger,1,M,,,,,0,1,1,1,,,,,,,,,,,,,73.24372899999435,,,,,,,,,,,,,,,,,,,,,,,,,,,,,,,,,,73.2272532999923,73.24372899999435,73.74397129999124,73.72752509999555,73.72752509999555,73.72752509999555,73.72752509999555,,,,,73.96142769999278,m,73.96175419999054,73.97718469999381,74.96165840000322,0.23057840000547003,None,74.97788520000177,,,,,,,,,,,,,,,,,,,,,,,,,,,,,,,,,,,,,,,,,,,,,,,,,,,,,,,,,,,,,,,,,,,,,,,,,,,,,,,,,,,B_15,001,2024-11-30_16h00.54.229,untitled,2024.1.5,None,2024-11-30 16h01.07.559330 +0530,
triangle.png,you,0,Z,,,,,0,2,2,3,,,,,,,,,,,,,74.97788520000177,,,,,,,,,,,,,,,,,,,,,,,,,,,,,,,,,,74.96188989999064,74.97788520000177,75.47818499999994,75.46149560000049,75.46149560000049,75.46149560000049,75.46149560000049,75.7616585999931,75.7616585999931,75.7616585999931,,75.84565669999574,m,75.8458990999934,75.86177969998971,76.84595309999713,0.3740684000076726,None,76.86215039998933,,,,,,,,,,,,,,,,,,,,,,,,,,,,,,,,,,,,,,,,,,,,,,,,,,,,,,,,,,,,,,,,,,,,,,,,,,,,,,,,,,,B_15,001,2024-11-30_16h00.54.229,untitled,2024.1.5,None,2024-11-30 16h01.07.559330 +0530,
square.png,stranger,0,Z,,,,,0,3,3,2,,,,,,,,,,,,,76.86215039998933,,,,,,,,,,,,,,,,,,,,,,,,,,,,,,,,,,76.84618279999995,76.86215039998933,77.36231319999206,77.34596039999451,77.34596039999451,77.34596039999451,77.34596039999451,77.64585369999986,77.64585369999986,77.64585369999986,,77.69657179999922,m,77.69681619999756,77.71286189999955,78.69696299999487,0.34926099999574944,None,78.713142099994,,,,,,,,,,,,,,,,,,,,,,,,,,,,,,,,,,,,,,,,,,,,,,,,,,,,,,,,,,,,,,,,,,,,,,,,,,,,,,,,,,,B_15,001,2024-11-30_16h00.54.229,untitled,2024.1.5,None,2024-11-30 16h01.07.559330 +0530,
triangle.png,you,0,Z,,,,,1,0,4,3,,,,,,,,,,,,,78.713142099994,,,,,,,,,,,,,,,,,,,,,,,,,,,,,,,,,,78.69718730000022,78.713142099994,79.21352299999853,79.19690699999046,79.19690699999046,79.19690699999046,79.19690699999046,79.49694240000099,79.49694240000099,79.49694240000099,,79.68110299999535,m,79.68138129998988,79.69705919999979,80.68138860000181,0.46897070000704844,None,80.69741339999018,,,,,,,,,,,,,,,,,,,,,,,,,,,,,,,,,,,,,,,,,,,,,,,,,,,,,,,,,,,,,,,,,,,,,,,,,,,,,,,,,,,B_15,001,2024-11-30_16h00.54.229,untitled,2024.1.5,None,2024-11-30 16h01.07.559330 +0530,
triangle.png,stranger,1,M,,,,,1,1,5,1,,,,,,,,,,,,,80.69741339999018,,,,,,,,,,,,,,,,,,,,,,,,,,,,,,,,,,80.6816159000009,80.69741339999018,81.19770879999851,81.1811430999951,81.1811430999951,81.1811430999951,81.1811430999951,81.4812660000025,81.4812660000025,81.4812660000025,,81.53200880000077,z,81.53225669999665,81.54789349999919,82.53214179999486,0.3368863999930909,None,82.54836149999755,,,,,,,,,,,,,,,,,,,,,,,,,,,,,,,,,,,,,,,,,,,,,,,,,,,,,,,,,,,,,,,,,,,,,,,,,,,,,,,,,,,B_15,001,2024-11-30_16h00.54.229,untitled,2024.1.5,None,2024-11-30 16h01.07.559330 +0530,
square.png,you,1,M,,,,,1,2,6,0,,,,,,,,,,,,,82.54836149999755,,,,,,,,,,,,,,,,,,,,,,,,,,,,,,,,,,82.53237269999227,82.54836149999755,83.04885419999482,83.03218619999825,83.03218619999825,83.03218619999825,83.03218619999825,83.33204129998921,83.33204129998921,83.33204129998921,,83.44989069999428,m,83.45015669999702,83.46557319999556,84.45004480000352,0.40355190000263974,None,84.4659290999989,,,,,,,,,,,,,,,,,,,,,,,,,,,,,,,,,,,,,,,,,,,,,,,,,,,,,,,,,,,,,,,,,,,,,,,,,,,,,,,,,,,B_15,001,2024-11-30_16h00.54.229,untitled,2024.1.5,None,2024-11-30 16h01.07.559330 +0530,
square.png,stranger,0,Z,,,,,1,3,7,2,,,,,,,,,,,,,84.4659290999989,,,,,,,,,,,,,,,,,,,,,,,,,,,,,,,,,,84.4504059000028,84.4659290999989,84.96656619998976,84.95016799999576,84.95016799999576,84.95016799999576,84.95016799999576,85.24956899999233,85.24956899999233,85.24956899999233,,85.38414709999051,z,85.38439289999951,85.40003910000087,86.3843160999968,0.42905180000525434,None,86.40037209998991,,,,,,,,,,,,,,,,,,,,,,,,,,,,,,,,,,,,,,,,,,,,,,,,,,,,,,,,,,,,,,,,,,,,,,,,,,,,,,,,,,,B_15,001,2024-11-30_16h00.54.229,untitled,2024.1.5,None,2024-11-30 16h01.07.559330 +0530,
square.png,you,1,M,,,,,2,0,8,0,,,,,,,,,,,,,86.40037209998991,,,,,,,,,,,,,,,,,,,,,,,,,,,,,,,,,,86.38454569999885,86.40037209998991,86.90083389999927,86.88414219999686,86.88414219999686,86.88414219999686,86.88414219999686,87.18422290000308,87.18422290000308,87.18422290000308,,87.45157399999152,z,87.45181440000306,87.46765589999268,88.45190410000214,0.5618136999983108,None,88.46816129999934,,,,,,,,,,,,,,,,,,,,,,,,,,,,,,,,,,,,,,,,,,,,,,,,,,,,,,,,,,,,,,,,,,,,,,,,,,,,,,,,,,,B_15,001,2024-11-30_16h00.54.229,untitled,2024.1.5,None,2024-11-30 16h01.07.559330 +0530,
square.png,stranger,0,Z,,,,,2,1,9,2,,,,,,,,,,,,,88.46816129999934,,,,,,,,,,,,,,,,,,,,,,,,,,,,,,,,,,88.45214349999151,88.46816129999934,88.96852339999168,88.95170279999729,88.95170279999729,88.95170279999729,88.95170279999729,89.25199579999025,89.25199579999025,89.25199579999025,90.05245149999973,90.03585749999911,None,90.03599370000302,90.05245149999973,91.03635729999223,,,91.05256959999679,,,,,,,,,,,,,,,,,,,,,,,,,,,,,,,,,,,,,,,,,,,,,,,,,,,,,,,,,,,,,,,,,,,,,,,,,,,,,,,,,,,B_15,001,2024-11-30_16h00.54.229,untitled,2024.1.5,None,2024-11-30 16h01.07.559330 +0530,
triangle.png,stranger,1,M,,,,,2,2,10,1,,,,,,,,,,,,,91.05256959999679,,,,,,,,,,,,,,,,,,,,,,,,,,,,,,,,,,91.03658929999801,91.05256959999679,91.55304709999473,91.55304709999473,91.55304709999473,91.55304709999473,91.55304709999473,91.85297480000008,91.85297480000008,91.85297480000008,92.65348009999434,92.63743339999928,None,92.63756909999938,92.65348009999434,93.63771919999272,,,93.65410159999738,,,,,,,,,,,,,,,,,,,,,,,,,,,,,,,,,,,,,,,,,,,,,,,,,,,,,,,,,,,,,,,,,,,,,,,,,,,,,,,,,,,B_15,001,2024-11-30_16h00.54.229,untitled,2024.1.5,None,2024-11-30 16h01.07.559330 +0530,
triangle.png,you,0,Z,,,,,2,3,11,3,,,,,,,,,,,,,93.65410159999738,,,,,,,,,,,,,,,,,,,,,,,,,,,,,,,,,,93.63794829999097,93.65410159999738,94.15437309999834,94.15437309999834,94.15437309999834,94.15437309999834,94.15437309999834,94.45437209999363,94.45437209999363,94.45437209999363,,94.4885479999939,m,94.48879950000264,94.50451889999385,95.48874610000348,0.3328622999979416,None,95.50520200000028,,,,,,,,,,,,,,,,,,,,,,,,,,,,,,,,,,,,,,,,,,,,,,,,,,,,,,,,,,,,,,,,,,,,,,,,,,,,,,,,,,,B_15,001,2024-11-30_16h00.54.229,untitled,2024.1.5,None,2024-11-30 16h01.07.559330 +0530,
triangle.png,you,0,Z,,,,,3,0,12,3,,,,,,,,,,,,,95.50520200000028,,,,,,,,,,,,,,,,,,,,,,,,,,,,,,,,,,95.48897859999852,95.50520200000028,96.00546800000302,95.98883429999114,95.98883429999114,95.98883429999114,95.98883429999114,96.28880460000073,96.28880460000073,96.28880460000073,,96.98990919999778,z,96.99015269998927,97.00588519999292,97.9900731999951,0.9944852000044193,None,98.00620679999702,,,,,,,,,,,,,,,,,,,,,,,,,,,,,,,,,,,,,,,,,,,,,,,,,,,,,,,,,,,,,,,,,,,,,,,,,,,,,,,,,,,B_15,001,2024-11-30_16h00.54.229,untitled,2024.1.5,None,2024-11-30 16h01.07.559330 +0530,
triangle.png,stranger,1,M,,,,,3,1,13,1,,,,,,,,,,,,,98.00620679999702,,,,,,,,,,,,,,,,,,,,,,,,,,,,,,,,,,97.99030700000003,98.00620679999702,98.50674169999547,98.49015070000314,98.49015070000314,98.49015070000314,98.49015070000314,98.78998899999715,98.78998899999715,98.78998899999715,,99.05772509999224,z,99.05797549999261,99.07359359999828,100.05775039999571,0.561036500002956,None,100.07422270000097,,,,,,,,,,,,,,,,,,,,,,,,,,,,,,,,,,,,,,,,,,,,,,,,,,,,,,,,,,,,,,,,,,,,,,,,,,,,,,,,,,,B_15,001,2024-11-30_16h00.54.229,untitled,2024.1.5,None,2024-11-30 16h01.07.559330 +0530,
square.png,stranger,0,Z,,,,,3,2,14,2,,,,,,,,,,,,,100.07422270000097,,,,,,,,,,,,,,,,,,,,,,,,,,,,,,,,,,100.05797880000318,100.07422270000097,100.574309299991,100.5577784999914,100.5577784999914,100.5577784999914,100.5577784999914,100.85787759999221,100.85787759999221,100.85787759999221,101.65832599998976,101.64205539999239,None,101.64228709999588,101.65832599998976,102.64247399999294,,,102.6585827999952,,,,,,,,,,,,,,,,,,,,,,,,,,,,,,,,,,,,,,,,,,,,,,,,,,,,,,,,,,,,,,,,,,,,,,,,,,,,,,,,,,,B_15,001,2024-11-30_16h00.54.229,untitled,2024.1.5,None,2024-11-30 16h01.07.559330 +0530,
square.png,you,1,M,,,,,3,3,15,0,,,,,,,,,,,,,102.6585827999952,,,,,,,,,,,,,,,,,,,,,,,,,,,,,,,,,,102.64270369999576,102.6585827999952,103.15895519999322,103.15895519999322,103.15895519999322,103.15895519999322,103.15895519999322,103.45916630000283,103.45916630000283,103.45916630000283,,103.99341209999693,m,103.99365979999129,104.00922799999535,104.99377020000247,0.8200674999970943,None,105.0100553999946,,,,,,,,,,,,,,,,,,,,,,,,,,,,,,,,,,,,,,,,,,,,,,,,,,,,,,,,,,,,,,,,,,,,,,,,,,,,,,,,,,,B_15,001,2024-11-30_16h00.54.229,untitled,2024.1.5,None,2024-11-30 16h01.07.559330 +0530,
triangle.png,stranger,1,M,,,,,4,0,16,1,,,,,,,,,,,,,105.0100553999946,,,,,,,,,,,,,,,,,,,,,,,,,,,,,,,,,,104.99400340000284,105.0100553999946,105.51023259999056,105.49366069999814,105.49366069999814,105.49366069999814,105.49366069999814,105.79356350000307,105.79356350000307,105.79356350000307,,105.97786400000041,m,105.97810949999257,105.99369099999603,106.9779841999989,0.4722875000006752,None,106.99414149999211,,,,,,,,,,,,,,,,,,,,,,,,,,,,,,,,,,,,,,,,,,,,,,,,,,,,,,,,,,,,,,,,,,,,,,,,,,,,,,,,,,,B_15,001,2024-11-30_16h00.54.229,untitled,2024.1.5,None,2024-11-30 16h01.07.559330 +0530,
triangle.png,you,0,Z,,,,,4,1,17,3,,,,,,,,,,,,,106.99414149999211,,,,,,,,,,,,,,,,,,,,,,,,,,,,,,,,,,106.97821099999419,106.99414149999211,107.49451740000222,107.47779920000175,107.47779920000175,107.47779920000175,107.47779920000175,,,,,107.72868960000051,m,107.72893450000265,107.74470809999912,108.72889990000112,0.2401013999915449,None,108.74503199999162,,,,,,,,,,,,,,,,,,,,,,,,,,,,,,,,,,,,,,,,,,,,,,,,,,,,,,,,,,,,,,,,,,,,,,,,,,,,,,,,,,,B_15,001,2024-11-30_16h00.54.229,untitled,2024.1.5,None,2024-11-30 16h01.07.559330 +0530,
square.png,stranger,0,Z,,,,,4,2,18,2,,,,,,,,,,,,,108.74503199999162,,,,,,,,,,,,,,,,,,,,,,,,,,,,,,,,,,108.72913100000005,108.74503199999162,109.24533920000249,109.22896059999766,109.22896059999766,109.22896059999766,109.22896059999766,,,,,109.47962209999969,m,109.47987729999295,109.4956869000016,110.47964109999884,0.24249629999394529,None,110.49605639999209,,,,,,,,,,,,,,,,,,,,,,,,,,,,,,,,,,,,,,,,,,,,,,,,,,,,,,,,,,,,,,,,,,,,,,,,,,,,,,,,,,,B_15,001,2024-11-30_16h00.54.229,untitled,2024.1.5,None,2024-11-30 16h01.07.559330 +0530,
square.png,you,1,M,,,,,4,3,19,0,,,,,,,,,,,,,110.49605639999209,,,,,,,,,,,,,,,,,,,,,,,,,,,,,,,,,,110.47987409999769,110.49605639999209,110.99639869999373,110.97977219999302,110.97977219999302,110.97977219999302,110.97977219999302,111.27990069999942,111.27990069999942,111.27990069999942,,111.34736509999493,z,111.34760789999564,111.36330739999539,112.3474242999946,0.3553093000082299,None,112.36370249999163,,,,,,,,,,,,,,,,,,,,,,,,,,,,,,,,,,,,,,,,,,,,,,,,,,,,,,,,,,,,,,,,,,,,,,,,,,,,,,,,,,,B_15,001,2024-11-30_16h00.54.229,untitled,2024.1.5,None,2024-11-30 16h01.07.559330 +0530,
,,,,,,,,,,,,,,,,,,,,,,,,,,,,,,,,,,,,,,,,,,,,,,,,,,,,,,,,,,,,,,,,,,,,,,,,,,,,,112.34747039999638,112.36370249999163,112.36370249999163,113.5481820999994,space,1.1757724999915808,None,,,,,,,,,,,,,,,,,,,,,,,,,,,,,,,,,,,,,,,,,,,,,,,,,,,,,,,,,,,,,,,,,,,,,,,,,,,,B_15,001,2024-11-30_16h00.54.229,untitled,2024.1.5,None,2024-11-30 16h01.07.559330 +0530,
triangle.png,you,0,Z,,,,,,,,,0,0,0,3,,,,,,,,,113.56424009999319,,,,,,,,,,,,,,,,,,,,,,,,,,,,,,,,,,113.55330899999535,113.56424009999319,114.06470259999332,114.04816979999305,114.04816979999305,114.04816979999305,114.04816979999305,114.34795199999644,114.34795199999644,114.34795199999644,,114.61555180000141,m,114.61626519999118,114.63153539999621,115.61593509999511,0.5656448999943677,None,115.63188299999456,,,,,,,,,,,,,,,,,,,,,,,,,,,,,,,,,,,,,,,,,,,,,,,,,,,,,,,,,,,,,,,,,,,,,,,,,,,,,,,,,,,B_15,001,2024-11-30_16h00.54.229,untitled,2024.1.5,None,2024-11-30 16h01.07.559330 +0530,
square.png,you,1,M,,,,,,,,,0,1,1,0,,,,,,,,,115.63188299999456,,,,,,,,,,,,,,,,,,,,,,,,,,,,,,,,,,115.61631009999837,115.63188299999456,116.13242470000114,116.11579289998917,116.11579289998917,116.11579289998917,116.11579289998917,116.41582280000148,116.41582280000148,116.41582280000148,,116.46668299999146,m,116.46710650000023,116.48232480000297,117.46677620000264,0.3421803000092041,None,117.48307649999333,,,,,,,,,,,,,,,,,,,,,,,,,,,,,,,,,,,,,,,,,,,,,,,,,,,,,,,,,,,,,,,,,,,,,,,,,,,,,,,,,,,B_15,001,2024-11-30_16h00.54.229,untitled,2024.1.5,None,2024-11-30 16h01.07.559330 +0530,
square.png,stranger,0,Z,,,,,,,,,0,2,2,2,,,,,,,,,117.48307649999333,,,,,,,,,,,,,,,,,,,,,,,,,,,,,,,,,,117.46712439999101,117.48307649999333,117.98323250000249,117.96656229998916,117.96656229998916,117.96656229998916,117.96656229998916,118.2665910999931,118.2665910999931,118.2665910999931,,118.31738259999838,z,118.31780309999886,118.33349779999116,119.31765869999072,0.34850659999938216,None,119.33405829999538,,,,,,,,,,,,,,,,,,,,,,,,,,,,,,,,,,,,,,,,,,,,,,,,,,,,,,,,,,,,,,,,,,,,,,,,,,,,,,,,,,,B_15,001,2024-11-30_16h00.54.229,untitled,2024.1.5,None,2024-11-30 16h01.07.559330 +0530,
triangle.png,stranger,1,M,,,,,,,,,0,3,3,1,,,,,,,,,119.33405829999538,,,,,,,,,,,,,,,,,,,,,,,,,,,,,,,,,,119.31800059998932,119.33405829999538,119.83420849998947,119.81755589999375,119.81755589999375,119.81755589999375,119.81755589999375,120.1176637000026,120.1176637000026,120.1176637000026,,120.23523559999012,m,120.23568810000143,120.25113639999472,121.23542240000097,0.41660930000944063,None,121.25145989999874,,,,,,,,,,,,,,,,,,,,,,,,,,,,,,,,,,,,,,,,,,,,,,,,,,,,,,,,,,,,,,,,,,,,,,,,,,,,,,,,,,,B_15,001,2024-11-30_16h00.54.229,untitled,2024.1.5,None,2024-11-30 16h01.07.559330 +0530,
square.png,you,1,M,,,,,,,,,1,0,4,0,,,,,,,,,121.25145989999874,,,,,,,,,,,,,,,,,,,,,,,,,,,,,,,,,,121.23576939999475,121.25145989999874,121.75187100000039,121.73527839999588,121.73527839999588,121.73527839999588,121.73527839999588,122.03538919999846,122.03538919999846,122.03538919999846,,122.33701309999742,m,122.33744669999578,122.3517290000018,123.33617779999622,0.5990709999896353,None,123.35255519999191,,,,,,,,,,,,,,,,,,,,,,,,,,,,,,,,,,,,,,,,,,,,,,,,,,,,,,,,,,,,,,,,,,,,,,,,,,,,,,,,,,,B_15,001,2024-11-30_16h00.54.229,untitled,2024.1.5,None,2024-11-30 16h01.07.559330 +0530,
triangle.png,you,0,Z,,,,,,,,,1,1,5,3,,,,,,,,,123.35255519999191,,,,,,,,,,,,,,,,,,,,,,,,,,,,,,,,,,123.33652759999677,123.35255519999191,123.85296629999357,123.85296629999357,123.85296629999357,123.85296629999357,123.85296629999357,124.15300540000317,124.15300540000317,124.15300540000317,,124.38711189999594,m,124.38758149999194,124.4030488999997,125.38758850000158,0.5187884999904782,None,125.40365310000197,,,,,,,,,,,,,,,,,,,,,,,,,,,,,,,,,,,,,,,,,,,,,,,,,,,,,,,,,,,,,,,,,,,,,,,,,,,,,,,,,,,B_15,001,2024-11-30_16h00.54.229,untitled,2024.1.5,None,2024-11-30 16h01.07.559330 +0530,
square.png,stranger,0,Z,,,,,,,,,1,2,6,2,,,,,,,,,125.40365310000197,,,,,,,,,,,,,,,,,,,,,,,,,,,,,,,,,,125.38799589998962,125.40365310000197,125.9039186000009,125.8873093000002,125.8873093000002,125.8873093000002,125.8873093000002,126.18749650000245,126.18749650000245,126.18749650000245,,126.27144489999046,z,126.27186539999093,126.28749279999465,127.27165359999344,0.3793162000074517,None,127.28808159999608,,,,,,,,,,,,,,,,,,,,,,,,,,,,,,,,,,,,,,,,,,,,,,,,,,,,,,,,,,,,,,,,,,,,,,,,,,,,,,,,,,,B_15,001,2024-11-30_16h00.54.229,untitled,2024.1.5,None,2024-11-30 16h01.07.559330 +0530,
triangle.png,stranger,1,M,,,,,,,,,1,3,7,1,,,,,,,,,127.28808159999608,,,,,,,,,,,,,,,,,,,,,,,,,,,,,,,,,,127.27200029999949,127.28808159999608,127.78844910000043,127.771582699992,127.771582699992,127.771582699992,127.771582699992,128.0717139999906,128.0717139999906,128.0717139999906,,128.47281870000006,z,128.47323419999157,128.488738,129.47272019999218,0.6954992999962997,None,129.48917359999905,,,,,,,,,,,,,,,,,,,,,,,,,,,,,,,,,,,,,,,,,,,,,,,,,,,,,,,,,,,,,,,,,,,,,,,,,,,,,,,,,,,B_15,001,2024-11-30_16h00.54.229,untitled,2024.1.5,None,2024-11-30 16h01.07.559330 +0530,
triangle.png,you,0,Z,,,,,,,,,2,0,8,3,,,,,,,,,129.48917359999905,,,,,,,,,,,,,,,,,,,,,,,,,,,,,,,,,,129.47306609999214,129.48917359999905,129.98922419999144,129.97289069999533,129.97289069999533,129.97289069999533,129.97289069999533,130.27288709999993,130.27288709999993,130.27288709999993,,130.340392099999,m,130.3408105999988,130.3561597999942,131.34034209999663,0.36085349999484606,None,131.35680890000367,,,,,,,,,,,,,,,,,,,,,,,,,,,,,,,,,,,,,,,,,,,,,,,,,,,,,,,,,,,,,,,,,,,,,,,,,,,,,,,,,,,B_15,001,2024-11-30_16h00.54.229,untitled,2024.1.5,None,2024-11-30 16h01.07.559330 +0530,
triangle.png,stranger,1,M,,,,,,,,,2,1,9,1,,,,,,,,,131.35680890000367,,,,,,,,,,,,,,,,,,,,,,,,,,,,,,,,,,131.340684099996,131.35680890000367,131.857153799996,131.8403602000035,131.8403602000035,131.8403602000035,131.8403602000035,132.1403960000025,132.1403960000025,132.1403960000025,,132.22461649999605,z,132.22503259999212,132.24056059999566,133.2248041999992,0.37087749999773223,None,133.24092189999647,,,,,,,,,,,,,,,,,,,,,,,,,,,,,,,,,,,,,,,,,,,,,,,,,,,,,,,,,,,,,,,,,,,,,,,,,,,,,,,,,,,B_15,001,2024-11-30_16h00.54.229,untitled,2024.1.5,None,2024-11-30 16h01.07.559330 +0530,
square.png,stranger,0,Z,,,,,,,,,2,2,10,2,,,,,,,,,133.24092189999647,,,,,,,,,,,,,,,,,,,,,,,,,,,,,,,,,,133.2251549999928,133.24092189999647,133.7411926999921,133.7245869000035,133.7245869000035,133.7245869000035,133.7245869000035,134.02451129999827,134.02451129999827,134.02451129999827,,134.1754981999984,m,134.17592549999245,134.19140029999835,135.17584599999827,0.4379344999906607,None,135.192100699991,,,,,,,,,,,,,,,,,,,,,,,,,,,,,,,,,,,,,,,,,,,,,,,,,,,,,,,,,,,,,,,,,,,,,,,,,,,,,,,,,,,B_15,001,2024-11-30_16h00.54.229,untitled,2024.1.5,None,2024-11-30 16h01.07.559330 +0530,
square.png,you,1,M,,,,,,,,,2,3,11,0,,,,,,,,,135.192100699991,,,,,,,,,,,,,,,,,,,,,,,,,,,,,,,,,,135.17618819999916,135.192100699991,135.69216769999184,135.67552439999417,135.67552439999417,135.67552439999417,135.67552439999417,135.97591439999815,135.97591439999815,135.97591439999815,,136.05986300000222,z,136.06028309999965,136.07589789999474,137.06012769999506,0.38232189998961985,None,137.07633260000148,,,,,,,,,,,,,,,,,,,,,,,,,,,,,,,,,,,,,,,,,,,,,,,,,,,,,,,,,,,,,,,,,,,,,,,,,,,,,,,,,,,B_15,001,2024-11-30_16h00.54.229,untitled,2024.1.5,None,2024-11-30 16h01.07.559330 +0530,
square.png,stranger,0,Z,,,,,,,,,3,0,12,2,,,,,,,,,137.07633260000148,,,,,,,,,,,,,,,,,,,,,,,,,,,,,,,,,,137.06047589999798,137.07633260000148,137.57643879999523,137.55984419999004,137.55984419999004,137.55984419999004,137.55984419999004,137.85998809999728,137.85998809999728,137.85998809999728,,137.96088210000016,m,137.9613013999915,137.97680379998928,138.96097709999594,0.3906728000001749,None,138.97737629999756,,,,,,,,,,,,,,,,,,,,,,,,,,,,,,,,,,,,,,,,,,,,,,,,,,,,,,,,,,,,,,,,,,,,,,,,,,,,,,,,,,,B_15,001,2024-11-30_16h00.54.229,untitled,2024.1.5,None,2024-11-30 16h01.07.559330 +0530,
square.png,you,1,M,,,,,,,,,3,1,13,0,,,,,,,,,138.97737629999756,,,,,,,,,,,,,,,,,,,,,,,,,,,,,,,,,,138.96131579999928,138.97737629999756,139.47745459999715,139.46109169999545,139.46109169999545,139.46109169999545,139.46109169999545,139.7608615999925,139.7608615999925,139.7608615999925,,139.9452764000016,z,139.94570830000157,139.9611731999903,140.94534979999298,0.482351499987999,None,140.96146749999025,,,,,,,,,,,,,,,,,,,,,,,,,,,,,,,,,,,,,,,,,,,,,,,,,,,,,,,,,,,,,,,,,,,,,,,,,,,,,,,,,,,B_15,001,2024-11-30_16h00.54.229,untitled,2024.1.5,None,2024-11-30 16h01.07.559330 +0530,
triangle.png,stranger,1,M,,,,,,,,,3,2,14,1,,,,,,,,,140.96146749999025,,,,,,,,,,,,,,,,,,,,,,,,,,,,,,,,,,140.94569290000072,140.96146749999025,141.4620217999909,141.44541619998927,141.44541619998927,141.44541619998927,141.44541619998927,141.74517840000044,141.74517840000044,141.74517840000044,,141.9462738000002,m,141.9466992999951,141.96201350000047,142.94647239999904,0.4892183999909321,None,142.96263870000257,,,,,,,,,,,,,,,,,,,,,,,,,,,,,,,,,,,,,,,,,,,,,,,,,,,,,,,,,,,,,,,,,,,,,,,,,,,,,,,,,,,B_15,001,2024-11-30_16h00.54.229,untitled,2024.1.5,None,2024-11-30 16h01.07.559330 +0530,
triangle.png,you,0,Z,,,,,,,,,3,3,15,3,,,,,,,,,142.96263870000257,,,,,,,,,,,,,,,,,,,,,,,,,,,,,,,,,,142.94682029999967,142.96263870000257,143.46305140000186,143.44642490000115,143.44642490000115,143.44642490000115,143.44642490000115,143.74615949999134,143.74615949999134,143.74615949999134,,143.91414480000094,m,143.91456979999202,143.9297510000033,144.91422130000137,0.45138449998921715,None,144.93038259999594,,,,,,,,,,,,,,,,,,,,,,,,,,,,,,,,,,,,,,,,,,,,,,,,,,,,,,,,,,,,,,,,,,,,,,,,,,,,,,,,,,,B_15,001,2024-11-30_16h00.54.229,untitled,2024.1.5,None,2024-11-30 16h01.07.559330 +0530,
triangle.png,stranger,1,M,,,,,,,,,4,0,16,1,,,,,,,,,144.93038259999594,,,,,,,,,,,,,,,,,,,,,,,,,,,,,,,,,,144.91456689999904,144.93038259999594,145.4305757999973,145.4141793000017,145.4141793000017,145.4141793000017,145.4141793000017,145.71397749999596,145.71397749999596,145.71397749999596,,146.18178389999957,m,146.18220159999328,146.1974518999923,147.1820039000013,0.7604123000055552,None,147.1980700999993,,,,,,,,,,,,,,,,,,,,,,,,,,,,,,,,,,,,,,,,,,,,,,,,,,,,,,,,,,,,,,,,,,,,,,,,,,,,,,,,,,,B_15,001,2024-11-30_16h00.54.229,untitled,2024.1.5,None,2024-11-30 16h01.07.559330 +0530,
square.png,you,1,M,,,,,,,,,4,1,17,0,,,,,,,,,147.1980700999993,,,,,,,,,,,,,,,,,,,,,,,,,,,,,,,,,,147.1823516000004,147.1980700999993,147.69851210000343,147.68210720000206,147.68210720000206,147.68210720000206,147.68210720000206,147.98168089998944,147.98168089998944,147.98168089998944,,148.0994367999956,z,148.09988709999016,148.11536939999496,149.09955250000348,0.40908489999128506,None,149.11587319998944,,,,,,,,,,,,,,,,,,,,,,,,,,,,,,,,,,,,,,,,,,,,,,,,,,,,,,,,,,,,,,,,,,,,,,,,,,,,,,,,,,,B_15,001,2024-11-30_16h00.54.229,untitled,2024.1.5,None,2024-11-30 16h01.07.559330 +0530,
square.png,stranger,0,Z,,,,,,,,,4,2,18,2,,,,,,,,,149.11587319998944,,,,,,,,,,,,,,,,,,,,,,,,,,,,,,,,,,149.09989899999346,149.11587319998944,149.6159725000034,149.59951129999536,149.59951129999536,149.59951129999536,149.59951129999536,149.89956779999193,149.89956779999193,149.89956779999193,,150.11719730000186,m,150.1176160999894,150.13307019999775,151.1174333999952,0.5036866000009468,None,151.13344439999491,,,,,,,,,,,,,,,,,,,,,,,,,,,,,,,,,,,,,,,,,,,,,,,,,,,,,,,,,,,,,,,,,,,,,,,,,,,,,,,,,,,B_15,001,2024-11-30_16h00.54.229,untitled,2024.1.5,None,2024-11-30 16h01.07.559330 +0530,
triangle.png,you,0,Z,,,,,,,,,4,3,19,3,,,,,,,,,151.13344439999491,,,,,,,,,,,,,,,,,,,,,,,,,,,,,,,,,,151.11778239998966,151.13344439999491,151.63364629998978,151.61722829999053,151.61722829999053,151.61722829999053,151.61722829999053,151.9172353999893,151.9172353999893,151.9172353999893,,152.26823249999143,z,152.26865149999503,152.28415019999375,153.26836869999534,0.6416880000033416,None,153.28461000000243,,,,,,,,,,,,,,,,,,,,,,,,,,,,,,,,,,,,,,,,,,,,,,,,,,,,,,,,,,,,,,,,,,,,,,,,,,,,,,,,,,,B_15,001,2024-11-30_16h00.54.229,untitled,2024.1.5,None,2024-11-30 16h01.07.559330 +0530,
square.png,stranger,0,Z,,,,,,,,,5,0,20,2,,,,,,,,,153.28461000000243,,,,,,,,,,,,,,,,,,,,,,,,,,,,,,,,,,153.26871530000062,153.28461000000243,153.78484199999366,153.76842579999357,153.76842579999357,153.76842579999357,153.76842579999357,154.0681220999977,154.0681220999977,154.0681220999977,,154.31923929999175,m,154.31965779999155,154.33530359998986,155.31933359999675,0.5461262999888277,None,155.33549029999995,,,,,,,,,,,,,,,,,,,,,,,,,,,,,,,,,,,,,,,,,,,,,,,,,,,,,,,,,,,,,,,,,,,,,,,,,,,,,,,,,,,B_15,001,2024-11-30_16h00.54.229,untitled,2024.1.5,None,2024-11-30 16h01.07.559330 +0530,
square.png,you,1,M,,,,,,,,,5,1,21,0,,,,,,,,,155.33549029999995,,,,,,,,,,,,,,,,,,,,,,,,,,,,,,,,,,155.31968220000272,155.33549029999995,155.83606200000213,155.819250200002,155.819250200002,155.819250200002,155.819250200002,156.1191206999938,156.1191206999938,156.1191206999938,,156.52046580000024,m,156.52093489999243,156.53620039999078,157.52053480000177,0.6955965999950422,None,157.53661389999615,,,,,,,,,,,,,,,,,,,,,,,,,,,,,,,,,,,,,,,,,,,,,,,,,,,,,,,,,,,,,,,,,,,,,,,,,,,,,,,,,,,B_15,001,2024-11-30_16h00.54.229,untitled,2024.1.5,None,2024-11-30 16h01.07.559330 +0530,
triangle.png,you,0,Z,,,,,,,,,5,2,22,3,,,,,,,,,157.53661389999615,,,,,,,,,,,,,,,,,,,,,,,,,,,,,,,,,,157.52088989999902,157.53661389999615,158.03729510000267,158.0205730000016,158.0205730000016,158.0205730000016,158.0205730000016,158.32049389999884,158.32049389999884,158.32049389999884,,158.62125289998949,z,158.6216851999925,158.6374766999943,159.6217178999941,0.5948027000122238,None,159.63790909999807,,,,,,,,,,,,,,,,,,,,,,,,,,,,,,,,,,,,,,,,,,,,,,,,,,,,,,,,,,,,,,,,,,,,,,,,,,,,,,,,,,,B_15,001,2024-11-30_16h00.54.229,untitled,2024.1.5,None,2024-11-30 16h01.07.559330 +0530,
triangle.png,stranger,1,M,,,,,,,,,5,3,23,1,,,,,,,,,159.63790909999807,,,,,,,,,,,,,,,,,,,,,,,,,,,,,,,,,,159.62211759999627,159.63790909999807,160.13805959999445,160.12126829999033,160.12126829999033,160.12126829999033,160.12126829999033,160.42164929999853,160.42164929999853,160.42164929999853,,160.97253790000104,z,160.97300430000178,160.98833449999802,161.97275829999126,0.8373773000057554,None,161.98890289998963,,,,,,,,,,,,,,,,,,,,,,,,,,,,,,,,,,,,,,,,,,,,,,,,,,,,,,,,,,,,,,,,,,,,,,,,,,,,,,,,,,,B_15,001,2024-11-30_16h00.54.229,untitled,2024.1.5,None,2024-11-30 16h01.07.559330 +0530,
square.png,you,1,M,,,,,,,,,6,0,24,0,,,,,,,,,161.98890289998963,,,,,,,,,,,,,,,,,,,,,,,,,,,,,,,,,,161.97310930000094,161.98890289998963,162.4895014999929,162.47278939999524,162.47278939999524,162.47278939999524,162.47278939999524,162.7728105999995,162.7728105999995,162.7728105999995,,163.2570318999933,m,163.257451700003,163.27307499999006,164.2573704999959,0.7825121999921976,None,164.2737347999937,,,,,,,,,,,,,,,,,,,,,,,,,,,,,,,,,,,,,,,,,,,,,,,,,,,,,,,,,,,,,,,,,,,,,,,,,,,,,,,,,,,B_15,001,2024-11-30_16h00.54.229,untitled,2024.1.5,None,2024-11-30 16h01.07.559330 +0530,
square.png,stranger,0,Z,,,,,,,,,6,1,25,2,,,,,,,,,164.2737347999937,,,,,,,,,,,,,,,,,,,,,,,,,,,,,,,,,,164.25771720000193,164.2737347999937,164.77399329999753,164.75721670000348,164.75721670000348,164.75721670000348,164.75721670000348,165.05735750000167,165.05735750000167,165.05735750000167,,165.4746778999979,z,165.47509700000228,165.49073829999543,166.47497169999406,0.7058146000053966,None,166.49147320000338,,,,,,,,,,,,,,,,,,,,,,,,,,,,,,,,,,,,,,,,,,,,,,,,,,,,,,,,,,,,,,,,,,,,,,,,,,,,,,,,,,,B_15,001,2024-11-30_16h00.54.229,untitled,2024.1.5,None,2024-11-30 16h01.07.559330 +0530,
triangle.png,stranger,1,M,,,,,,,,,6,2,26,1,,,,,,,,,166.49147320000338,,,,,,,,,,,,,,,,,,,,,,,,,,,,,,,,,,166.47531509998953,166.49147320000338,166.99185900000157,166.97500520000176,166.97500520000176,166.97500520000176,166.97500520000176,167.27490319999924,167.27490319999924,167.27490319999924,,167.92609369999263,z,167.92650849999336,167.94201379999868,168.9263401999924,0.943427399994107,None,168.9426620000013,,,,,,,,,,,,,,,,,,,,,,,,,,,,,,,,,,,,,,,,,,,,,,,,,,,,,,,,,,,,,,,,,,,,,,,,,,,,,,,,,,,B_15,001,2024-11-30_16h00.54.229,untitled,2024.1.5,None,2024-11-30 16h01.07.559330 +0530,
triangle.png,you,0,Z,,,,,,,,,6,3,27,3,,,,,,,,,168.9426620000013,,,,,,,,,,,,,,,,,,,,,,,,,,,,,,,,,,168.92669670000032,168.9426620000013,169.44279659999302,169.4263030000002,169.4263030000002,169.4263030000002,169.4263030000002,169.72626460000174,169.72626460000174,169.72626460000174,,170.14393120000022,m,170.14436189999105,170.1596823,171.14416809999966,0.7082092999917222,None,171.16051539999899,,,,,,,,,,,,,,,,,,,,,,,,,,,,,,,,,,,,,,,,,,,,,,,,,,,,,,,,,,,,,,,,,,,,,,,,,,,,,,,,,,,B_15,001,2024-11-30_16h00.54.229,untitled,2024.1.5,None,2024-11-30 16h01.07.559330 +0530,
square.png,you,1,M,,,,,,,,,7,0,28,0,,,,,,,,,171.16051539999899,,,,,,,,,,,,,,,,,,,,,,,,,,,,,,,,,,171.1445209999947,171.16051539999899,171.66075969999656,171.64397429999372,171.64397429999372,171.64397429999372,171.64397429999372,171.9440076000028,171.9440076000028,171.9440076000028,,172.41166309999244,z,172.4120838999952,172.42777439999918,173.41210829999181,0.7629867000068771,None,173.4281084999966,,,,,,,,,,,,,,,,,,,,,,,,,,,,,,,,,,,,,,,,,,,,,,,,,,,,,,,,,,,,,,,,,,,,,,,,,,,,,,,,,,,B_15,001,2024-11-30_16h00.54.229,untitled,2024.1.5,None,2024-11-30 16h01.07.559330 +0530,
square.png,stranger,0,Z,,,,,,,,,7,1,29,2,,,,,,,,,173.4281084999966,,,,,,,,,,,,,,,,,,,,,,,,,,,,,,,,,,173.412453500001,173.4281084999966,173.92849999999453,173.9121468999947,173.9121468999947,173.9121468999947,173.9121468999947,174.21187230000214,174.21187230000214,174.21187230000214,,174.66278389999934,z,174.6632043999998,174.67884939999203,175.6631217999966,0.7389516999974148,None,175.67934279999463,,,,,,,,,,,,,,,,,,,,,,,,,,,,,,,,,,,,,,,,,,,,,,,,,,,,,,,,,,,,,,,,,,,,,,,,,,,,,,,,,,,B_15,001,2024-11-30_16h00.54.229,untitled,2024.1.5,None,2024-11-30 16h01.07.559330 +0530,
triangle.png,you,0,Z,,,,,,,,,7,2,30,3,,,,,,,,,175.67934279999463,,,,,,,,,,,,,,,,,,,,,,,,,,,,,,,,,,175.66347439998935,175.67934279999463,176.1796985999972,176.16312630000175,176.16312630000175,176.16312630000175,176.16312630000175,176.4629491999949,176.4629491999949,176.4629491999949,,176.830793000001,z,176.83120990000316,176.84665549999045,177.83091809999314,0.6592020000098273,None,177.84725789999356,,,,,,,,,,,,,,,,,,,,,,,,,,,,,,,,,,,,,,,,,,,,,,,,,,,,,,,,,,,,,,,,,,,,,,,,,,,,,,,,,,,B_15,001,2024-11-30_16h00.54.229,untitled,2024.1.5,None,2024-11-30 16h01.07.559330 +0530,
triangle.png,stranger,1,M,,,,,,,,,7,3,31,1,,,,,,,,,177.84725789999356,,,,,,,,,,,,,,,,,,,,,,,,,,,,,,,,,,177.83126199999242,177.84725789999356,178.34737589998986,178.33101709999028,178.33101709999028,178.33101709999028,178.33101709999028,178.6306973000028,178.6306973000028,178.6306973000028,,179.0650173999893,z,179.06548279999697,179.0810771999968,180.0653164999967,0.7187355000060052,None,180.08162450000236,,,,,,,,,,,,,,,,,,,,,,,,,,,,,,,,,,,,,,,,,,,,,,,,,,,,,,,,,,,,,,,,,,,,,,,,,,,,,,,,,,,B_15,001,2024-11-30_16h00.54.229,untitled,2024.1.5,None,2024-11-30 16h01.07.559330 +0530,
square.png,you,1,M,,,,,,,,,8,0,32,0,,,,,,,,,180.08162450000236,,,,,,,,,,,,,,,,,,,,,,,,,,,,,,,,,,180.0656675999926,180.08162450000236,180.58172149999882,180.56530999999086,180.56530999999086,180.56530999999086,180.56530999999086,180.86501799999678,180.86501799999678,180.86501799999678,,181.46623150000232,m,181.46671069999866,181.48199719999684,182.4663007999916,0.888343899991014,None,182.48262749999412,,,,,,,,,,,,,,,,,,,,,,,,,,,,,,,,,,,,,,,,,,,,,,,,,,,,,,,,,,,,,,,,,,,,,,,,,,,,,,,,,,,B_15,001,2024-11-30_16h00.54.229,untitled,2024.1.5,None,2024-11-30 16h01.07.559330 +0530,
triangle.png,you,0,Z,,,,,,,,,8,1,33,3,,,,,,,,,182.48262749999412,,,,,,,,,,,,,,,,,,,,,,,,,,,,,,,,,,182.46664869999222,182.48262749999412,182.9831400999974,182.96658670000033,182.96658670000033,182.96658670000033,182.96658670000033,183.26654789999884,183.26654789999884,183.26654789999884,,183.58395780000137,z,183.58438800000295,183.60005660000024,184.58432199999515,0.6116666000016266,None,184.60038439999335,,,,,,,,,,,,,,,,,,,,,,,,,,,,,,,,,,,,,,,,,,,,,,,,,,,,,,,,,,,,,,,,,,,,,,,,,,,,,,,,,,,B_15,001,2024-11-30_16h00.54.229,untitled,2024.1.5,None,2024-11-30 16h01.07.559330 +0530,
triangle.png,stranger,1,M,,,,,,,,,8,2,34,1,,,,,,,,,184.60038439999335,,,,,,,,,,,,,,,,,,,,,,,,,,,,,,,,,,184.58468839999114,184.60038439999335,185.1007768999989,185.08396439999342,185.08396439999342,185.08396439999342,185.08396439999342,185.38423460000195,185.38423460000195,185.38423460000195,,185.55179149999458,m,185.552219899997,185.56767950000358,186.55189069999324,0.46588509999855887,None,186.56808339999407,,,,,,,,,,,,,,,,,,,,,,,,,,,,,,,,,,,,,,,,,,,,,,,,,,,,,,,,,,,,,,,,,,,,,,,,,,,,,,,,,,,B_15,001,2024-11-30_16h00.54.229,untitled,2024.1.5,None,2024-11-30 16h01.07.559330 +0530,
square.png,stranger,0,Z,,,,,,,,,8,3,35,2,,,,,,,,,186.56808339999407,,,,,,,,,,,,,,,,,,,,,,,,,,,,,,,,,,186.552242699996,186.56808339999407,187.068322799998,187.05168779999076,187.05168779999076,187.05168779999076,187.05168779999076,187.35176759999013,187.35176759999013,187.35176759999013,,187.50264089999837,z,187.5030751000013,187.51872239999648,188.50276999999187,0.4380691999976989,None,188.5190525999933,,,,,,,,,,,,,,,,,,,,,,,,,,,,,,,,,,,,,,,,,,,,,,,,,,,,,,,,,,,,,,,,,,,,,,,,,,,,,,,,,,,B_15,001,2024-11-30_16h00.54.229,untitled,2024.1.5,None,2024-11-30 16h01.07.559330 +0530,
square.png,stranger,0,Z,,,,,,,,,9,0,36,2,,,,,,,,,188.5190525999933,,,,,,,,,,,,,,,,,,,,,,,,,,,,,,,,,,188.50312549999217,188.5190525999933,189.01924690000305,189.0027798999945,189.0027798999945,189.0027798999945,189.0027798999945,189.30298379999294,189.30298379999294,189.30298379999294,,189.6038597000006,z,189.6042960999912,189.61972409998998,190.6039310999913,0.5960336999996798,None,190.6204574000003,,,,,,,,,,,,,,,,,,,,,,,,,,,,,,,,,,,,,,,,,,,,,,,,,,,,,,,,,,,,,,,,,,,,,,,,,,,,,,,,,,,B_15,001,2024-11-30_16h00.54.229,untitled,2024.1.5,None,2024-11-30 16h01.07.559330 +0530,
square.png,you,1,M,,,,,,,,,9,1,37,0,,,,,,,,,190.6204574000003,,,,,,,,,,,,,,,,,,,,,,,,,,,,,,,,,,190.6042782000004,190.6204574000003,191.12063469999703,191.10431949999474,191.10431949999474,191.10431949999474,191.10431949999474,191.4039430999983,191.4039430999983,191.4039430999983,,191.52149529999588,m,191.52192610000202,191.537553999995,192.52168930000335,0.4016391999903135,None,192.5379341999942,,,,,,,,,,,,,,,,,,,,,,,,,,,,,,,,,,,,,,,,,,,,,,,,,,,,,,,,,,,,,,,,,,,,,,,,,,,,,,,,,,,B_15,001,2024-11-30_16h00.54.229,untitled,2024.1.5,None,2024-11-30 16h01.07.559330 +0530,
triangle.png,you,0,Z,,,,,,,,,9,2,38,3,,,,,,,,,192.5379341999942,,,,,,,,,,,,,,,,,,,,,,,,,,,,,,,,,,192.5220374999917,192.5379341999942,193.03836540000339,193.0215329999919,193.0215329999919,193.0215329999919,193.0215329999919,193.32179689999612,193.32179689999612,193.32179689999612,,193.8561306999909,z,193.85655689999112,193.8718574999948,194.85628059999726,0.8202298999967752,None,194.8726428999944,,,,,,,,,,,,,,,,,,,,,,,,,,,,,,,,,,,,,,,,,,,,,,,,,,,,,,,,,,,,,,,,,,,,,,,,,,,,,,,,,,,B_15,001,2024-11-30_16h00.54.229,untitled,2024.1.5,None,2024-11-30 16h01.07.559330 +0530,
triangle.png,stranger,1,M,,,,,,,,,9,3,39,1,,,,,,,,,194.8726428999944,,,,,,,,,,,,,,,,,,,,,,,,,,,,,,,,,,194.85663300000306,194.8726428999944,195.37281580000126,195.35615829999733,195.35615829999733,195.35615829999733,195.35615829999733,195.65597179999168,195.65597179999168,195.65597179999168,,196.25737300000037,m,196.25779340000008,196.27317400000175,197.2572943999985,0.8935412999999244,None,197.2737344999914,,,,,,,,,,,,,,,,,,,,,,,,,,,,,,,,,,,,,,,,,,,,,,,,,,,,,,,,,,,,,,,,,,,,,,,,,,,,,,,,,,,B_15,001,2024-11-30_16h00.54.229,untitled,2024.1.5,None,2024-11-30 16h01.07.559330 +0530,
square.png,you,1,M,,,,,,,,,10,0,40,0,,,,,,,,,197.2737344999914,,,,,,,,,,,,,,,,,,,,,,,,,,,,,,,,,,197.257652699991,197.2737344999914,197.77396379999118,197.75755639999988,197.75755639999988,197.75755639999988,197.75755639999988,198.0575710999983,198.0575710999983,198.0575710999983,,198.34186990000308,z,198.34230969999044,198.35764269999345,199.34190739999758,0.5813210999913281,None,199.35814309999114,,,,,,,,,,,,,,,,,,,,,,,,,,,,,,,,,,,,,,,,,,,,,,,,,,,,,,,,,,,,,,,,,,,,,,,,,,,,,,,,,,,B_15,001,2024-11-30_16h00.54.229,untitled,2024.1.5,None,2024-11-30 16h01.07.559330 +0530,
triangle.png,stranger,1,M,,,,,,,,,10,1,41,1,,,,,,,,,199.35814309999114,,,,,,,,,,,,,,,,,,,,,,,,,,,,,,,,,,199.34226389999094,199.35814309999114,199.85835919999226,199.84195190000173,199.84195190000173,199.84195190000173,199.84195190000173,200.14173319999827,200.14173319999827,200.14173319999827,,200.5429318999959,m,200.54335300000093,200.55877570000303,201.54311939999752,0.6964831999939634,None,201.5594478999992,,,,,,,,,,,,,,,,,,,,,,,,,,,,,,,,,,,,,,,,,,,,,,,,,,,,,,,,,,,,,,,,,,,,,,,,,,,,,,,,,,,B_15,001,2024-11-30_16h00.54.229,untitled,2024.1.5,None,2024-11-30 16h01.07.559330 +0530,
triangle.png,you,0,Z,,,,,,,,,10,2,42,3,,,,,,,,,201.5594478999992,,,,,,,,,,,,,,,,,,,,,,,,,,,,,,,,,,201.54346749999968,201.5594478999992,202.0596741999907,202.04303059999074,202.04303059999074,202.04303059999074,202.04303059999074,202.34295229999407,202.34295229999407,202.34295229999407,,202.62709039999754,z,202.62758329999633,202.643158699997,203.62730739999097,0.568737500012503,None,203.6435124999989,,,,,,,,,,,,,,,,,,,,,,,,,,,,,,,,,,,,,,,,,,,,,,,,,,,,,,,,,,,,,,,,,,,,,,,,,,,,,,,,,,,B_15,001,2024-11-30_16h00.54.229,untitled,2024.1.5,None,2024-11-30 16h01.07.559330 +0530,
square.png,stranger,0,Z,,,,,,,,,10,3,43,2,,,,,,,,,203.6435124999989,,,,,,,,,,,,,,,,,,,,,,,,,,,,,,,,,,203.62765129999025,203.6435124999989,204.14389779999328,204.1274596000003,204.1274596000003,204.1274596000003,204.1274596000003,204.4272794999997,204.4272794999997,204.4272794999997,,204.76174020000326,m,204.76216099999147,204.77740219999396,205.76185529999202,0.631320999993477,None,205.77818339999067,,,,,,,,,,,,,,,,,,,,,,,,,,,,,,,,,,,,,,,,,,,,,,,,,,,,,,,,,,,,,,,,,,,,,,,,,,,,,,,,,,,B_15,001,2024-11-30_16h00.54.229,untitled,2024.1.5,None,2024-11-30 16h01.07.559330 +0530,
square.png,stranger,0,Z,,,,,,,,,11,0,44,2,,,,,,,,,205.77818339999067,,,,,,,,,,,,,,,,,,,,,,,,,,,,,,,,,,205.76220539999485,205.77818339999067,206.27845359999628,206.2618589999911,206.2618589999911,206.2618589999911,206.2618589999911,206.56172209999932,206.56172209999932,206.56172209999932,,207.0294189999986,z,207.02984309999738,207.04521820000082,208.02960389999498,0.7518845000013243,None,208.04588029999286,,,,,,,,,,,,,,,,,,,,,,,,,,,,,,,,,,,,,,,,,,,,,,,,,,,,,,,,,,,,,,,,,,,,,,,,,,,,,,,,,,,B_15,001,2024-11-30_16h00.54.229,untitled,2024.1.5,None,2024-11-30 16h01.07.559330 +0530,
square.png,you,1,M,,,,,,,,,11,1,45,0,,,,,,,,,208.04588029999286,,,,,,,,,,,,,,,,,,,,,,,,,,,,,,,,,,208.02995489999012,208.04588029999286,208.5463047999947,208.5296165000036,208.5296165000036,208.5296165000036,208.5296165000036,208.82959890000348,208.82959890000348,208.82959890000348,,209.09720899999957,m,209.0976268999948,209.11318899999605,210.09752489998937,0.552668000003905,None,210.11364109998976,,,,,,,,,,,,,,,,,,,,,,,,,,,,,,,,,,,,,,,,,,,,,,,,,,,,,,,,,,,,,,,,,,,,,,,,,,,,,,,,,,,B_15,001,2024-11-30_16h00.54.229,untitled,2024.1.5,None,2024-11-30 16h01.07.559330 +0530,
triangle.png,stranger,1,M,,,,,,,,,11,2,46,1,,,,,,,,,210.11364109998976,,,,,,,,,,,,,,,,,,,,,,,,,,,,,,,,,,210.09787099999085,210.11364109998976,210.61380989999452,210.59729289999814,210.59729289999814,210.59729289999814,210.59729289999814,210.89744030000293,210.89744030000293,210.89744030000293,,211.5149311999994,m,211.51535689999582,211.53114659999846,212.51545920000353,0.9138856000063242,None,212.53155849999166,,,,,,,,,,,,,,,,,,,,,,,,,,,,,,,,,,,,,,,,,,,,,,,,,,,,,,,,,,,,,,,,,,,,,,,,,,,,,,,,,,,B_15,001,2024-11-30_16h00.54.229,untitled,2024.1.5,None,2024-11-30 16h01.07.559330 +0530,
triangle.png,you,0,Z,,,,,,,,,11,3,47,3,,,,,,,,,212.53155849999166,,,,,,,,,,,,,,,,,,,,,,,,,,,,,,,,,,212.5158048000012,212.53155849999166,213.03188789999695,213.01537269999972,213.01537269999972,213.01537269999972,213.01537269999972,213.3152981000021,213.3152981000021,213.3152981000021,,213.5992183999915,z,213.59964220000256,213.61536830000114,214.59963119999156,0.5794712000060827,None,214.61569219999365,,,,,,,,,,,,,,,,,,,,,,,,,,,,,,,,,,,,,,,,,,,,,,,,,,,,,,,,,,,,,,,,,,,,,,,,,,,,,,,,,,,B_15,001,2024-11-30_16h00.54.229,untitled,2024.1.5,None,2024-11-30 16h01.07.559330 +0530,
square.png,you,1,M,,,,,,,,,12,0,48,0,,,,,,,,,214.61569219999365,,,,,,,,,,,,,,,,,,,,,,,,,,,,,,,,,,214.59998600000108,214.61569219999365,215.11635289998958,215.09939339999983,215.09939339999983,215.09939339999983,215.09939339999983,215.39969179999025,215.39969179999025,215.39969179999025,,215.86731909999799,m,215.86778010000126,215.88323829999717,216.8675871000014,0.7549965999933193,None,216.88383690000046,,,,,,,,,,,,,,,,,,,,,,,,,,,,,,,,,,,,,,,,,,,,,,,,,,,,,,,,,,,,,,,,,,,,,,,,,,,,,,,,,,,B_15,001,2024-11-30_16h00.54.229,untitled,2024.1.5,None,2024-11-30 16h01.07.559330 +0530,
triangle.png,you,0,Z,,,,,,,,,12,1,49,3,,,,,,,,,216.88383690000046,,,,,,,,,,,,,,,,,,,,,,,,,,,,,,,,,,216.86793399999442,216.88383690000046,217.38418339999043,217.36741829999664,217.36741829999664,217.36741829999664,217.36741829999664,217.66736340000352,217.66736340000352,217.66736340000352,,218.20169829999213,z,218.2021311999997,218.21757510000316,219.2020582999976,0.8233368999935919,None,219.2181741999957,,,,,,,,,,,,,,,,,,,,,,,,,,,,,,,,,,,,,,,,,,,,,,,,,,,,,,,,,,,,,,,,,,,,,,,,,,,,,,,,,,,B_15,001,2024-11-30_16h00.54.229,untitled,2024.1.5,None,2024-11-30 16h01.07.559330 +0530,
triangle.png,stranger,1,M,,,,,,,,,12,2,50,1,,,,,,,,,219.2181741999957,,,,,,,,,,,,,,,,,,,,,,,,,,,,,,,,,,219.2024025999999,219.2181741999957,219.7181666999968,219.70153530000243,219.70153530000243,219.70153530000243,219.70153530000243,220.00201319999178,220.00201319999178,220.00201319999178,,220.51950389999547,m,220.5199347000016,220.5353349999932,221.51987439999357,0.8053084999992279,None,221.53603259999363,,,,,,,,,,,,,,,,,,,,,,,,,,,,,,,,,,,,,,,,,,,,,,,,,,,,,,,,,,,,,,,,,,,,,,,,,,,,,,,,,,,B_15,001,2024-11-30_16h00.54.229,untitled,2024.1.5,None,2024-11-30 16h01.07.559330 +0530,
square.png,stranger,0,Z,,,,,,,,,12,3,51,2,,,,,,,,,221.53603259999363,,,,,,,,,,,,,,,,,,,,,,,,,,,,,,,,,,221.52022029999353,221.53603259999363,222.03657399999793,222.01976609999838,222.01976609999838,222.01976609999838,222.01976609999838,222.31982360000256,222.31982360000256,222.31982360000256,,222.7208002999978,z,222.72125360000064,222.7367374000023,223.72113449999597,0.6989591999881668,None,223.73737580000306,,,,,,,,,,,,,,,,,,,,,,,,,,,,,,,,,,,,,,,,,,,,,,,,,,,,,,,,,,,,,,,,,,,,,,,,,,,,,,,,,,,B_15,001,2024-11-30_16h00.54.229,untitled,2024.1.5,None,2024-11-30 16h01.07.559330 +0530,
triangle.png,stranger,1,M,,,,,,,,,13,0,52,1,,,,,,,,,223.73737580000306,,,,,,,,,,,,,,,,,,,,,,,,,,,,,,,,,,223.7214760999923,223.73737580000306,224.23762739999802,224.2210281000007,224.2210281000007,224.2210281000007,224.2210281000007,224.52090259999386,224.52090259999386,224.52090259999386,,224.7716730999964,z,224.7720941000007,224.78784409999207,225.77184109999507,0.5376191999966977,None,225.78809669999464,,,,,,,,,,,,,,,,,,,,,,,,,,,,,,,,,,,,,,,,,,,,,,,,,,,,,,,,,,,,,,,,,,,,,,,,,,,,,,,,,,,B_15,001,2024-11-30_16h00.54.229,untitled,2024.1.5,None,2024-11-30 16h01.07.559330 +0530,
square.png,you,1,M,,,,,,,,,13,1,53,0,,,,,,,,,225.78809669999464,,,,,,,,,,,,,,,,,,,,,,,,,,,,,,,,,,225.77219589999004,225.78809669999464,226.28843960000086,226.27198629999475,226.27198629999475,226.27198629999475,226.27198629999475,226.57198690000223,226.57198690000223,226.57198690000223,,227.08967539999867,m,227.09010679999483,227.10558469999523,228.08990900000208,0.8104305000015302,None,228.1062235999998,,,,,,,,,,,,,,,,,,,,,,,,,,,,,,,,,,,,,,,,,,,,,,,,,,,,,,,,,,,,,,,,,,,,,,,,,,,,,,,,,,,B_15,001,2024-11-30_16h00.54.229,untitled,2024.1.5,None,2024-11-30 16h01.07.559330 +0530,
triangle.png,you,0,Z,,,,,,,,,13,2,54,3,,,,,,,,,228.1062235999998,,,,,,,,,,,,,,,,,,,,,,,,,,,,,,,,,,228.09025629999815,228.1062235999998,228.6063712999894,228.58966319999308,228.58966319999308,228.58966319999308,228.58966319999308,228.88989079999737,228.88989079999737,228.88989079999737,,229.2240701999981,z,229.22449079999933,229.23992919999,230.2242164999916,0.6331760000030044,None,230.24066299998958,,,,,,,,,,,,,,,,,,,,,,,,,,,,,,,,,,,,,,,,,,,,,,,,,,,,,,,,,,,,,,,,,,,,,,,,,,,,,,,,,,,B_15,001,2024-11-30_16h00.54.229,untitled,2024.1.5,None,2024-11-30 16h01.07.559330 +0530,
square.png,stranger,0,Z,,,,,,,,,13,3,55,2,,,,,,,,,230.24066299998958,,,,,,,,,,,,,,,,,,,,,,,,,,,,,,,,,,230.22456160000002,230.24066299998958,230.74082120000094,230.72405340000114,230.72405340000114,230.72405340000114,230.72405340000114,231.02433980000205,231.02433980000205,231.02433980000205,,231.50874479999766,z,231.5092130999983,231.52456949999032,232.5088734000019,0.7826433000009274,None,232.52492199999688,,,,,,,,,,,,,,,,,,,,,,,,,,,,,,,,,,,,,,,,,,,,,,,,,,,,,,,,,,,,,,,,,,,,,,,,,,,,,,,,,,,B_15,001,2024-11-30_16h00.54.229,untitled,2024.1.5,None,2024-11-30 16h01.07.559330 +0530,
triangle.png,you,0,Z,,,,,,,,,14,0,56,3,,,,,,,,,232.52492199999688,,,,,,,,,,,,,,,,,,,,,,,,,,,,,,,,,,232.50921849999577,232.52492199999688,233.02540739999677,233.0084696999984,233.0084696999984,233.0084696999984,233.0084696999984,233.308675399996,233.308675399996,233.308675399996,,233.82644409999193,z,233.82685909999418,233.84245999999985,234.82669560000068,0.8016846999962581,None,234.8430207999918,,,,,,,,,,,,,,,,,,,,,,,,,,,,,,,,,,,,,,,,,,,,,,,,,,,,,,,,,,,,,,,,,,,,,,,,,,,,,,,,,,,B_15,001,2024-11-30_16h00.54.229,untitled,2024.1.5,None,2024-11-30 16h01.07.559330 +0530,
square.png,stranger,0,Z,,,,,,,,,14,1,57,2,,,,,,,,,234.8430207999918,,,,,,,,,,,,,,,,,,,,,,,,,,,,,,,,,,234.82703960000072,234.8430207999918,235.34320609999122,235.32671120000305,235.32671120000305,235.32671120000305,235.32671120000305,235.62653039999714,235.62653039999714,235.62653039999714,,236.22763880000275,z,236.22805879999942,236.24368629998935,237.227796399995,0.8993633999925805,None,237.2440435000026,,,,,,,,,,,,,,,,,,,,,,,,,,,,,,,,,,,,,,,,,,,,,,,,,,,,,,,,,,,,,,,,,,,,,,,,,,,,,,,,,,,B_15,001,2024-11-30_16h00.54.229,untitled,2024.1.5,None,2024-11-30 16h01.07.559330 +0530,
triangle.png,stranger,1,M,,,,,,,,,14,2,58,1,,,,,,,,,237.2440435000026,,,,,,,,,,,,,,,,,,,,,,,,,,,,,,,,,,237.2281415000034,237.2440435000026,237.74455879999732,237.72774659999413,237.72774659999413,237.72774659999413,237.72774659999413,238.0279872999963,238.0279872999963,238.0279872999963,,238.61229730000196,m,238.6127184999932,238.62822349999624,239.61251710000215,0.882532200004789,None,239.62863359999028,,,,,,,,,,,,,,,,,,,,,,,,,,,,,,,,,,,,,,,,,,,,,,,,,,,,,,,,,,,,,,,,,,,,,,,,,,,,,,,,,,,B_15,001,2024-11-30_16h00.54.229,untitled,2024.1.5,None,2024-11-30 16h01.07.559330 +0530,
square.png,you,1,M,,,,,,,,,14,3,59,0,,,,,,,,,239.62863359999028,,,,,,,,,,,,,,,,,,,,,,,,,,,,,,,,,,239.61286280000058,239.62863359999028,240.12915860000066,240.11243589999503,240.11243589999503,240.11243589999503,240.11243589999503,240.41233399999328,240.41233399999328,240.41233399999328,,240.76325150000048,m,240.7636824999936,240.7794053999969,241.76368530000036,0.6351655000034953,None,241.77978359999543,,,,,,,,,,,,,,,,,,,,,,,,,,,,,,,,,,,,,,,,,,,,,,,,,,,,,,,,,,,,,,,,,,,,,,,,,,,,,,,,,,,B_15,001,2024-11-30_16h00.54.229,untitled,2024.1.5,None,2024-11-30 16h01.07.559330 +0530,
triangle.png,you,0,Z,,,,,,,,,15,0,60,3,,,,,,,,,241.77978359999543,,,,,,,,,,,,,,,,,,,,,,,,,,,,,,,,,,241.76403249999566,241.77978359999543,242.28012949999538,242.26365199999418,242.26365199999418,242.26365199999418,242.26365199999418,242.56338959999266,242.56338959999266,242.56338959999266,,243.1813017999957,z,243.18174249998992,243.19700790000206,244.18164490000345,0.9027693000098225,None,244.19785019999836,,,,,,,,,,,,,,,,,,,,,,,,,,,,,,,,,,,,,,,,,,,,,,,,,,,,,,,,,,,,,,,,,,,,,,,,,,,,,,,,,,,B_15,001,2024-11-30_16h00.54.229,untitled,2024.1.5,None,2024-11-30 16h01.07.559330 +0530,
triangle.png,stranger,1,M,,,,,,,,,15,1,61,1,,,,,,,,,244.19785019999836,,,,,,,,,,,,,,,,,,,,,,,,,,,,,,,,,,244.1819899999973,244.19785019999836,244.6980651999911,244.68123000000196,244.68123000000196,244.68123000000196,244.68123000000196,244.9814858000027,244.9814858000027,244.9814858000027,,245.69929999999295,m,245.6997168999951,245.71511560000363,246.6991713000025,1.0167709999950603,None,246.71575000000303,,,,,,,,,,,,,,,,,,,,,,,,,,,,,,,,,,,,,,,,,,,,,,,,,,,,,,,,,,,,,,,,,,,,,,,,,,,,,,,,,,,B_15,001,2024-11-30_16h00.54.229,untitled,2024.1.5,None,2024-11-30 16h01.07.559330 +0530,
square.png,you,1,M,,,,,,,,,15,2,62,0,,,,,,,,,246.71575000000303,,,,,,,,,,,,,,,,,,,,,,,,,,,,,,,,,,246.6995281999989,246.71575000000303,247.21577309998975,247.19933329999913,247.19933329999913,247.19933329999913,247.19933329999913,247.49940210000204,247.49940210000204,247.49940210000204,,248.00069339999754,m,248.00111719999404,248.01618910000252,249.00070029999188,0.7954452999983914,None,249.01693589999923,,,,,,,,,,,,,,,,,,,,,,,,,,,,,,,,,,,,,,,,,,,,,,,,,,,,,,,,,,,,,,,,,,,,,,,,,,,,,,,,,,,B_15,001,2024-11-30_16h00.54.229,untitled,2024.1.5,None,2024-11-30 16h01.07.559330 +0530,
square.png,stranger,0,Z,,,,,,,,,15,3,63,2,,,,,,,,,249.01693589999923,,,,,,,,,,,,,,,,,,,,,,,,,,,,,,,,,,249.00104550000106,249.01693589999923,249.51716039999155,249.50060379999923,249.50060379999923,249.50060379999923,249.50060379999923,249.8004823999945,249.8004823999945,249.8004823999945,,250.21820149999985,z,250.21861759999592,250.2343009000033,251.21846570000343,0.714046099994448,None,251.2346050999913,,,,,,,,,,,,,,,,,,,,,,,,,,,,,,,,,,,,,,,,,,,,,,,,,,,,,,,,,,,,,,,,,,,,,,,,,,,,,,,,,,,B_15,001,2024-11-30_16h00.54.229,untitled,2024.1.5,None,2024-11-30 16h01.07.559330 +0530,
square.png,you,1,M,,,,,,,,,16,0,64,0,,,,,,,,,251.2346050999913,,,,,,,,,,,,,,,,,,,,,,,,,,,,,,,,,,251.2188135000033,251.2346050999913,251.7348609000037,251.7182399000012,251.7182399000012,251.7182399000012,251.7182399000012,252.0184173000016,252.0184173000016,252.0184173000016,,252.33579250000184,z,252.3362119999947,252.35194229999615,253.33610000000044,0.6089072000031592,None,253.35224520000338,,,,,,,,,,,,,,,,,,,,,,,,,,,,,,,,,,,,,,,,,,,,,,,,,,,,,,,,,,,,,,,,,,,,,,,,,,,,,,,,,,,B_15,001,2024-11-30_16h00.54.229,untitled,2024.1.5,None,2024-11-30 16h01.07.559330 +0530,
triangle.png,stranger,1,M,,,,,,,,,16,1,65,1,,,,,,,,,253.35224520000338,,,,,,,,,,,,,,,,,,,,,,,,,,,,,,,,,,253.33644639998965,253.35224520000338,253.85309170000255,253.83598350000102,253.83598350000102,253.83598350000102,253.83598350000102,254.13598700000148,254.13598700000148,254.13598700000148,,254.65369490000012,m,254.65412729998934,254.66961420000007,255.65396850000252,0.8136631999950623,None,255.67004599999927,,,,,,,,,,,,,,,,,,,,,,,,,,,,,,,,,,,,,,,,,,,,,,,,,,,,,,,,,,,,,,,,,,,,,,,,,,,,,,,,,,,B_15,001,2024-11-30_16h00.54.229,untitled,2024.1.5,None,2024-11-30 16h01.07.559330 +0530,
triangle.png,you,0,Z,,,,,,,,,16,2,66,3,,,,,,,,,255.67004599999927,,,,,,,,,,,,,,,,,,,,,,,,,,,,,,,,,,255.6543160000001,255.67004599999927,256.17043260000355,256.15373209999234,256.15373209999234,256.15373209999234,256.15373209999234,256.45410560000164,256.45410560000164,256.45410560000164,,256.78800390000106,z,256.78842299999087,256.8042092999967,257.78845659999934,0.6244923999911407,None,257.80453470000066,,,,,,,,,,,,,,,,,,,,,,,,,,,,,,,,,,,,,,,,,,,,,,,,,,,,,,,,,,,,,,,,,,,,,,,,,,,,,,,,,,,B_15,001,2024-11-30_16h00.54.229,untitled,2024.1.5,None,2024-11-30 16h01.07.559330 +0530,
square.png,stranger,0,Z,,,,,,,,,16,3,67,2,,,,,,,,,257.80453470000066,,,,,,,,,,,,,,,,,,,,,,,,,,,,,,,,,,257.78880009999557,257.80453470000066,258.3050996999955,258.28847430000314,258.28847430000314,258.28847430000314,258.28847430000314,258.5883574000036,258.5883574000036,258.5883574000036,,259.1728091999976,m,259.17327630000364,259.18874099999084,260.1728441000014,0.876946999997017,None,260.18926009999996,,,,,,,,,,,,,,,,,,,,,,,,,,,,,,,,,,,,,,,,,,,,,,,,,,,,,,,,,,,,,,,,,,,,,,,,,,,,,,,,,,,B_15,001,2024-11-30_16h00.54.229,untitled,2024.1.5,None,2024-11-30 16h01.07.559330 +0530,
square.png,stranger,0,Z,,,,,,,,,17,0,68,2,,,,,,,,,260.18926009999996,,,,,,,,,,,,,,,,,,,,,,,,,,,,,,,,,,260.1731940000027,260.18926009999996,260.68957760000194,260.6727774000028,260.6727774000028,260.6727774000028,260.6727774000028,260.97293419999187,260.97293419999187,260.97293419999187,,261.4072157999908,m,261.40763020000304,261.42315809999127,262.4074419999961,0.7223111999919638,None,262.42382270000235,,,,,,,,,,,,,,,,,,,,,,,,,,,,,,,,,,,,,,,,,,,,,,,,,,,,,,,,,,,,,,,,,,,,,,,,,,,,,,,,,,,B_15,001,2024-11-30_16h00.54.229,untitled,2024.1.5,None,2024-11-30 16h01.07.559330 +0530,
triangle.png,stranger,1,M,,,,,,,,,17,1,69,1,,,,,,,,,262.42382270000235,,,,,,,,,,,,,,,,,,,,,,,,,,,,,,,,,,262.4077978999994,262.42382270000235,262.92411130000255,262.90730330000224,262.90730330000224,262.90730330000224,262.90730330000224,263.20744299999205,263.20744299999205,263.20744299999205,264.0076329000003,263.99152529999265,None,263.99171509999724,264.0076329000003,264.99212689998967,,,265.00850559999526,,,,,,,,,,,,,,,,,,,,,,,,,,,,,,,,,,,,,,,,,,,,,,,,,,,,,,,,,,,,,,,,,,,,,,,,,,,,,,,,,,,B_15,001,2024-11-30_16h00.54.229,untitled,2024.1.5,None,2024-11-30 16h01.07.559330 +0530,
square.png,you,1,M,,,,,,,,,17,2,70,0,,,,,,,,,265.00850559999526,,,,,,,,,,,,,,,,,,,,,,,,,,,,,,,,,,264.992476799991,265.00850559999526,265.50872620000155,265.50872620000155,265.50872620000155,265.50872620000155,265.50872620000155,265.80882819999533,265.80882819999533,265.80882819999533,,266.29317599999194,m,266.2935969999962,266.3091407000029,267.29334550000203,0.7695174999971641,None,267.30950580000354,,,,,,,,,,,,,,,,,,,,,,,,,,,,,,,,,,,,,,,,,,,,,,,,,,,,,,,,,,,,,,,,,,,,,,,,,,,,,,,,,,,B_15,001,2024-11-30_16h00.54.229,untitled,2024.1.5,None,2024-11-30 16h01.07.559330 +0530,
triangle.png,you,0,Z,,,,,,,,,17,3,71,3,,,,,,,,,267.30950580000354,,,,,,,,,,,,,,,,,,,,,,,,,,,,,,,,,,267.29369269999734,267.30950580000354,267.8099290999962,267.79318589999457,267.79318589999457,267.79318589999457,267.79318589999457,268.09322650000104,268.09322650000104,268.09322650000104,,268.4607090999925,z,268.4611375999957,268.47678599999927,269.4611031999957,0.6575647999998182,None,269.47717319999356,,,,,,,,,,,,,,,,,,,,,,,,,,,,,,,,,,,,,,,,,,,,,,,,,,,,,,,,,,,,,,,,,,,,,,,,,,,,,,,,,,,B_15,001,2024-11-30_16h00.54.229,untitled,2024.1.5,None,2024-11-30 16h01.07.559330 +0530,
square.png,stranger,0,Z,,,,,,,,,18,0,72,2,,,,,,,,,269.47717319999356,,,,,,,,,,,,,,,,,,,,,,,,,,,,,,,,,,269.46144719999575,269.47717319999356,269.97749309999926,269.9611780999985,269.9611780999985,269.9611780999985,269.9611780999985,270.26115559999016,270.26115559999016,270.26115559999016,,270.76187539999955,z,270.7622973999969,270.7778447000019,271.7623922999919,0.7850194000056945,None,271.778230099997,,,,,,,,,,,,,,,,,,,,,,,,,,,,,,,,,,,,,,,,,,,,,,,,,,,,,,,,,,,,,,,,,,,,,,,,,,,,,,,,,,,B_15,001,2024-11-30_16h00.54.229,untitled,2024.1.5,None,2024-11-30 16h01.07.559330 +0530,
square.png,you,1,M,,,,,,,,,18,1,73,0,,,,,,,,,271.778230099997,,,,,,,,,,,,,,,,,,,,,,,,,,,,,,,,,,271.762733800002,271.778230099997,272.2787510999915,272.2620714999939,272.2620714999939,272.2620714999939,272.2620714999939,272.56221659999574,272.56221659999574,272.56221659999574,,272.96267259999877,m,272.96310339999036,272.9789892999979,273.96314999999595,0.6873068999993848,None,273.9797025000007,,,,,,,,,,,,,,,,,,,,,,,,,,,,,,,,,,,,,,,,,,,,,,,,,,,,,,,,,,,,,,,,,,,,,,,,,,,,,,,,,,,B_15,001,2024-11-30_16h00.54.229,untitled,2024.1.5,None,2024-11-30 16h01.07.559330 +0530,
triangle.png,you,0,Z,,,,,,,,,18,2,74,3,,,,,,,,,273.9797025000007,,,,,,,,,,,,,,,,,,,,,,,,,,,,,,,,,,273.9634955999936,273.9797025000007,274.4797624999919,274.46344799999497,274.46344799999497,274.46344799999497,274.46344799999497,274.7633097999933,274.7633097999933,274.7633097999933,,275.13087709998945,z,275.1312973000022,275.14693109999644,276.13091839999834,0.6556165000074543,None,276.147364199991,,,,,,,,,,,,,,,,,,,,,,,,,,,,,,,,,,,,,,,,,,,,,,,,,,,,,,,,,,,,,,,,,,,,,,,,,,,,,,,,,,,B_15,001,2024-11-30_16h00.54.229,untitled,2024.1.5,None,2024-11-30 16h01.07.559330 +0530,
triangle.png,stranger,1,M,,,,,,,,,18,3,75,1,,,,,,,,,276.147364199991,,,,,,,,,,,,,,,,,,,,,,,,,,,,,,,,,,276.13127070000337,276.147364199991,276.64770649999264,276.6311999000027,276.6311999000027,276.6311999000027,276.6311999000027,276.9311435999989,276.9311435999989,276.9311435999989,,277.33177979999164,m,277.3322113000031,277.3479423999961,278.3323059999966,0.6957276000030106,None,278.34852800000226,,,,,,,,,,,,,,,,,,,,,,,,,,,,,,,,,,,,,,,,,,,,,,,,,,,,,,,,,,,,,,,,,,,,,,,,,,,,,,,,,,,B_15,001,2024-11-30_16h00.54.229,untitled,2024.1.5,None,2024-11-30 16h01.07.559330 +0530,
triangle.png,stranger,1,M,,,,,,,,,19,0,76,1,,,,,,,,,278.34852800000226,,,,,,,,,,,,,,,,,,,,,,,,,,,,,,,,,,278.3326498999959,278.34852800000226,278.84869790000084,278.8321139000036,278.8321139000036,278.8321139000036,278.8321139000036,279.13209949999873,279.13209949999873,279.13209949999873,,279.683314599999,m,279.683732999998,279.699188899991,280.68354060000274,0.8427290999970865,None,280.6995809999935,,,,,,,,,,,,,,,,,,,,,,,,,,,,,,,,,,,,,,,,,,,,,,,,,,,,,,,,,,,,,,,,,,,,,,,,,,,,,,,,,,,B_15,001,2024-11-30_16h00.54.229,untitled,2024.1.5,None,2024-11-30 16h01.07.559330 +0530,
square.png,you,1,M,,,,,,,,,19,1,77,0,,,,,,,,,280.6995809999935,,,,,,,,,,,,,,,,,,,,,,,,,,,,,,,,,,280.6838934999978,280.6995809999935,281.19990919998963,281.1832633000013,281.1832633000013,281.1832633000013,281.1832633000013,281.4834906999895,281.4834906999895,281.4834906999895,,281.91774720000103,m,281.9181847,281.93373579999025,282.9181149999931,0.7302989999880083,None,282.9341501000017,,,,,,,,,,,,,,,,,,,,,,,,,,,,,,,,,,,,,,,,,,,,,,,,,,,,,,,,,,,,,,,,,,,,,,,,,,,,,,,,,,,B_15,001,2024-11-30_16h00.54.229,untitled,2024.1.5,None,2024-11-30 16h01.07.559330 +0530,
triangle.png,you,0,Z,,,,,,,,,19,2,78,3,,,,,,,,,282.9341501000017,,,,,,,,,,,,,,,,,,,,,,,,,,,,,,,,,,282.91846289999376,282.9341501000017,283.4344698999921,283.4179928999947,283.4179928999947,283.4179928999947,283.4179928999947,283.71788719999313,283.71788719999313,283.71788719999313,,284.03546309999365,z,284.0358841999987,284.0512679999956,285.0358536999993,0.6155004000029294,None,285.05194550000306,,,,,,,,,,,,,,,,,,,,,,,,,,,,,,,,,,,,,,,,,,,,,,,,,,,,,,,,,,,,,,,,,,,,,,,,,,,,,,,,,,,B_15,001,2024-11-30_16h00.54.229,untitled,2024.1.5,None,2024-11-30 16h01.07.559330 +0530,
square.png,stranger,0,Z,,,,,,,,,19,3,79,2,,,,,,,,,285.05194550000306,,,,,,,,,,,,,,,,,,,,,,,,,,,,,,,,,,285.036196999994,285.05194550000306,285.55205349999596,285.53561700000137,285.53561700000137,285.53561700000137,285.53561700000137,285.8356926999986,285.8356926999986,285.8356926999986,,286.4698054999899,z,286.47023789999366,286.4858890000032,287.4703604999959,0.9224575000116602,None,287.48656449999544,,,,,,,,,,,,,,,,,,,,,,,,,,,,,,,,,,,,,,,,,,,,,,,,,,,,,,,,,,,,,,,,,,,,,,,,,,,,,,,,,,,B_15,001,2024-11-30_16h00.54.229,untitled,2024.1.5,None,2024-11-30 16h01.07.559330 +0530,
triangle.png,stranger,1,M,,,,,,,,,20,0,80,1,,,,,,,,,287.48656449999544,,,,,,,,,,,,,,,,,,,,,,,,,,,,,,,,,,287.4707037999906,287.48656449999544,287.9869854999997,287.9701497999922,287.9701497999922,287.9701497999922,287.9701497999922,288.27009369998996,288.27009369998996,288.27009369998996,,288.67127189999155,m,288.67169429999194,288.6871863999986,289.67146289999073,0.6967759000108344,None,289.6876174999925,,,,,,,,,,,,,,,,,,,,,,,,,,,,,,,,,,,,,,,,,,,,,,,,,,,,,,,,,,,,,,,,,,,,,,,,,,,,,,,,,,,B_15,001,2024-11-30_16h00.54.229,untitled,2024.1.5,None,2024-11-30 16h01.07.559330 +0530,
square.png,you,1,M,,,,,,,,,20,1,81,0,,,,,,,,,289.6876174999925,,,,,,,,,,,,,,,,,,,,,,,,,,,,,,,,,,289.6718189999956,289.6876174999925,290.18811540000024,290.17132870000205,290.17132870000205,290.17132870000205,290.17132870000205,290.471326400002,290.471326400002,290.471326400002,,291.1892170999927,m,291.1896456999966,291.205120300001,292.189100699994,1.0099590999889188,None,292.20557469999767,,,,,,,,,,,,,,,,,,,,,,,,,,,,,,,,,,,,,,,,,,,,,,,,,,,,,,,,,,,,,,,,,,,,,,,,,,,,,,,,,,,B_15,001,2024-11-30_16h00.54.229,untitled,2024.1.5,None,2024-11-30 16h01.07.559330 +0530,
square.png,stranger,0,Z,,,,,,,,,20,2,82,2,,,,,,,,,292.20557469999767,,,,,,,,,,,,,,,,,,,,,,,,,,,,,,,,,,292.1894572000019,292.20557469999767,292.70596389999264,292.6892014999903,292.6892014999903,292.6892014999903,292.6892014999903,292.9890708000021,292.9890708000021,292.9890708000021,,293.4733886999893,z,293.47382339999604,293.4894695999974,294.47370029999,0.7734206000022823,None,294.49005799999577,,,,,,,,,,,,,,,,,,,,,,,,,,,,,,,,,,,,,,,,,,,,,,,,,,,,,,,,,,,,,,,,,,,,,,,,,,,,,,,,,,,B_15,001,2024-11-30_16h00.54.229,untitled,2024.1.5,None,2024-11-30 16h01.07.559330 +0530,
triangle.png,you,0,Z,,,,,,,,,20,3,83,3,,,,,,,,,294.49005799999577,,,,,,,,,,,,,,,,,,,,,,,,,,,,,,,,,,294.4740519999905,294.49005799999577,294.99028830000316,294.97393659999943,294.97393659999943,294.97393659999943,294.97393659999943,295.27367290000257,295.27367290000257,295.27367290000257,,295.9747045999975,z,295.9751441999979,295.9909898999904,296.97520220000297,0.9928924999985611,None,296.99144369999703,,,,,,,,,,,,,,,,,,,,,,,,,,,,,,,,,,,,,,,,,,,,,,,,,,,,,,,,,,,,,,,,,,,,,,,,,,,,,,,,,,,B_15,001,2024-11-30_16h00.54.229,untitled,2024.1.5,None,2024-11-30 16h01.07.559330 +0530,
triangle.png,stranger,1,M,,,,,,,,,21,0,84,1,,,,,,,,,296.99144369999703,,,,,,,,,,,,,,,,,,,,,,,,,,,,,,,,,,296.975549099996,296.99144369999703,297.4915897000028,297.47501049999846,297.47501049999846,297.47501049999846,297.47501049999846,297.7750590999931,297.7750590999931,297.7750590999931,,298.3428400999983,m,298.34326059999876,298.358865599992,299.3428365,0.851476099996944,None,299.35919979999017,,,,,,,,,,,,,,,,,,,,,,,,,,,,,,,,,,,,,,,,,,,,,,,,,,,,,,,,,,,,,,,,,,,,,,,,,,,,,,,,,,,B_15,001,2024-11-30_16h00.54.229,untitled,2024.1.5,None,2024-11-30 16h01.07.559330 +0530,
triangle.png,you,0,Z,,,,,,,,,21,1,85,3,,,,,,,,,299.35919979999017,,,,,,,,,,,,,,,,,,,,,,,,,,,,,,,,,,299.3431963999901,299.35919979999017,299.85947869998927,299.84302719999687,299.84302719999687,299.84302719999687,299.84302719999687,300.14273890000186,300.14273890000186,300.14273890000186,,300.3937206999981,z,300.3941397000017,300.40984729999036,301.3941480999929,0.535584099998232,None,301.4102456999972,,,,,,,,,,,,,,,,,,,,,,,,,,,,,,,,,,,,,,,,,,,,,,,,,,,,,,,,,,,,,,,,,,,,,,,,,,,,,,,,,,,B_15,001,2024-11-30_16h00.54.229,untitled,2024.1.5,None,2024-11-30 16h01.07.559330 +0530,
square.png,you,1,M,,,,,,,,,21,2,86,0,,,,,,,,,301.4102456999972,,,,,,,,,,,,,,,,,,,,,,,,,,,,,,,,,,301.3944916999899,301.4102456999972,301.91044530000363,301.8940853999957,301.8940853999957,301.8940853999957,301.8940853999957,302.1940517999901,302.1940517999901,302.1940517999901,,302.51142559999425,m,302.5118394000019,302.5276065999933,303.51190230000066,0.6113072000007378,None,303.52782479999587,,,,,,,,,,,,,,,,,,,,,,,,,,,,,,,,,,,,,,,,,,,,,,,,,,,,,,,,,,,,,,,,,,,,,,,,,,,,,,,,,,,B_15,001,2024-11-30_16h00.54.229,untitled,2024.1.5,None,2024-11-30 16h01.07.559330 +0530,
square.png,stranger,0,Z,,,,,,,,,21,3,87,2,,,,,,,,,303.52782479999587,,,,,,,,,,,,,,,,,,,,,,,,,,,,,,,,,,303.51224809999985,303.52782479999587,304.02852059999714,304.0118499999953,304.0118499999953,304.0118499999953,304.0118499999953,304.3116577999899,304.3116577999899,304.3116577999899,,304.79615759999433,z,304.7965755999903,304.8121411000029,305.7962870999909,0.7696201000071596,None,305.81238309999753,,,,,,,,,,,,,,,,,,,,,,,,,,,,,,,,,,,,,,,,,,,,,,,,,,,,,,,,,,,,,,,,,,,,,,,,,,,,,,,,,,,B_15,001,2024-11-30_16h00.54.229,untitled,2024.1.5,None,2024-11-30 16h01.07.559330 +0530,
square.png,you,1,M,,,,,,,,,22,0,88,0,,,,,,,,,305.81238309999753,,,,,,,,,,,,,,,,,,,,,,,,,,,,,,,,,,305.7966321999993,305.81238309999753,306.31258099999104,306.2959766999993,306.2959766999993,306.2959766999993,306.2959766999993,306.596318099997,306.596318099997,306.596318099997,,307.3305865000002,m,307.33100409999315,307.34669310000027,308.3308032999921,1.0189074999943841,None,308.3469630999898,,,,,,,,,,,,,,,,,,,,,,,,,,,,,,,,,,,,,,,,,,,,,,,,,,,,,,,,,,,,,,,,,,,,,,,,,,,,,,,,,,,B_15,001,2024-11-30_16h00.54.229,untitled,2024.1.5,None,2024-11-30 16h01.07.559330 +0530,
square.png,stranger,0,Z,,,,,,,,,22,1,89,2,,,,,,,,,308.3469630999898,,,,,,,,,,,,,,,,,,,,,,,,,,,,,,,,,,308.331153799998,308.3469630999898,308.84738249999646,308.83087859999796,308.83087859999796,308.83087859999796,308.83087859999796,309.13089119999495,309.13089119999495,309.13089119999495,,309.49859899999865,z,309.49903169999016,309.51450799999293,310.49850519999745,0.6597521999938181,None,310.5149517999962,,,,,,,,,,,,,,,,,,,,,,,,,,,,,,,,,,,,,,,,,,,,,,,,,,,,,,,,,,,,,,,,,,,,,,,,,,,,,,,,,,,B_15,001,2024-11-30_16h00.54.229,untitled,2024.1.5,None,2024-11-30 16h01.07.559330 +0530,
triangle.png,you,0,Z,,,,,,,,,22,2,90,3,,,,,,,,,310.5149517999962,,,,,,,,,,,,,,,,,,,,,,,,,,,,,,,,,,310.49885459999496,310.5149517999962,311.01534820000234,310.99850770000194,310.99850770000194,310.99850770000194,310.99850770000194,311.2987648999988,311.2987648999988,311.2987648999988,,311.74973349999345,z,311.7501617999951,311.7657004999928,312.749911699997,0.746924900013255,None,312.76612889999524,,,,,,,,,,,,,,,,,,,,,,,,,,,,,,,,,,,,,,,,,,,,,,,,,,,,,,,,,,,,,,,,,,,,,,,,,,,,,,,,,,,B_15,001,2024-11-30_16h00.54.229,untitled,2024.1.5,None,2024-11-30 16h01.07.559330 +0530,
triangle.png,stranger,1,M,,,,,,,,,22,3,91,1,,,,,,,,,312.76612889999524,,,,,,,,,,,,,,,,,,,,,,,,,,,,,,,,,,312.75025859999005,312.76612889999524,313.2665116999997,313.2497807000036,313.2497807000036,313.2497807000036,313.2497807000036,313.5497643999988,313.5497643999988,313.5497643999988,,314.0171988999937,m,314.0176250999939,314.0334015999979,315.0178015999991,0.751783500003512,None,315.03396069999144,,,,,,,,,,,,,,,,,,,,,,,,,,,,,,,,,,,,,,,,,,,,,,,,,,,,,,,,,,,,,,,,,,,,,,,,,,,,,,,,,,,B_15,001,2024-11-30_16h00.54.229,untitled,2024.1.5,None,2024-11-30 16h01.07.559330 +0530,
square.png,you,1,M,,,,,,,,,23,0,92,0,,,,,,,,,315.03396069999144,,,,,,,,,,,,,,,,,,,,,,,,,,,,,,,,,,315.01814909999666,315.03396069999144,315.5342968999903,315.517517699991,315.517517699991,315.517517699991,315.517517699991,315.8174583999935,315.8174583999935,315.8174583999935,,316.38538629999675,m,316.38580750000256,316.40116090000083,317.3855414999998,0.8564894000010099,None,317.4017468999955,,,,,,,,,,,,,,,,,,,,,,,,,,,,,,,,,,,,,,,,,,,,,,,,,,,,,,,,,,,,,,,,,,,,,,,,,,,,,,,,,,,B_15,001,2024-11-30_16h00.54.229,untitled,2024.1.5,None,2024-11-30 16h01.07.559330 +0530,
triangle.png,you,0,Z,,,,,,,,,23,1,93,3,,,,,,,,,317.4017468999955,,,,,,,,,,,,,,,,,,,,,,,,,,,,,,,,,,317.38588600000367,317.4017468999955,317.90222730000096,317.8852549000003,317.8852549000003,317.8852549000003,317.8852549000003,318.1855441999942,318.1855441999942,318.1855441999942,318.9858995999966,318.96973289999005,None,318.9699241999915,318.9858995999966,319.9701943999971,,,319.98636379999516,,,,,,,,,,,,,,,,,,,,,,,,,,,,,,,,,,,,,,,,,,,,,,,,,,,,,,,,,,,,,,,,,,,,,,,,,,,,,,,,,,,B_15,001,2024-11-30_16h00.54.229,untitled,2024.1.5,None,2024-11-30 16h01.07.559330 +0530,
triangle.png,stranger,1,M,,,,,,,,,23,2,94,1,,,,,,,,,319.98636379999516,,,,,,,,,,,,,,,,,,,,,,,,,,,,,,,,,,319.9705418999947,319.98636379999516,320.4869156999921,320.4869156999921,320.4869156999921,320.4869156999921,320.4869156999921,320.7869206999894,320.7869206999894,320.7869206999894,321.58703919999243,321.5707307999983,None,321.5709238999989,321.58703919999243,322.5713753000018,,,322.58774619999167,,,,,,,,,,,,,,,,,,,,,,,,,,,,,,,,,,,,,,,,,,,,,,,,,,,,,,,,,,,,,,,,,,,,,,,,,,,,,,,,,,,B_15,001,2024-11-30_16h00.54.229,untitled,2024.1.5,None,2024-11-30 16h01.07.559330 +0530,
square.png,stranger,0,Z,,,,,,,,,23,3,95,2,,,,,,,,,322.58774619999167,,,,,,,,,,,,,,,,,,,,,,,,,,,,,,,,,,322.57172729999,322.58774619999167,323.08817519999866,323.08817519999866,323.08817519999866,323.08817519999866,323.08817519999866,323.38800049999554,323.38800049999554,323.38800049999554,,323.70567630000005,z,323.7060911000008,323.7216109000001,324.7061060999986,0.6062499999970896,None,324.7223035999923,,,,,,,,,,,,,,,,,,,,,,,,,,,,,,,,,,,,,,,,,,,,,,,,,,,,,,,,,,,,,,,,,,,,,,,,,,,,,,,,,,,B_15,001,2024-11-30_16h00.54.229,untitled,2024.1.5,None,2024-11-30 16h01.07.559330 +0530,
triangle.png,you,0,Z,,,,,,,,,24,0,96,3,,,,,,,,,324.7223035999923,,,,,,,,,,,,,,,,,,,,,,,,,,,,,,,,,,324.7064551999938,324.7223035999923,325.22270499999286,325.2059614000027,325.2059614000027,325.2059614000027,325.2059614000027,325.5058241999941,325.5058241999941,325.5058241999941,,326.0901859000005,z,326.0906025000004,326.1063560999901,327.0904248000006,0.8764054999919608,None,327.10668830000213,,,,,,,,,,,,,,,,,,,,,,,,,,,,,,,,,,,,,,,,,,,,,,,,,,,,,,,,,,,,,,,,,,,,,,,,,,,,,,,,,,,B_15,001,2024-11-30_16h00.54.229,untitled,2024.1.5,None,2024-11-30 16h01.07.559330 +0530,
triangle.png,stranger,1,M,,,,,,,,,24,1,97,1,,,,,,,,,327.10668830000213,,,,,,,,,,,,,,,,,,,,,,,,,,,,,,,,,,327.0907653000031,327.10668830000213,327.6072037999984,327.5904378999985,327.5904378999985,327.5904378999985,327.5904378999985,327.89039899999625,327.89039899999625,327.89039899999625,,328.5416036999959,m,328.5420363000012,328.55751630000304,329.54181640000024,0.9481525000010151,None,329.55815260000236,,,,,,,,,,,,,,,,,,,,,,,,,,,,,,,,,,,,,,,,,,,,,,,,,,,,,,,,,,,,,,,,,,,,,,,,,,,,,,,,,,,B_15,001,2024-11-30_16h00.54.229,untitled,2024.1.5,None,2024-11-30 16h01.07.559330 +0530,
square.png,stranger,0,Z,,,,,,,,,24,2,98,2,,,,,,,,,329.55815260000236,,,,,,,,,,,,,,,,,,,,,,,,,,,,,,,,,,329.542168400003,329.55815260000236,330.0582738999947,330.0416480999993,330.0416480999993,330.0416480999993,330.0416480999993,330.3418610999943,330.3418610999943,330.3418610999943,,330.80952969999635,z,330.80994549999014,330.82521379999525,331.80969419999747,0.7612325999944005,None,331.8258621999994,,,,,,,,,,,,,,,,,,,,,,,,,,,,,,,,,,,,,,,,,,,,,,,,,,,,,,,,,,,,,,,,,,,,,,,,,,,,,,,,,,,B_15,001,2024-11-30_16h00.54.229,untitled,2024.1.5,None,2024-11-30 16h01.07.559330 +0530,
square.png,you,1,M,,,,,,,,,24,3,99,0,,,,,,,,,331.8258621999994,,,,,,,,,,,,,,,,,,,,,,,,,,,,,,,,,,331.81003469999996,331.8258621999994,332.3262437999947,332.3095934000012,332.3095934000012,332.3095934000012,332.3095934000012,332.60955470000044,332.60955470000044,332.60955470000044,,333.0103997999977,m,333.01083420000214,333.0263255000027,334.01060049999796,0.6849222000018926,None,334.0268391999998,,,,,,,,,,,,,,,,,,,,,,,,,,,,,,,,,,,,,,,,,,,,,,,,,,,,,,,,,,,,,,,,,,,,,,,,,,,,,,,,,,,B_15,001,2024-11-30_16h00.54.229,untitled,2024.1.5,None,2024-11-30 16h01.07.559330 +0530,
triangle.png,stranger,1,M,,,,,,,,,25,0,100,1,,,,,,,,,334.0268391999998,,,,,,,,,,,,,,,,,,,,,,,,,,,,,,,,,,334.01094579999335,334.0268391999998,334.52735550000216,334.51049479999347,334.51049479999347,334.51049479999347,334.51049479999347,334.8105036999914,334.8105036999914,334.8105036999914,,335.47824189999665,m,335.47866120000253,335.49439690000145,336.4785797999939,0.9527181000012206,None,336.49496139999246,,,,,,,,,,,,,,,,,,,,,,,,,,,,,,,,,,,,,,,,,,,,,,,,,,,,,,,,,,,,,,,,,,,,,,,,,,,,,,,,,,,B_15,001,2024-11-30_16h00.54.229,untitled,2024.1.5,None,2024-11-30 16h01.07.559330 +0530,
triangle.png,you,0,Z,,,,,,,,,25,1,101,3,,,,,,,,,336.49496139999246,,,,,,,,,,,,,,,,,,,,,,,,,,,,,,,,,,336.4789223999978,336.49496139999246,336.99522699999216,336.97861320000084,336.97861320000084,336.97861320000084,336.97861320000084,337.2783350999962,337.2783350999962,337.2783350999962,,337.71313530000043,z,337.7135560000024,337.7290384999942,338.71323049999774,0.7317901999922469,None,338.7294522000011,,,,,,,,,,,,,,,,,,,,,,,,,,,,,,,,,,,,,,,,,,,,,,,,,,,,,,,,,,,,,,,,,,,,,,,,,,,,,,,,,,,B_15,001,2024-11-30_16h00.54.229,untitled,2024.1.5,None,2024-11-30 16h01.07.559330 +0530,
square.png,stranger,0,Z,,,,,,,,,25,2,102,2,,,,,,,,,338.7294522000011,,,,,,,,,,,,,,,,,,,,,,,,,,,,,,,,,,338.7135744999978,338.7294522000011,339.22957229999884,339.21311369999603,339.21311369999603,339.21311369999603,339.21311369999603,339.5129878000007,339.5129878000007,339.5129878000007,340.31340729999647,340.2973396000016,None,340.29753099998925,340.31340729999647,341.2978371999925,,,341.31410059999325,,,,,,,,,,,,,,,,,,,,,,,,,,,,,,,,,,,,,,,,,,,,,,,,,,,,,,,,,,,,,,,,,,,,,,,,,,,,,,,,,,,B_15,001,2024-11-30_16h00.54.229,untitled,2024.1.5,None,2024-11-30 16h01.07.559330 +0530,
square.png,you,1,M,,,,,,,,,25,3,103,0,,,,,,,,,341.31410059999325,,,,,,,,,,,,,,,,,,,,,,,,,,,,,,,,,,341.29818640000303,341.31410059999325,341.8143454999954,341.8143454999954,341.8143454999954,341.8143454999954,341.8143454999954,342.1145633999986,342.1145633999986,342.1145633999986,,342.2150288999983,m,342.2154547999962,342.2309810000006,343.2153627999942,0.3870403999899281,None,343.2315755000018,,,,,,,,,,,,,,,,,,,,,,,,,,,,,,,,,,,,,,,,,,,,,,,,,,,,,,,,,,,,,,,,,,,,,,,,,,,,,,,,,,,B_15,001,2024-11-30_16h00.54.229,untitled,2024.1.5,None,2024-11-30 16h01.07.559330 +0530,
square.png,stranger,0,Z,,,,,,,,,26,0,104,2,,,,,,,,,343.2315755000018,,,,,,,,,,,,,,,,,,,,,,,,,,,,,,,,,,343.21571309999854,343.2315755000018,343.7318440999952,343.7154662999965,343.7154662999965,343.7154662999965,343.7154662999965,344.01523759998963,344.01523759998963,344.01523759998963,,344.34977329999674,z,344.35019099999045,344.36558679999143,345.3497772999981,0.6178950000030454,None,345.36613709999074,,,,,,,,,,,,,,,,,,,,,,,,,,,,,,,,,,,,,,,,,,,,,,,,,,,,,,,,,,,,,,,,,,,,,,,,,,,,,,,,,,,B_15,001,2024-11-30_16h00.54.229,untitled,2024.1.5,None,2024-11-30 16h01.07.559330 +0530,
square.png,you,1,M,,,,,,,,,26,1,105,0,,,,,,,,,345.36613709999074,,,,,,,,,,,,,,,,,,,,,,,,,,,,,,,,,,345.35012459999416,345.36613709999074,345.8663196999987,345.8499773999938,345.8499773999938,345.8499773999938,345.8499773999938,346.14970179999364,346.14970179999364,346.14970179999364,,346.6342234999902,m,346.6347087000031,346.6500254999992,347.63424959999975,0.7720633999997517,None,347.6503289999964,,,,,,,,,,,,,,,,,,,,,,,,,,,,,,,,,,,,,,,,,,,,,,,,,,,,,,,,,,,,,,,,,,,,,,,,,,,,,,,,,,,B_15,001,2024-11-30_16h00.54.229,untitled,2024.1.5,None,2024-11-30 16h01.07.559330 +0530,
triangle.png,stranger,1,M,,,,,,,,,26,2,106,1,,,,,,,,,347.6503289999964,,,,,,,,,,,,,,,,,,,,,,,,,,,,,,,,,,347.6345982999919,347.6503289999964,348.15082929999335,348.13439089999883,348.13439089999883,348.13439089999883,348.13439089999883,348.43443929999194,348.43443929999194,348.43443929999194,,348.8686396999983,m,348.8690779000026,348.8845727000007,349.86889070000325,0.7327072999905795,None,349.88509159999376,,,,,,,,,,,,,,,,,,,,,,,,,,,,,,,,,,,,,,,,,,,,,,,,,,,,,,,,,,,,,,,,,,,,,,,,,,,,,,,,,,,B_15,001,2024-11-30_16h00.54.229,untitled,2024.1.5,None,2024-11-30 16h01.07.559330 +0530,
triangle.png,you,0,Z,,,,,,,,,26,3,107,3,,,,,,,,,349.88509159999376,,,,,,,,,,,,,,,,,,,,,,,,,,,,,,,,,,349.8692363000009,349.88509159999376,350.38556749999407,350.36881020000146,350.36881020000146,350.36881020000146,350.36881020000146,350.6685456999985,350.6685456999985,350.6685456999985,,351.0196766000008,z,351.02019660000224,351.0355611999985,352.0198199000006,0.6373357999982545,None,352.03625869999814,,,,,,,,,,,,,,,,,,,,,,,,,,,,,,,,,,,,,,,,,,,,,,,,,,,,,,,,,,,,,,,,,,,,,,,,,,,,,,,,,,,B_15,001,2024-11-30_16h00.54.229,untitled,2024.1.5,None,2024-11-30 16h01.07.559330 +0530,
square.png,you,1,M,,,,,,,,,27,0,108,0,,,,,,,,,352.03625869999814,,,,,,,,,,,,,,,,,,,,,,,,,,,,,,,,,,352.0201611999946,352.03625869999814,352.5363981999981,352.519845399991,352.519845399991,352.519845399991,352.519845399991,352.8197824999952,352.8197824999952,352.8197824999952,,352.97093440000026,m,352.9713519999932,352.98656160000246,353.970828599995,0.44975060000433587,None,353.98710169999686,,,,,,,,,,,,,,,,,,,,,,,,,,,,,,,,,,,,,,,,,,,,,,,,,,,,,,,,,,,,,,,,,,,,,,,,,,,,,,,,,,,B_15,001,2024-11-30_16h00.54.229,untitled,2024.1.5,None,2024-11-30 16h01.07.559330 +0530,
square.png,stranger,0,Z,,,,,,,,,27,1,109,2,,,,,,,,,353.98710169999686,,,,,,,,,,,,,,,,,,,,,,,,,,,,,,,,,,353.9711718000035,353.98710169999686,354.4873660000012,354.47099639999215,354.47099639999215,354.47099639999215,354.47099639999215,354.77081010000256,354.77081010000256,354.77081010000256,,355.05482140000095,m,355.0552522999933,355.07102429999213,356.0553774,0.5681133000034606,None,356.07161250000354,,,,,,,,,,,,,,,,,,,,,,,,,,,,,,,,,,,,,,,,,,,,,,,,,,,,,,,,,,,,,,,,,,,,,,,,,,,,,,,,,,,B_15,001,2024-11-30_16h00.54.229,untitled,2024.1.5,None,2024-11-30 16h01.07.559330 +0530,
triangle.png,stranger,1,M,,,,,,,,,27,2,110,1,,,,,,,,,356.07161250000354,,,,,,,,,,,,,,,,,,,,,,,,,,,,,,,,,,356.05573969999386,356.07161250000354,356.57163279999804,356.55500769999344,356.55500769999344,356.55500769999344,356.55500769999344,356.8551742999989,356.8551742999989,356.8551742999989,,357.2059611000004,m,357.2063880999922,357.2219177999941,358.2063466999971,0.6357794999930775,None,358.2224751999893,,,,,,,,,,,,,,,,,,,,,,,,,,,,,,,,,,,,,,,,,,,,,,,,,,,,,,,,,,,,,,,,,,,,,,,,,,,,,,,,,,,B_15,001,2024-11-30_16h00.54.229,untitled,2024.1.5,None,2024-11-30 16h01.07.559330 +0530,
triangle.png,you,0,Z,,,,,,,,,27,3,111,3,,,,,,,,,358.2224751999893,,,,,,,,,,,,,,,,,,,,,,,,,,,,,,,,,,358.206692199994,358.2224751999893,358.72318429998995,358.706182599999,358.706182599999,358.706182599999,358.706182599999,359.0062617999938,359.0062617999938,359.0062617999938,,359.2074549999961,z,359.2078720999998,359.22316349999164,360.2074893999961,0.49918199999956414,None,360.22358589999203,,,,,,,,,,,,,,,,,,,,,,,,,,,,,,,,,,,,,,,,,,,,,,,,,,,,,,,,,,,,,,,,,,,,,,,,,,,,,,,,,,,B_15,001,2024-11-30_16h00.54.229,untitled,2024.1.5,None,2024-11-30 16h01.07.559330 +0530,
square.png,you,1,M,,,,,,,,,28,0,112,0,,,,,,,,,360.22358589999203,,,,,,,,,,,,,,,,,,,,,,,,,,,,,,,,,,360.2078324000031,360.22358589999203,360.7240365000034,360.70736549999856,360.70736549999856,360.70736549999856,360.70736549999856,361.007500599997,361.007500599997,361.007500599997,,361.40848240000196,m,361.4089064,361.42440329999954,362.40842839999823,0.6992182999965735,None,362.4248297000013,,,,,,,,,,,,,,,,,,,,,,,,,,,,,,,,,,,,,,,,,,,,,,,,,,,,,,,,,,,,,,,,,,,,,,,,,,,,,,,,,,,B_15,001,2024-11-30_16h00.54.229,untitled,2024.1.5,None,2024-11-30 16h01.07.559330 +0530,
square.png,stranger,0,Z,,,,,,,,,28,1,113,2,,,,,,,,,362.4248297000013,,,,,,,,,,,,,,,,,,,,,,,,,,,,,,,,,,362.40877850000106,362.4248297000013,362.92511060000106,362.90859459999774,362.90859459999774,362.90859459999774,362.90859459999774,363.20856719999574,363.20856719999574,363.20856719999574,,363.5094839999947,z,363.50990479999746,363.52519079999183,364.50958569999784,0.5980428000038955,None,364.5259184000024,,,,,,,,,,,,,,,,,,,,,,,,,,,,,,,,,,,,,,,,,,,,,,,,,,,,,,,,,,,,,,,,,,,,,,,,,,,,,,,,,,,B_15,001,2024-11-30_16h00.54.229,untitled,2024.1.5,None,2024-11-30 16h01.07.559330 +0530,
triangle.png,you,0,Z,,,,,,,,,28,2,114,3,,,,,,,,,364.5259184000024,,,,,,,,,,,,,,,,,,,,,,,,,,,,,,,,,,364.5099317999993,364.5259184000024,365.026077100003,365.0095317999949,365.0095317999949,365.0095317999949,365.0095317999949,365.3094173999998,365.3094173999998,365.3094173999998,,365.46034239999426,m,365.46075830000336,365.4764632000006,366.4607182000036,0.44040859999950044,None,366.4768941999937,,,,,,,,,,,,,,,,,,,,,,,,,,,,,,,,,,,,,,,,,,,,,,,,,,,,,,,,,,,,,,,,,,,,,,,,,,,,,,,,,,,B_15,001,2024-11-30_16h00.54.229,untitled,2024.1.5,None,2024-11-30 16h01.07.559330 +0530,
triangle.png,stranger,1,M,,,,,,,,,28,3,115,1,,,,,,,,,366.4768941999937,,,,,,,,,,,,,,,,,,,,,,,,,,,,,,,,,,366.4610654999997,366.4768941999937,366.9773002000002,366.96045009999943,366.96045009999943,366.96045009999943,366.96045009999943,367.260477799995,367.260477799995,367.260477799995,,367.6948788000009,m,367.6952994000021,367.71075089999067,368.6953730999958,0.7179077999899164,None,368.71136889999616,,,,,,,,,,,,,,,,,,,,,,,,,,,,,,,,,,,,,,,,,,,,,,,,,,,,,,,,,,,,,,,,,,,,,,,,,,,,,,,,,,,B_15,001,2024-11-30_16h00.54.229,untitled,2024.1.5,None,2024-11-30 16h01.07.559330 +0530,
triangle.png,you,0,Z,,,,,,,,,29,0,116,3,,,,,,,,,368.71136889999616,,,,,,,,,,,,,,,,,,,,,,,,,,,,,,,,,,368.69571810000343,368.71136889999616,369.2117501999892,369.19513539999025,369.19513539999025,369.19513539999025,369.19513539999025,369.49487519999093,369.49487519999093,369.49487519999093,,369.729067399996,m,369.72949589999916,369.74528469999495,370.72935559999314,0.5183204999921145,None,370.74577690000297,,,,,,,,,,,,,,,,,,,,,,,,,,,,,,,,,,,,,,,,,,,,,,,,,,,,,,,,,,,,,,,,,,,,,,,,,,,,,,,,,,,B_15,001,2024-11-30_16h00.54.229,untitled,2024.1.5,None,2024-11-30 16h01.07.559330 +0530,
square.png,stranger,0,Z,,,,,,,,,29,1,117,2,,,,,,,,,370.74577690000297,,,,,,,,,,,,,,,,,,,,,,,,,,,,,,,,,,370.72970739999437,370.74577690000297,371.24609970000165,371.2293015999894,371.2293015999894,371.2293015999894,371.2293015999894,371.52925259999756,371.52925259999756,371.52925259999756,,371.96362349999254,z,371.96404609999445,371.97961899999063,372.96391369999037,0.7279884999879869,None,372.9802369999961,,,,,,,,,,,,,,,,,,,,,,,,,,,,,,,,,,,,,,,,,,,,,,,,,,,,,,,,,,,,,,,,,,,,,,,,,,,,,,,,,,,B_15,001,2024-11-30_16h00.54.229,untitled,2024.1.5,None,2024-11-30 16h01.07.559330 +0530,
triangle.png,stranger,1,M,,,,,,,,,29,2,118,1,,,,,,,,,372.9802369999961,,,,,,,,,,,,,,,,,,,,,,,,,,,,,,,,,,372.96425809999346,372.9802369999961,373.48074810000253,373.46373139999923,373.46373139999923,373.46373139999923,373.46373139999923,373.7637867000012,373.7637867000012,373.7637867000012,,374.31480529998953,m,374.3152718999918,374.33089219999965,375.31525780000084,0.8461392999888631,None,375.33141250000335,,,,,,,,,,,,,,,,,,,,,,,,,,,,,,,,,,,,,,,,,,,,,,,,,,,,,,,,,,,,,,,,,,,,,,,,,,,,,,,,,,,B_15,001,2024-11-30_16h00.54.229,untitled,2024.1.5,None,2024-11-30 16h01.07.559330 +0530,
square.png,you,1,M,,,,,,,,,29,3,119,0,,,,,,,,,375.33141250000335,,,,,,,,,,,,,,,,,,,,,,,,,,,,,,,,,,375.3156001000025,375.33141250000335,375.83159349999914,375.81500839999353,375.81500839999353,375.81500839999353,375.81500839999353,376.11517849999655,376.11517849999655,376.11517849999655,,376.34937949999585,m,376.349801999997,376.3652335999941,377.34949049999705,0.5223010000045178,None,377.3655960000033,,,,,,,,,,,,,,,,,,,,,,,,,,,,,,,,,,,,,,,,,,,,,,,,,,,,,,,,,,,,,,,,,,,,,,,,,,,,,,,,,,,B_15,001,2024-11-30_16h00.54.229,untitled,2024.1.5,None,2024-11-30 16h01.07.559330 +0530,
triangle.png,you,0,Z,,,,,,,,,30,0,120,3,,,,,,,,,377.3655960000033,,,,,,,,,,,,,,,,,,,,,,,,,,,,,,,,,,377.349833699991,377.3655960000033,377.86614899999404,377.84933729999466,377.84933729999466,377.84933729999466,377.84933729999466,378.14948500000173,378.14948500000173,378.14948500000173,,378.46719499999017,z,378.4676238999964,378.48309389999486,379.4671556999965,0.6162040000053821,None,379.48361250000016,,,,,,,,,,,,,,,,,,,,,,,,,,,,,,,,,,,,,,,,,,,,,,,,,,,,,,,,,,,,,,,,,,,,,,,,,,,,,,,,,,,B_15,001,2024-11-30_16h00.54.229,untitled,2024.1.5,None,2024-11-30 16h01.07.559330 +0530,
triangle.png,stranger,1,M,,,,,,,,,30,1,121,1,,,,,,,,,379.48361250000016,,,,,,,,,,,,,,,,,,,,,,,,,,,,,,,,,,379.4674976999959,379.48361250000016,379.9839256999985,379.96720220000134,379.96720220000134,379.96720220000134,379.96720220000134,380.2672445999924,380.2672445999924,380.2672445999924,,380.751666199998,m,380.7520866999985,380.76742209999065,381.7517879999941,0.7829867000109516,None,381.76808919999166,,,,,,,,,,,,,,,,,,,,,,,,,,,,,,,,,,,,,,,,,,,,,,,,,,,,,,,,,,,,,,,,,,,,,,,,,,,,,,,,,,,B_15,001,2024-11-30_16h00.54.229,untitled,2024.1.5,None,2024-11-30 16h01.07.559330 +0530,
square.png,stranger,0,Z,,,,,,,,,30,2,122,2,,,,,,,,,381.76808919999166,,,,,,,,,,,,,,,,,,,,,,,,,,,,,,,,,,381.7521277999913,381.76808919999166,382.26823099999456,382.25175460000173,382.25175460000173,382.25175460000173,382.25175460000173,382.55169520000345,382.55169520000345,382.55169520000345,,383.05245239999203,z,383.05287159999716,383.06879049999407,384.0528622999991,0.7973599999968428,None,384.0692024000018,,,,,,,,,,,,,,,,,,,,,,,,,,,,,,,,,,,,,,,,,,,,,,,,,,,,,,,,,,,,,,,,,,,,,,,,,,,,,,,,,,,B_15,001,2024-11-30_16h00.54.229,untitled,2024.1.5,None,2024-11-30 16h01.07.559330 +0530,
square.png,you,1,M,,,,,,,,,30,3,123,0,,,,,,,,,384.0692024000018,,,,,,,,,,,,,,,,,,,,,,,,,,,,,,,,,,384.05320490000304,384.0692024000018,384.5693803999893,384.5529103000008,384.5529103000008,384.5529103000008,384.5529103000008,384.8528457999928,384.8528457999928,384.8528457999928,,385.2538348999951,m,385.25424850000127,385.2696866999904,386.2539892999921,0.6852829999988899,None,386.2704049000022,,,,,,,,,,,,,,,,,,,,,,,,,,,,,,,,,,,,,,,,,,,,,,,,,,,,,,,,,,,,,,,,,,,,,,,,,,,,,,,,,,,B_15,001,2024-11-30_16h00.54.229,untitled,2024.1.5,None,2024-11-30 16h01.07.559330 +0530,
triangle.png,stranger,1,M,,,,,,,,,31,0,124,1,,,,,,,,,386.2704049000022,,,,,,,,,,,,,,,,,,,,,,,,,,,,,,,,,,386.25433630000043,386.2704049000022,386.7705705999979,386.7540568999975,386.7540568999975,386.7540568999975,386.7540568999975,387.0540103999956,387.0540103999956,387.0540103999956,,387.4216138999909,m,387.4220704999898,387.4374780999933,388.4218152999965,0.6599344999995083,None,388.4380967999896,,,,,,,,,,,,,,,,,,,,,,,,,,,,,,,,,,,,,,,,,,,,,,,,,,,,,,,,,,,,,,,,,,,,,,,,,,,,,,,,,,,B_15,001,2024-11-30_16h00.54.229,untitled,2024.1.5,None,2024-11-30 16h01.07.559330 +0530,
square.png,you,1,M,,,,,,,,,31,1,125,0,,,,,,,,,388.4380967999896,,,,,,,,,,,,,,,,,,,,,,,,,,,,,,,,,,388.42222069999843,388.4380967999896,388.9383156999975,388.9219221999956,388.9219221999956,388.9219221999956,388.9219221999956,389.22177639999427,389.22177639999427,389.22177639999427,,389.7561764999991,m,389.75659489999816,389.77214919999824,390.75622060000023,0.8239160000084667,None,390.77269440000237,,,,,,,,,,,,,,,,,,,,,,,,,,,,,,,,,,,,,,,,,,,,,,,,,,,,,,,,,,,,,,,,,,,,,,,,,,,,,,,,,,,B_15,001,2024-11-30_16h00.54.229,untitled,2024.1.5,None,2024-11-30 16h01.07.559330 +0530,
triangle.png,you,0,Z,,,,,,,,,31,2,126,3,,,,,,,,,390.77269440000237,,,,,,,,,,,,,,,,,,,,,,,,,,,,,,,,,,390.7565667000017,390.77269440000237,391.2730045999924,391.25630439999804,391.25630439999804,391.25630439999804,391.25630439999804,391.55627339999774,391.55627339999774,391.55627339999774,,391.9406638999935,z,391.94108839999535,391.95658209999965,392.9408165999921,0.674226599992835,None,392.95703619999404,,,,,,,,,,,,,,,,,,,,,,,,,,,,,,,,,,,,,,,,,,,,,,,,,,,,,,,,,,,,,,,,,,,,,,,,,,,,,,,,,,,B_15,001,2024-11-30_16h00.54.229,untitled,2024.1.5,None,2024-11-30 16h01.07.559330 +0530,
square.png,stranger,0,Z,,,,,,,,,31,3,127,2,,,,,,,,,392.95703619999404,,,,,,,,,,,,,,,,,,,,,,,,,,,,,,,,,,392.9411579000007,392.95703619999404,393.45763029999216,393.4406682999979,393.4406682999979,393.4406682999979,393.4406682999979,393.7408037999994,393.7408037999994,393.7408037999994,,394.325165000002,z,394.3255976999935,394.34113929999876,395.3253449999902,0.8817890000063926,None,395.3417294999963,,,,,,,,,,,,,,,,,,,,,,,,,,,,,,,,,,,,,,,,,,,,,,,,,,,,,,,,,,,,,,,,,,,,,,,,,,,,,,,,,,,B_15,001,2024-11-30_16h00.54.229,untitled,2024.1.5,None,2024-11-30 16h01.07.559330 +0530,
square.png,stranger,0,Z,,,,,,,,,32,0,128,2,,,,,,,,,395.3417294999963,,,,,,,,,,,,,,,,,,,,,,,,,,,,,,,,,,395.32568860000174,395.3417294999963,395.84174269999494,395.82526179999695,395.82526179999695,395.82526179999695,395.82526179999695,396.12555879999127,396.12555879999127,396.12555879999127,,396.4760374999896,z,396.4764584999939,396.4920757999935,397.476608500001,0.6357908000063617,None,397.49270740000065,,,,,,,,,,,,,,,,,,,,,,,,,,,,,,,,,,,,,,,,,,,,,,,,,,,,,,,,,,,,,,,,,,,,,,,,,,,,,,,,,,,B_15,001,2024-11-30_16h00.54.229,untitled,2024.1.5,None,2024-11-30 16h01.07.559330 +0530,
triangle.png,you,0,Z,,,,,,,,,32,1,129,3,,,,,,,,,397.49270740000065,,,,,,,,,,,,,,,,,,,,,,,,,,,,,,,,,,397.47695470000326,397.49270740000065,397.9929026000027,397.97637920000125,397.97637920000125,397.97637920000125,397.97637920000125,398.27651139999216,398.27651139999216,398.27651139999216,,398.8108213999949,z,398.8112509999919,398.826748099993,399.8110708000022,0.8180062000028556,None,399.8272343999997,,,,,,,,,,,,,,,,,,,,,,,,,,,,,,,,,,,,,,,,,,,,,,,,,,,,,,,,,,,,,,,,,,,,,,,,,,,,,,,,,,,B_15,001,2024-11-30_16h00.54.229,untitled,2024.1.5,None,2024-11-30 16h01.07.559330 +0530,
triangle.png,stranger,1,M,,,,,,,,,32,2,130,1,,,,,,,,,399.8272343999997,,,,,,,,,,,,,,,,,,,,,,,,,,,,,,,,,,399.8114157999953,399.8272343999997,400.32776159999776,400.31083729999955,400.31083729999955,400.31083729999955,400.31083729999955,400.6108416999923,400.6108416999923,400.6108416999923,,401.36193020000064,m,401.3623532999918,401.3780880999984,402.3623859999934,1.0382274000003235,None,402.37862669999595,,,,,,,,,,,,,,,,,,,,,,,,,,,,,,,,,,,,,,,,,,,,,,,,,,,,,,,,,,,,,,,,,,,,,,,,,,,,,,,,,,,B_15,001,2024-11-30_16h00.54.229,untitled,2024.1.5,None,2024-11-30 16h01.07.559330 +0530,
square.png,you,1,M,,,,,,,,,32,3,131,0,,,,,,,,,402.37862669999595,,,,,,,,,,,,,,,,,,,,,,,,,,,,,,,,,,402.3627300999942,402.37862669999595,402.8786934999953,402.8620468000008,402.8620468000008,402.8620468000008,402.8620468000008,403.1620583999902,403.1620583999902,403.1620583999902,,403.61324449999665,m,403.61367439999594,403.6290789999912,404.6135867999983,0.7356365000014193,None,404.62967650000064,,,,,,,,,,,,,,,,,,,,,,,,,,,,,,,,,,,,,,,,,,,,,,,,,,,,,,,,,,,,,,,,,,,,,,,,,,,,,,,,,,,B_15,001,2024-11-30_16h00.54.229,untitled,2024.1.5,None,2024-11-30 16h01.07.559330 +0530,
triangle.png,you,0,Z,,,,,,,,,33,0,132,3,,,,,,,,,404.62967650000064,,,,,,,,,,,,,,,,,,,,,,,,,,,,,,,,,,404.613930099993,404.62967650000064,405.130096199995,405.1134122999938,405.1134122999938,405.1134122999938,405.1134122999938,405.413398699995,405.413398699995,405.413398699995,,406.14775419999205,z,406.14817049998965,406.16390050000336,407.1481633999938,1.0211005000019213,None,407.1643764000037,,,,,,,,,,,,,,,,,,,,,,,,,,,,,,,,,,,,,,,,,,,,,,,,,,,,,,,,,,,,,,,,,,,,,,,,,,,,,,,,,,,B_15,001,2024-11-30_16h00.54.229,untitled,2024.1.5,None,2024-11-30 16h01.07.559330 +0530,
square.png,you,1,M,,,,,,,,,33,1,133,0,,,,,,,,,407.1643764000037,,,,,,,,,,,,,,,,,,,,,,,,,,,,,,,,,,407.1485055999947,407.1643764000037,407.66475179999543,407.64792619999207,407.64792619999207,407.64792619999207,407.64792619999207,407.94789409999794,407.94789409999794,407.94789409999794,,408.3321747000009,m,408.3325920999923,408.34835469999234,409.33255140000256,0.6706122000032337,None,409.34878839999146,,,,,,,,,,,,,,,,,,,,,,,,,,,,,,,,,,,,,,,,,,,,,,,,,,,,,,,,,,,,,,,,,,,,,,,,,,,,,,,,,,,B_15,001,2024-11-30_16h00.54.229,untitled,2024.1.5,None,2024-11-30 16h01.07.559330 +0530,
square.png,stranger,0,Z,,,,,,,,,33,2,134,2,,,,,,,,,409.34878839999146,,,,,,,,,,,,,,,,,,,,,,,,,,,,,,,,,,409.33289479999803,409.34878839999146,409.8491095999925,409.8324181999924,409.8324181999924,409.8324181999924,409.8324181999924,410.1322280000022,410.1322280000022,410.1322280000022,410.9328150999936,410.9167052999983,None,410.9168983999989,410.9328150999936,411.9171476999909,,,411.93350369999825,,,,,,,,,,,,,,,,,,,,,,,,,,,,,,,,,,,,,,,,,,,,,,,,,,,,,,,,,,,,,,,,,,,,,,,,,,,,,,,,,,,B_15,001,2024-11-30_16h00.54.229,untitled,2024.1.5,None,2024-11-30 16h01.07.559330 +0530,
triangle.png,stranger,1,M,,,,,,,,,33,3,135,1,,,,,,,,,411.93350369999825,,,,,,,,,,,,,,,,,,,,,,,,,,,,,,,,,,411.9174936999916,411.93350369999825,412.4338313999906,412.4338313999906,412.4338313999906,412.4338313999906,412.4338313999906,412.73381209999206,412.73381209999206,412.73381209999206,,413.03469269999187,m,413.0351144000015,413.05070500000147,414.03481840000313,0.5959236999915447,None,414.0511499999993,,,,,,,,,,,,,,,,,,,,,,,,,,,,,,,,,,,,,,,,,,,,,,,,,,,,,,,,,,,,,,,,,,,,,,,,,,,,,,,,,,,B_15,001,2024-11-30_16h00.54.229,untitled,2024.1.5,None,2024-11-30 16h01.07.559330 +0530,
triangle.png,you,0,Z,,,,,,,,,34,0,136,3,,,,,,,,,414.0511499999993,,,,,,,,,,,,,,,,,,,,,,,,,,,,,,,,,,414.03516339999624,414.0511499999993,414.55151869999827,414.5348948000028,414.5348948000028,414.5348948000028,414.5348948000028,414.83489559999725,414.83489559999725,414.83489559999725,,415.2357969000004,z,415.23622039999464,415.2517431000015,416.23584619999747,0.6872052999970037,None,416.2522050999978,,,,,,,,,,,,,,,,,,,,,,,,,,,,,,,,,,,,,,,,,,,,,,,,,,,,,,,,,,,,,,,,,,,,,,,,,,,,,,,,,,,B_15,001,2024-11-30_16h00.54.229,untitled,2024.1.5,None,2024-11-30 16h01.07.559330 +0530,
square.png,you,1,M,,,,,,,,,34,1,137,0,,,,,,,,,416.2522050999978,,,,,,,,,,,,,,,,,,,,,,,,,,,,,,,,,,416.23620010000013,416.2522050999978,416.7528413999971,416.7360095999902,416.7360095999902,416.7360095999902,416.7360095999902,417.0359674999927,417.0359674999927,417.0359674999927,,417.4037202000036,m,417.4041373999935,417.41951049999625,418.4039502999949,0.6577399000088917,None,418.42021090000344,,,,,,,,,,,,,,,,,,,,,,,,,,,,,,,,,,,,,,,,,,,,,,,,,,,,,,,,,,,,,,,,,,,,,,,,,,,,,,,,,,,B_15,001,2024-11-30_16h00.54.229,untitled,2024.1.5,None,2024-11-30 16h01.07.559330 +0530,
triangle.png,stranger,1,M,,,,,,,,,34,2,138,1,,,,,,,,,418.42021090000344,,,,,,,,,,,,,,,,,,,,,,,,,,,,,,,,,,418.40430179999385,418.42021090000344,418.9202360999916,418.903827999995,418.903827999995,418.903827999995,418.903827999995,419.20372730000236,419.20372730000236,419.20372730000236,,419.73793239999213,z,419.73834939999506,419.7539850999892,420.7384568999987,0.8184180999960518,None,420.754643399996,,,,,,,,,,,,,,,,,,,,,,,,,,,,,,,,,,,,,,,,,,,,,,,,,,,,,,,,,,,,,,,,,,,,,,,,,,,,,,,,,,,B_15,001,2024-11-30_16h00.54.229,untitled,2024.1.5,None,2024-11-30 16h01.07.559330 +0530,
square.png,stranger,0,Z,,,,,,,,,34,3,139,2,,,,,,,,,420.754643399996,,,,,,,,,,,,,,,,,,,,,,,,,,,,,,,,,,420.73880429999554,420.754643399996,421.25513130000036,421.23838599999726,421.23838599999726,421.23838599999726,421.23838599999726,421.53811850000056,421.53811850000056,421.53811850000056,,421.9225817999977,z,421.92303289999836,421.93851829999767,422.9226936999912,0.6706738999928348,None,422.93909749999875,,,,,,,,,,,,,,,,,,,,,,,,,,,,,,,,,,,,,,,,,,,,,,,,,,,,,,,,,,,,,,,,,,,,,,,,,,,,,,,,,,,B_15,001,2024-11-30_16h00.54.229,untitled,2024.1.5,None,2024-11-30 16h01.07.559330 +0530,
square.png,stranger,0,Z,,,,,,,,,35,0,140,2,,,,,,,,,422.93909749999875,,,,,,,,,,,,,,,,,,,,,,,,,,,,,,,,,,422.92303989999346,422.93909749999875,423.43945269999676,423.422604899999,423.422604899999,423.422604899999,423.422604899999,423.7228380000015,423.7228380000015,423.7228380000015,424.52324999999837,424.506825199991,None,424.50701319999644,424.52324999999837,425.5075311999972,,,425.5235376999917,,,,,,,,,,,,,,,,,,,,,,,,,,,,,,,,,,,,,,,,,,,,,,,,,,,,,,,,,,,,,,,,,,,,,,,,,,,,,,,,,,,B_15,001,2024-11-30_16h00.54.229,untitled,2024.1.5,None,2024-11-30 16h01.07.559330 +0530,
square.png,you,1,M,,,,,,,,,35,1,141,0,,,,,,,,,425.5235376999917,,,,,,,,,,,,,,,,,,,,,,,,,,,,,,,,,,425.507878599994,425.5235376999917,426.0240788999945,426.0240788999945,426.0240788999945,426.0240788999945,426.0240788999945,426.32405139999173,426.32405139999173,426.32405139999173,,426.45821799999976,m,426.458664699996,426.4741364999936,427.4585107000021,0.4210581999941496,None,427.4747837999894,,,,,,,,,,,,,,,,,,,,,,,,,,,,,,,,,,,,,,,,,,,,,,,,,,,,,,,,,,,,,,,,,,,,,,,,,,,,,,,,,,,B_15,001,2024-11-30_16h00.54.229,untitled,2024.1.5,None,2024-11-30 16h01.07.559330 +0530,
triangle.png,you,0,Z,,,,,,,,,35,2,142,3,,,,,,,,,427.4747837999894,,,,,,,,,,,,,,,,,,,,,,,,,,,,,,,,,,427.45885529999214,427.4747837999894,427.97512180000194,427.95822600000247,427.95822600000247,427.95822600000247,427.95822600000247,428.25829410000006,428.25829410000006,428.25829410000006,,428.6759239999956,z,428.676349699992,428.6919679999992,429.6762022999901,0.7039262999896891,None,429.69247500000347,,,,,,,,,,,,,,,,,,,,,,,,,,,,,,,,,,,,,,,,,,,,,,,,,,,,,,,,,,,,,,,,,,,,,,,,,,,,,,,,,,,B_15,001,2024-11-30_16h00.54.229,untitled,2024.1.5,None,2024-11-30 16h01.07.559330 +0530,
triangle.png,stranger,1,M,,,,,,,,,35,3,143,1,,,,,,,,,429.69247500000347,,,,,,,,,,,,,,,,,,,,,,,,,,,,,,,,,,429.6765575000027,429.69247500000347,430.1926867000002,430.1761253000004,430.1761253000004,430.1761253000004,430.1761253000004,430.47604619999765,430.47604619999765,430.47604619999765,,431.14406069999677,m,431.1444880999916,431.1598079999967,432.1442607999925,0.9657166999968467,None,432.16022550000343,,,,,,,,,,,,,,,,,,,,,,,,,,,,,,,,,,,,,,,,,,,,,,,,,,,,,,,,,,,,,,,,,,,,,,,,,,,,,,,,,,,B_15,001,2024-11-30_16h00.54.229,untitled,2024.1.5,None,2024-11-30 16h01.07.559330 +0530,
square.png,you,1,M,,,,,,,,,36,0,144,0,,,,,,,,,432.16022550000343,,,,,,,,,,,,,,,,,,,,,,,,,,,,,,,,,,432.1446164999943,432.16022550000343,432.66051570000127,432.64395969999896,432.64395969999896,432.64395969999896,432.64395969999896,432.94402219999756,432.94402219999756,432.94402219999756,,433.2619024000014,m,433.26231979999284,433.27758929999254,434.26202389999526,0.6103071999968961,None,434.27825619999203,,,,,,,,,,,,,,,,,,,,,,,,,,,,,,,,,,,,,,,,,,,,,,,,,,,,,,,,,,,,,,,,,,,,,,,,,,,,,,,,,,,B_15,001,2024-11-30_16h00.54.229,untitled,2024.1.5,None,2024-11-30 16h01.07.559330 +0530,
