stimulus_b,label_b,is_match_b,shouldpress_b,stimulus_2b,label_2b,is_match_2b,shouldpress_2b,p_trials.thisRepN,p_trials.thisTrialN,p_trials.thisN,p_trials.thisIndex,trials.thisRepN,trials.thisTrialN,trials.thisN,trials.thisIndex,p_trials_2.thisRepN,p_trials_2.thisTrialN,p_trials_2.thisN,p_trials_2.thisIndex,trials_2.thisRepN,trials_2.thisTrialN,trials_2.thisN,trials_2.thisIndex,thisRow.t,notes,Intruduction.started,text_3.started,key_resp_2.started,Intruduction.stopped,key_resp_2.keys,key_resp_2.rt,key_resp_2.duration,self_other_instructions.started,text_4.started,key_resp_3.started,self_other_instructions.stopped,key_resp_3.keys,key_resp_3.rt,key_resp_3.duration,self_other_info.started,square_image.started,triangle_image.started,self_label.started,other_label.started,key_resp_4.started,text_5.started,self_other_info.stopped,key_resp_4.keys,key_resp_4.rt,key_resp_4.duration,self_other_starting_2.started,text_6.started,key_resp_5.started,self_other_starting_2.stopped,key_resp_5.keys,key_resp_5.rt,key_resp_5.duration,b1.started,p_fication.started,p_fixation_3.started,p_text.started,key_resp_p.started,p_image.started,p_fication.stopped,p_fixation_3.stopped,p_text.stopped,p_image.stopped,b1.stopped,key_resp_p.keys,key_resp_p.rt,key_resp_p.duration,b_feedback.started,text_15.started,text_15.stopped,b_feedback.stopped,key_resp_p.stopped,start2.started,start_2.started,key_resp_11.started,start2.stopped,key_resp_11.keys,key_resp_11.rt,key_resp_11.duration,break_3.started,text_13.started,text_14.started,key_resp_10.started,text_13.stopped,break_3.stopped,key_resp_10.keys,key_resp_10.rt,key_resp_10.duration,self_instructions_2.started,text_10.started,key_resp_7.started,self_instructions_2.stopped,key_resp_7.keys,key_resp_7.rt,key_resp_7.duration,self_intro_2.started,circle_image.started,diamond_image.started,Disgusting_self_lable.started,Desirable_self_lable.started,key_resp_8.started,text_11.started,self_intro_2.stopped,key_resp_8.keys,key_resp_8.rt,key_resp_8.duration,self_starting_3.started,text_12.started,key_resp_9.started,self_starting_3.stopped,key_resp_9.keys,key_resp_9.rt,key_resp_9.duration,practice2.started,p_fixation_2.started,p_fixation_2.stopped,p_fixation_4.started,p_text_8.started,key_resp_6_p.started,p_image_2.started,p_fixation_4.stopped,p_text_8.stopped,p_image_2.stopped,practice2.stopped,key_resp_6_p.keys,key_resp_6_p.rt,key_resp_6_p.duration,feedback_2_p.started,text_16.started,text_16.stopped,feedback_2_p.stopped,key_resp_6_p.stopped,trial_2.started,fixation_2.started,fixation_4.started,text_8.started,key_resp_6.started,image_2.started,fixation_2.stopped,fixation_4.stopped,text_8.stopped,image_2.stopped,trial_2.stopped,key_resp_6.keys,key_resp_6.rt,key_resp_6.duration,feedback_2.started,text_9.started,text_9.stopped,feedback_2.stopped,key_resp_6.stopped,Thank_you.started,text_7.started,Thank_you.stopped,participant,session,date,expName,psychopyVersion,frameRate,expStart,
,,,,,,,,,,,,,,,,,,,,,,,,,,0.0027864999137818813,0.0065784999169409275,0.0065784999169409275,3.3689443999901414,space,3.3248898000456393,None,,,,,,,,,,,,,,,,,,,,,,,,,,,,,,,,,,,,,,,,,,,,,,,,,,,,,,,,,,,,,,,,,,,,,,,,,,,,,,,,,,,,,,,,,,,,,,,,,,,,,,,,,,,,,,,,,,,,,,,,,,,,,,,b_1_,001,2024-11-27_10h43.50.038,untitled,2024.1.5,None,2024-11-27 10h44.05.490984 +0530,
,,,,,,,,,,,,,,,,,,,,,,,,,,,,,,,,,3.368972699972801,3.374149299925193,3.374149299925193,9.699187899939716,space,6.317106300033629,None,,,,,,,,,,,,,,,,,,,,,,,,,,,,,,,,,,,,,,,,,,,,,,,,,,,,,,,,,,,,,,,,,,,,,,,,,,,,,,,,,,,,,,,,,,,,,,,,,,,,,,,,,,,,,,,,,,,,,,,,b_1_,001,2024-11-27_10h43.50.038,untitled,2024.1.5,None,2024-11-27 10h44.05.490984 +0530,
,,,,,,,,,,,,,,,,,,,,,,,,,,,,,,,,,,,,,,,,9.699213100015186,9.73232760000974,9.73232760000974,9.73232760000974,9.73232760000974,9.73232760000974,9.73232760000974,14.334015199914575,space,4.599335000035353,None,,,,,,,,,,,,,,,,,,,,,,,,,,,,,,,,,,,,,,,,,,,,,,,,,,,,,,,,,,,,,,,,,,,,,,,,,,,,,,,,,,,,,,,,,,,,,,,,,,,,,,,,,,,,,b_1_,001,2024-11-27_10h43.50.038,untitled,2024.1.5,None,2024-11-27 10h44.05.490984 +0530,
,,,,,,,,,,,,,,,,,,,,,,,,,,,,,,,,,,,,,,,,,,,,,,,,,,,14.334040499990806,14.349984499975108,14.349984499975108,18.80299019999802,space,4.437086299993098,None,,,,,,,,,,,,,,,,,,,,,,,,,,,,,,,,,,,,,,,,,,,,,,,,,,,,,,,,,,,,,,,,,,,,,,,,,,,,,,,,,,,,,,,,,,,,,,,,,,,,,,b_1_,001,2024-11-27_10h43.50.038,untitled,2024.1.5,None,2024-11-27 10h44.05.490984 +0530,
square.png,you,1,M,,,,,0,0,0,0,,,,,,,,,,,,,18.821716899983585,,,,,,,,,,,,,,,,,,,,,,,,,,,,,,,,,,18.811768999905325,18.821716899983585,19.30241489992477,19.30241489992477,19.30241489992477,19.30241489992477,19.335650899913162,19.602331599919125,19.602331599919125,19.602331599919125,19.95314839994535,m,0.6361931000137702,None,19.953524200012907,19.969278699951246,20.969705699943006,20.953407499939203,,,,,,,,,,,,,,,,,,,,,,,,,,,,,,,,,,,,,,,,,,,,,,,,,,,,,,,,,,,,,,,,,,,,,,,,,,,,,,,,,,,,b_1_,001,2024-11-27_10h43.50.038,untitled,2024.1.5,None,2024-11-27 10h44.05.490984 +0530,
triangle.png,you,0,Z,,,,,0,1,1,3,,,,,,,,,,,,,20.969705699943006,,,,,,,,,,,,,,,,,,,,,,,,,,,,,,,,,,20.95363849995192,20.969705699943006,21.45355420000851,21.45355420000851,21.45355420000851,21.45355420000851,21.470248500001617,21.753623600001447,21.753623600001447,21.753623600001447,22.170924599980935,z,0.7096856000134721,None,22.171164999948815,22.18704109999817,23.187430499936454,23.171278900001198,,,,,,,,,,,,,,,,,,,,,,,,,,,,,,,,,,,,,,,,,,,,,,,,,,,,,,,,,,,,,,,,,,,,,,,,,,,,,,,,,,,,b_1_,001,2024-11-27_10h43.50.038,untitled,2024.1.5,None,2024-11-27 10h44.05.490984 +0530,
triangle.png,stranger,1,M,,,,,0,2,2,1,,,,,,,,,,,,,23.187430499936454,,,,,,,,,,,,,,,,,,,,,,,,,,,,,,,,,,23.171512299915776,23.187430499936454,23.671366599970497,23.671366599970497,23.671366599970497,23.671366599970497,23.688030199962668,23.971328699961305,23.971328699961305,23.971328699961305,24.755392199964263,None,,,24.75551909999922,24.771552599966526,25.772320799995214,25.75584389991127,24.771552599966526,,,,,,,,,,,,,,,,,,,,,,,,,,,,,,,,,,,,,,,,,,,,,,,,,,,,,,,,,,,,,,,,,,,,,,,,,,,,,,,,,,,b_1_,001,2024-11-27_10h43.50.038,untitled,2024.1.5,None,2024-11-27 10h44.05.490984 +0530,
square.png,stranger,0,Z,,,,,0,3,3,2,,,,,,,,,,,,,25.772320799995214,,,,,,,,,,,,,,,,,,,,,,,,,,,,,,,,,,25.756073399912566,25.772320799995214,26.27245699998457,26.27245699998457,26.27245699998457,26.27245699998457,26.27245699998457,26.57253739994485,26.57253739994485,26.57253739994485,27.040329199982807,z,0.7519578000064939,None,27.040569699951448,27.05616579996422,28.05678609991446,28.040449099964462,,,,,,,,,,,,,,,,,,,,,,,,,,,,,,,,,,,,,,,,,,,,,,,,,,,,,,,,,,,,,,,,,,,,,,,,,,,,,,,,,,,,b_1_,001,2024-11-27_10h43.50.038,untitled,2024.1.5,None,2024-11-27 10h44.05.490984 +0530,
triangle.png,stranger,1,M,,,,,1,0,4,1,,,,,,,,,,,,,28.05678609991446,,,,,,,,,,,,,,,,,,,,,,,,,,,,,,,,,,28.040678399964236,28.05678609991446,28.540541299968027,28.540541299968027,28.540541299968027,28.540541299968027,28.55704230000265,28.84057259990368,28.84057259990368,28.84057259990368,29.37494169990532,m,0.8191583000589162,None,29.375182799994946,29.390644499915652,30.391391600016505,30.375082099926658,,,,,,,,,,,,,,,,,,,,,,,,,,,,,,,,,,,,,,,,,,,,,,,,,,,,,,,,,,,,,,,,,,,,,,,,,,,,,,,,,,,,b_1_,001,2024-11-27_10h43.50.038,untitled,2024.1.5,None,2024-11-27 10h44.05.490984 +0530,
triangle.png,you,0,Z,,,,,1,1,5,3,,,,,,,,,,,,,30.391391600016505,,,,,,,,,,,,,,,,,,,,,,,,,,,,,,,,,,30.37531189993024,30.391391600016505,30.87528629996814,30.87528629996814,30.87528629996814,30.87528629996814,30.891410099924542,31.174901699996553,31.174901699996553,31.174901699996553,31.55929499992635,z,0.6754150000633672,None,31.55954149994068,31.575106199947186,32.57570399995893,32.559546099975705,,,,,,,,,,,,,,,,,,,,,,,,,,,,,,,,,,,,,,,,,,,,,,,,,,,,,,,,,,,,,,,,,,,,,,,,,,,,,,,,,,,,b_1_,001,2024-11-27_10h43.50.038,untitled,2024.1.5,None,2024-11-27 10h44.05.490984 +0530,
square.png,you,1,M,,,,,1,2,6,0,,,,,,,,,,,,,32.57570399995893,,,,,,,,,,,,,,,,,,,,,,,,,,,,,,,,,,32.559775899979286,32.57570399995893,33.05932879995089,33.05932879995089,33.05932879995089,33.05932879995089,33.075877900002524,33.35950779996347,33.35950779996347,33.35950779996347,33.89381919999141,m,0.8288873999845237,None,33.89405959995929,33.909827499999665,34.91041559993755,34.894145599915646,,,,,,,,,,,,,,,,,,,,,,,,,,,,,,,,,,,,,,,,,,,,,,,,,,,,,,,,,,,,,,,,,,,,,,,,,,,,,,,,,,,,b_1_,001,2024-11-27_10h43.50.038,untitled,2024.1.5,None,2024-11-27 10h44.05.490984 +0530,
square.png,stranger,0,Z,,,,,1,3,7,2,,,,,,,,,,,,,34.91041559993755,,,,,,,,,,,,,,,,,,,,,,,,,,,,,,,,,,34.89437509991694,34.91041559993755,35.39403339999262,35.39403339999262,35.39403339999262,35.39403339999262,35.41046719998121,35.69427139998879,35.69427139998879,35.69427139998879,35.87803869997151,z,0.4816961999749765,None,35.87827919994015,35.894198299967684,36.894612699979916,36.878448299947195,,,,,,,,,,,,,,,,,,,,,,,,,,,,,,,,,,,,,,,,,,,,,,,,,,,,,,,,,,,,,,,,,,,,,,,,,,,,,,,,,,,,b_1_,001,2024-11-27_10h43.50.038,untitled,2024.1.5,None,2024-11-27 10h44.05.490984 +0530,
square.png,stranger,0,Z,,,,,2,0,8,2,,,,,,,,,,,,,36.894612699979916,,,,,,,,,,,,,,,,,,,,,,,,,,,,,,,,,,36.87867649993859,36.894612699979916,37.378220699960366,37.378220699960366,37.378220699960366,37.378220699960366,37.394778799964115,37.67821309994906,37.67821309994906,37.67821309994906,38.04577269998845,z,0.661872599972412,None,38.04601329995785,38.06171389995143,39.0626026999671,39.0460718999384,,,,,,,,,,,,,,,,,,,,,,,,,,,,,,,,,,,,,,,,,,,,,,,,,,,,,,,,,,,,,,,,,,,,,,,,,,,,,,,,,,,,b_1_,001,2024-11-27_10h43.50.038,untitled,2024.1.5,None,2024-11-27 10h44.05.490984 +0530,
triangle.png,you,0,Z,,,,,2,1,9,3,,,,,,,,,,,,,39.0626026999671,,,,,,,,,,,,,,,,,,,,,,,,,,,,,,,,,,39.04630239994731,39.0626026999671,39.54622569994535,39.54622569994535,39.54622569994535,39.54622569994535,39.56289159995504,39.845951700001024,39.845951700001024,39.845951700001024,39.96340489992872,m,0.4124651000602171,None,39.963664799928665,39.97917419997975,40.979769599973224,40.96367420000024,,,,,,,,,,,,,,,,,,,,,,,,,,,,,,,,,,,,,,,,,,,,,,,,,,,,,,,,,,,,,,,,,,,,,,,,,,,,,,,,,,,,b_1_,001,2024-11-27_10h43.50.038,untitled,2024.1.5,None,2024-11-27 10h44.05.490984 +0530,
triangle.png,stranger,1,M,,,,,2,2,10,1,,,,,,,,,,,,,40.979769599973224,,,,,,,,,,,,,,,,,,,,,,,,,,,,,,,,,,40.96391459996812,40.979769599973224,41.46387939993292,41.46387939993292,41.46387939993292,41.46387939993292,41.4802205999149,41.76381969999056,41.76381969999056,41.76381969999056,41.86436359991785,z,0.3919373000971973,None,41.86460440000519,41.880571999936365,42.88115989998914,42.864761199918576,,,,,,,,,,,,,,,,,,,,,,,,,,,,,,,,,,,,,,,,,,,,,,,,,,,,,,,,,,,,,,,,,,,,,,,,,,,,,,,,,,,,b_1_,001,2024-11-27_10h43.50.038,untitled,2024.1.5,None,2024-11-27 10h44.05.490984 +0530,
square.png,you,1,M,,,,,2,3,11,0,,,,,,,,,,,,,42.88115989998914,,,,,,,,,,,,,,,,,,,,,,,,,,,,,,,,,,42.864990299916826,42.88115989998914,43.36445100000128,43.36445100000128,43.36445100000128,43.36445100000128,43.38134999992326,43.66484029998537,43.66484029998537,43.66484029998537,44.44897749996744,None,,,44.449104300001636,44.465044699958526,45.4658163000131,45.44941709993873,44.465044699958526,,,,,,,,,,,,,,,,,,,,,,,,,,,,,,,,,,,,,,,,,,,,,,,,,,,,,,,,,,,,,,,,,,,,,,,,,,,,,,,,,,,b_1_,001,2024-11-27_10h43.50.038,untitled,2024.1.5,None,2024-11-27 10h44.05.490984 +0530,
triangle.png,stranger,1,M,,,,,3,0,12,1,,,,,,,,,,,,,45.4658163000131,,,,,,,,,,,,,,,,,,,,,,,,,,,,,,,,,,45.44964549993165,45.4658163000131,45.96589679992758,45.96589679992758,45.96589679992758,45.96589679992758,45.96589679992758,46.26607339992188,46.26607339992188,46.26607339992188,46.71700959990267,z,0.7453867000294849,None,46.71724929998163,46.733163799974136,47.733440899988636,47.71725799993146,,,,,,,,,,,,,,,,,,,,,,,,,,,,,,,,,,,,,,,,,,,,,,,,,,,,,,,,,,,,,,,,,,,,,,,,,,,,,,,,,,,,b_1_,001,2024-11-27_10h43.50.038,untitled,2024.1.5,None,2024-11-27 10h44.05.490984 +0530,
square.png,stranger,0,Z,,,,,3,1,13,2,,,,,,,,,,,,,47.733440899988636,,,,,,,,,,,,,,,,,,,,,,,,,,,,,,,,,,47.71748759993352,47.733440899988636,48.21686069993302,48.21686069993302,48.21686069993302,48.21686069993302,48.23343369993381,48.51686510001309,48.51686510001309,48.51686510001309,49.03482639999129,z,0.8151833999436349,None,49.03507569991052,49.05060690001119,50.05130069993902,50.0350529999705,,,,,,,,,,,,,,,,,,,,,,,,,,,,,,,,,,,,,,,,,,,,,,,,,,,,,,,,,,,,,,,,,,,,,,,,,,,,,,,,,,,,b_1_,001,2024-11-27_10h43.50.038,untitled,2024.1.5,None,2024-11-27 10h44.05.490984 +0530,
square.png,you,1,M,,,,,3,2,14,0,,,,,,,,,,,,,50.05130069993902,,,,,,,,,,,,,,,,,,,,,,,,,,,,,,,,,,50.03528269997332,50.05130069993902,50.53505219996441,50.53505219996441,50.53505219996441,50.53505219996441,50.551737800007686,50.83497480000369,50.83497480000369,50.83497480000369,51.15289359993767,m,0.6075754000339657,None,51.15313320001587,51.16855800000485,52.169175799936056,52.152698099962436,,,,,,,,,,,,,,,,,,,,,,,,,,,,,,,,,,,,,,,,,,,,,,,,,,,,,,,,,,,,,,,,,,,,,,,,,,,,,,,,,,,,b_1_,001,2024-11-27_10h43.50.038,untitled,2024.1.5,None,2024-11-27 10h44.05.490984 +0530,
triangle.png,you,0,Z,,,,,3,3,15,3,,,,,,,,,,,,,52.169175799936056,,,,,,,,,,,,,,,,,,,,,,,,,,,,,,,,,,52.15292759996373,52.169175799936056,52.65274369996041,52.65274369996041,52.65274369996041,52.65274369996041,52.669314199942164,52.95291280001402,52.95291280001402,52.95291280001402,53.45360709994566,z,0.7946451000170782,None,53.453848799923435,53.46946950000711,54.469915799913,54.453719899989665,,,,,,,,,,,,,,,,,,,,,,,,,,,,,,,,,,,,,,,,,,,,,,,,,,,,,,,,,,,,,,,,,,,,,,,,,,,,,,,,,,,,b_1_,001,2024-11-27_10h43.50.038,untitled,2024.1.5,None,2024-11-27 10h44.05.490984 +0530,
square.png,stranger,0,Z,,,,,4,0,16,2,,,,,,,,,,,,,54.469915799913,,,,,,,,,,,,,,,,,,,,,,,,,,,,,,,,,,54.453955499920994,54.469915799913,54.953997000004165,54.953997000004165,54.953997000004165,54.953997000004165,54.970469999942,55.25405160000082,55.25405160000082,55.25405160000082,55.90511399996467,m,0.9493432999588549,None,55.90535809996072,55.92113689996768,56.92168239993043,56.90521799994167,,,,,,,,,,,,,,,,,,,,,,,,,,,,,,,,,,,,,,,,,,,,,,,,,,,,,,,,,,,,,,,,,,,,,,,,,,,,,,,,,,,,b_1_,001,2024-11-27_10h43.50.038,untitled,2024.1.5,None,2024-11-27 10h44.05.490984 +0530,
triangle.png,stranger,1,M,,,,,4,1,17,1,,,,,,,,,,,,,56.92168239993043,,,,,,,,,,,,,,,,,,,,,,,,,,,,,,,,,,56.90544769994449,56.92168239993043,57.40516470000148,57.40516470000148,57.40516470000148,57.40516470000148,57.42198639991693,57.70521669997834,57.70521669997834,57.70521669997834,58.15628419991117,m,0.7419132000068203,None,58.15652339998633,58.17202019994147,59.17260309995618,59.15648769994732,,,,,,,,,,,,,,,,,,,,,,,,,,,,,,,,,,,,,,,,,,,,,,,,,,,,,,,,,,,,,,,,,,,,,,,,,,,,,,,,,,,,b_1_,001,2024-11-27_10h43.50.038,untitled,2024.1.5,None,2024-11-27 10h44.05.490984 +0530,
triangle.png,you,0,Z,,,,,4,2,18,3,,,,,,,,,,,,,59.17260309995618,,,,,,,,,,,,,,,,,,,,,,,,,,,,,,,,,,59.156714399927296,59.17260309995618,59.65627129992936,59.65627129992936,59.65627129992936,59.65627129992936,59.6729085999541,59.956243699998595,59.956243699998595,59.956243699998595,60.340767099987715,z,0.6755423999857157,None,60.34100599994417,60.356718899914995,61.35711639991496,61.34097259992268,,,,,,,,,,,,,,,,,,,,,,,,,,,,,,,,,,,,,,,,,,,,,,,,,,,,,,,,,,,,,,,,,,,,,,,,,,,,,,,,,,,,b_1_,001,2024-11-27_10h43.50.038,untitled,2024.1.5,None,2024-11-27 10h44.05.490984 +0530,
square.png,you,1,M,,,,,4,3,19,0,,,,,,,,,,,,,61.35711639991496,,,,,,,,,,,,,,,,,,,,,,,,,,,,,,,,,,61.34120149991941,61.35711639991496,61.84071339992806,61.84071339992806,61.84071339992806,61.84071339992806,61.857389799901284,62.14082319999579,62.14082319999579,62.14082319999579,62.44178519991692,m,0.5980392000637949,None,62.442026900011115,62.457836799905635,63.45815720001701,63.44206959998701,,,,,,,,,,,,,,,,,,,,,,,,,,,,,,,,,,,,,,,,,,,,,,,,,,,,,,,,,,,,,,,,,,,,,,,,,,,,,,,,,,,,b_1_,001,2024-11-27_10h43.50.038,untitled,2024.1.5,None,2024-11-27 10h44.05.490984 +0530,
,,,,,,,,,,,,,,,,,,,,,,,,,,,,,,,,,,,,,,,,,,,,,,,,,,,,,,,,,,,,,,,,,,,,,,,,,,,,,63.442116699996404,63.45815720001701,63.45815720001701,64.49289049999788,space,1.0250385999679565,None,,,,,,,,,,,,,,,,,,,,,,,,,,,,,,,,,,,,,,,,,,,,,,,,,,,,,,,,,,,,,,,,,,,,,,,,,,,,b_1_,001,2024-11-27_10h43.50.038,untitled,2024.1.5,None,2024-11-27 10h44.05.490984 +0530,
square.png,you,1,M,,,,,,,,,0,0,0,0,,,,,,,,,64.50873679993674,,,,,,,,,,,,,,,,,,,,,,,,,,,,,,,,,,64.49819179996848,64.50873679993674,64.99261449999176,64.99261449999176,64.99261449999176,64.99261449999176,65.00928250001743,65.29232239990961,65.29232239990961,65.29232239990961,66.0269770999439,m,1.0179983000271022,None,66.02763719996437,66.04284050001297,67.04338259994984,67.02712340001017,,,,,,,,,,,,,,,,,,,,,,,,,,,,,,,,,,,,,,,,,,,,,,,,,,,,,,,,,,,,,,,,,,,,,,,,,,,,,,,,,,,,b_1_,001,2024-11-27_10h43.50.038,untitled,2024.1.5,None,2024-11-27 10h44.05.490984 +0530,
triangle.png,you,0,Z,,,,,,,,,0,1,1,3,,,,,,,,,67.04338259994984,,,,,,,,,,,,,,,,,,,,,,,,,,,,,,,,,,67.02753049996682,67.04338259994984,67.52702789998148,67.52702789998148,67.52702789998148,67.52702789998148,67.54361719998997,67.8267164999852,67.8267164999852,67.8267164999852,68.244590499904,z,0.7126019999850541,None,68.24501680000685,68.26075269991998,69.26096629991662,69.24486879992764,,,,,,,,,,,,,,,,,,,,,,,,,,,,,,,,,,,,,,,,,,,,,,,,,,,,,,,,,,,,,,,,,,,,,,,,,,,,,,,,,,,,b_1_,001,2024-11-27_10h43.50.038,untitled,2024.1.5,None,2024-11-27 10h44.05.490984 +0530,
square.png,stranger,0,Z,,,,,,,,,0,2,2,2,,,,,,,,,69.26096629991662,,,,,,,,,,,,,,,,,,,,,,,,,,,,,,,,,,69.24521939991973,69.26096629991662,69.74472529999912,69.74472529999912,69.74472529999912,69.74472529999912,69.76136879995465,70.04478719993494,70.04478719993494,70.04478719993494,70.36233329994138,z,0.6153374999994412,None,70.36274639994372,70.37837079993915,71.37875829997938,71.36282439995557,,,,,,,,,,,,,,,,,,,,,,,,,,,,,,,,,,,,,,,,,,,,,,,,,,,,,,,,,,,,,,,,,,,,,,,,,,,,,,,,,,,,b_1_,001,2024-11-27_10h43.50.038,untitled,2024.1.5,None,2024-11-27 10h44.05.490984 +0530,
triangle.png,stranger,1,M,,,,,,,,,0,3,3,1,,,,,,,,,71.37875829997938,,,,,,,,,,,,,,,,,,,,,,,,,,,,,,,,,,71.36317119991872,71.37875829997938,71.86273339996114,71.86273339996114,71.86273339996114,71.86273339996114,71.8791898000054,72.16274980001617,72.16274980001617,72.16274980001617,72.94685860001482,None,,,72.94704479991924,72.96321720001288,73.96369279990904,73.94751039997209,72.96321720001288,,,,,,,,,,,,,,,,,,,,,,,,,,,,,,,,,,,,,,,,,,,,,,,,,,,,,,,,,,,,,,,,,,,,,,,,,,,,,,,,,,,b_1_,001,2024-11-27_10h43.50.038,untitled,2024.1.5,None,2024-11-27 10h44.05.490984 +0530,
square.png,stranger,0,Z,,,,,,,,,1,0,4,2,,,,,,,,,73.96369279990904,,,,,,,,,,,,,,,,,,,,,,,,,,,,,,,,,,73.94785949995276,73.96369279990904,74.46394099993631,74.46394099993631,74.46394099993631,74.46394099993631,74.46394099993631,74.76390869996976,74.76390869996976,74.76390869996976,75.31489419995341,z,0.8352097000461072,None,75.3153120999923,75.33103769994341,76.33141719992273,76.31513239990454,,,,,,,,,,,,,,,,,,,,,,,,,,,,,,,,,,,,,,,,,,,,,,,,,,,,,,,,,,,,,,,,,,,,,,,,,,,,,,,,,,,,b_1_,001,2024-11-27_10h43.50.038,untitled,2024.1.5,None,2024-11-27 10h44.05.490984 +0530,
square.png,you,1,M,,,,,,,,,1,1,5,0,,,,,,,,,76.33141719992273,,,,,,,,,,,,,,,,,,,,,,,,,,,,,,,,,,76.3154760999605,76.33141719992273,76.81540700001642,76.81540700001642,76.81540700001642,76.81540700001642,76.83174860000145,77.11519069992937,77.11519069992937,77.11519069992937,77.44960109994281,m,0.620673600002192,None,77.4500226000091,77.46533409995027,78.46574129990768,78.44960980000906,,,,,,,,,,,,,,,,,,,,,,,,,,,,,,,,,,,,,,,,,,,,,,,,,,,,,,,,,,,,,,,,,,,,,,,,,,,,,,,,,,,,b_1_,001,2024-11-27_10h43.50.038,untitled,2024.1.5,None,2024-11-27 10h44.05.490984 +0530,
triangle.png,you,0,Z,,,,,,,,,1,2,6,3,,,,,,,,,78.46574129990768,,,,,,,,,,,,,,,,,,,,,,,,,,,,,,,,,,78.44996469991747,78.46574129990768,78.94971059996169,78.94971059996169,78.94971059996169,78.94971059996169,78.9662974999519,79.24961429997347,79.24961429997347,79.24961429997347,79.58382800000254,z,0.6222356000216678,None,79.58424869994633,79.59977669990622,80.60037409991492,80.58407370001078,,,,,,,,,,,,,,,,,,,,,,,,,,,,,,,,,,,,,,,,,,,,,,,,,,,,,,,,,,,,,,,,,,,,,,,,,,,,,,,,,,,,b_1_,001,2024-11-27_10h43.50.038,untitled,2024.1.5,None,2024-11-27 10h44.05.490984 +0530,
triangle.png,stranger,1,M,,,,,,,,,1,3,7,1,,,,,,,,,80.60037409991492,,,,,,,,,,,,,,,,,,,,,,,,,,,,,,,,,,80.58442389999982,80.60037409991492,81.08419059996959,81.08419059996959,81.08419059996959,81.08419059996959,81.10059099993668,81.38396179990377,81.38396179990377,81.38396179990377,81.45147309999447,m,0.363179299980402,None,81.45188899990171,81.46740039996803,82.46793149993755,82.45168860000558,,,,,,,,,,,,,,,,,,,,,,,,,,,,,,,,,,,,,,,,,,,,,,,,,,,,,,,,,,,,,,,,,,,,,,,,,,,,,,,,,,,,b_1_,001,2024-11-27_10h43.50.038,untitled,2024.1.5,None,2024-11-27 10h44.05.490984 +0530,
triangle.png,you,0,Z,,,,,,,,,2,0,8,3,,,,,,,,,82.46793149993755,,,,,,,,,,,,,,,,,,,,,,,,,,,,,,,,,,82.45203299995046,82.46793149993755,82.95177249994595,82.95177249994595,82.95177249994595,82.95177249994595,82.96818899991922,83.25177129998337,83.25177129998337,83.25177129998337,83.55272739997599,z,0.5988018000498414,None,83.55314189998899,83.56848549994174,84.5691789999837,84.5527353999205,,,,,,,,,,,,,,,,,,,,,,,,,,,,,,,,,,,,,,,,,,,,,,,,,,,,,,,,,,,,,,,,,,,,,,,,,,,,,,,,,,,,b_1_,001,2024-11-27_10h43.50.038,untitled,2024.1.5,None,2024-11-27 10h44.05.490984 +0530,
square.png,stranger,0,Z,,,,,,,,,2,1,9,2,,,,,,,,,84.5691789999837,,,,,,,,,,,,,,,,,,,,,,,,,,,,,,,,,,84.5530807999894,84.5691789999837,85.0527481000172,85.0527481000172,85.0527481000172,85.0527481000172,85.06950509990565,85.35273949999828,85.35273949999828,85.35273949999828,85.92052899999544,z,0.8664215999888256,None,85.92095269996207,85.93669359991327,86.93682359997183,86.92065759992693,,,,,,,,,,,,,,,,,,,,,,,,,,,,,,,,,,,,,,,,,,,,,,,,,,,,,,,,,,,,,,,,,,,,,,,,,,,,,,,,,,,,b_1_,001,2024-11-27_10h43.50.038,untitled,2024.1.5,None,2024-11-27 10h44.05.490984 +0530,
triangle.png,stranger,1,M,,,,,,,,,2,2,10,1,,,,,,,,,86.93682359997183,,,,,,,,,,,,,,,,,,,,,,,,,,,,,,,,,,86.92100709991064,86.93682359997183,87.42056539992336,87.42056539992336,87.42056539992336,87.42056539992336,87.43720669997856,87.72054169990588,87.72054169990588,87.72054169990588,88.33839920000173,m,0.9072291000047699,None,88.33882379997522,88.35417139995843,89.35477959993295,89.33859769999981,,,,,,,,,,,,,,,,,,,,,,,,,,,,,,,,,,,,,,,,,,,,,,,,,,,,,,,,,,,,,,,,,,,,,,,,,,,,,,,,,,,,b_1_,001,2024-11-27_10h43.50.038,untitled,2024.1.5,None,2024-11-27 10h44.05.490984 +0530,
square.png,you,1,M,,,,,,,,,2,3,11,0,,,,,,,,,89.35477959993295,,,,,,,,,,,,,,,,,,,,,,,,,,,,,,,,,,89.33894789998885,89.35477959993295,89.83870149997529,89.83870149997529,89.83870149997529,89.83870149997529,89.85529689991381,90.13861489994451,90.13861489994451,90.13861489994451,90.45594409992918,z,0.6051518999738619,None,90.45636329997797,90.47204509994481,91.47243429999799,91.45641799992882,,,,,,,,,,,,,,,,,,,,,,,,,,,,,,,,,,,,,,,,,,,,,,,,,,,,,,,,,,,,,,,,,,,,,,,,,,,,,,,,,,,,b_1_,001,2024-11-27_10h43.50.038,untitled,2024.1.5,None,2024-11-27 10h44.05.490984 +0530,
triangle.png,you,0,Z,,,,,,,,,3,0,12,3,,,,,,,,,91.47243429999799,,,,,,,,,,,,,,,,,,,,,,,,,,,,,,,,,,91.45676979993004,91.47243429999799,91.95641240000259,91.95641240000259,91.95641240000259,91.95641240000259,91.97305789997336,92.25624799996149,92.25624799996149,92.25624799996149,92.89082089997828,z,0.9229792000260204,None,92.89124589995481,92.90679009992164,93.90718340000603,93.89106439996976,,,,,,,,,,,,,,,,,,,,,,,,,,,,,,,,,,,,,,,,,,,,,,,,,,,,,,,,,,,,,,,,,,,,,,,,,,,,,,,,,,,,b_1_,001,2024-11-27_10h43.50.038,untitled,2024.1.5,None,2024-11-27 10h44.05.490984 +0530,
square.png,stranger,0,Z,,,,,,,,,3,1,13,2,,,,,,,,,93.90718340000603,,,,,,,,,,,,,,,,,,,,,,,,,,,,,,,,,,93.89141139993444,93.90718340000603,94.39108570001554,94.39108570001554,94.39108570001554,94.39108570001554,94.40741059998982,94.69079209992196,94.69079209992196,94.69079209992196,95.10850380000193,z,0.7088079999666661,None,95.10893439990468,95.12426289997529,96.1253471999662,96.1090463999426,,,,,,,,,,,,,,,,,,,,,,,,,,,,,,,,,,,,,,,,,,,,,,,,,,,,,,,,,,,,,,,,,,,,,,,,,,,,,,,,,,,,b_1_,001,2024-11-27_10h43.50.038,untitled,2024.1.5,None,2024-11-27 10h44.05.490984 +0530,
square.png,you,1,M,,,,,,,,,3,2,14,0,,,,,,,,,96.1253471999662,,,,,,,,,,,,,,,,,,,,,,,,,,,,,,,,,,96.10941459995229,96.1253471999662,96.60888800001703,96.60888800001703,96.60888800001703,96.60888800001703,96.62526839994825,96.90854799991939,96.90854799991939,96.90854799991939,97.07616489997599,m,0.46616750000976026,None,97.07659770001192,97.09208979993127,98.09257440001238,98.07643319992349,,,,,,,,,,,,,,,,,,,,,,,,,,,,,,,,,,,,,,,,,,,,,,,,,,,,,,,,,,,,,,,,,,,,,,,,,,,,,,,,,,,,b_1_,001,2024-11-27_10h43.50.038,untitled,2024.1.5,None,2024-11-27 10h44.05.490984 +0530,
triangle.png,stranger,1,M,,,,,,,,,3,3,15,1,,,,,,,,,98.09257440001238,,,,,,,,,,,,,,,,,,,,,,,,,,,,,,,,,,98.07677589997184,98.09257440001238,98.57635989994742,98.57635989994742,98.57635989994742,98.57635989994742,98.59295919991564,98.87629339995328,98.87629339995328,98.87629339995328,99.12728189991321,m,0.5478093000128865,None,99.12769519991707,99.14339109999128,100.14364549994934,100.12750870001037,,,,,,,,,,,,,,,,,,,,,,,,,,,,,,,,,,,,,,,,,,,,,,,,,,,,,,,,,,,,,,,,,,,,,,,,,,,,,,,,,,,,b_1_,001,2024-11-27_10h43.50.038,untitled,2024.1.5,None,2024-11-27 10h44.05.490984 +0530,
square.png,stranger,0,Z,,,,,,,,,4,0,16,2,,,,,,,,,100.14364549994934,,,,,,,,,,,,,,,,,,,,,,,,,,,,,,,,,,100.12785279995296,100.14364549994934,100.62738029996399,100.62738029996399,100.62738029996399,100.62738029996399,100.64378799998667,100.92731569998432,100.92731569998432,100.92731569998432,101.71167729992885,None,,,101.71186069992837,101.72799129993655,102.72825389995705,102.71218959998805,101.72799129993655,,,,,,,,,,,,,,,,,,,,,,,,,,,,,,,,,,,,,,,,,,,,,,,,,,,,,,,,,,,,,,,,,,,,,,,,,,,,,,,,,,,b_1_,001,2024-11-27_10h43.50.038,untitled,2024.1.5,None,2024-11-27 10h44.05.490984 +0530,
triangle.png,you,0,Z,,,,,,,,,4,1,17,3,,,,,,,,,102.72825389995705,,,,,,,,,,,,,,,,,,,,,,,,,,,,,,,,,,102.71253859996796,102.72825389995705,103.22900819999631,103.22900819999631,103.22900819999631,103.22900819999631,103.22900819999631,103.5286277999403,103.5286277999403,103.5286277999403,103.97990299994126,m,0.7464698000112548,None,103.98031899996568,103.99562319996767,104.99626479996368,104.98001309996471,,,,,,,,,,,,,,,,,,,,,,,,,,,,,,,,,,,,,,,,,,,,,,,,,,,,,,,,,,,,,,,,,,,,,,,,,,,,,,,,,,,,b_1_,001,2024-11-27_10h43.50.038,untitled,2024.1.5,None,2024-11-27 10h44.05.490984 +0530,
square.png,you,1,M,,,,,,,,,4,2,18,0,,,,,,,,,104.99626479996368,,,,,,,,,,,,,,,,,,,,,,,,,,,,,,,,,,104.98036349995527,104.99626479996368,105.4799447999103,105.4799447999103,105.4799447999103,105.4799447999103,105.49671360000502,105.77997019991744,105.77997019991744,105.77997019991744,106.34766979992855,m,0.8554077999433503,None,106.34808679996058,106.36392999999225,107.3641978999367,107.34777559991926,,,,,,,,,,,,,,,,,,,,,,,,,,,,,,,,,,,,,,,,,,,,,,,,,,,,,,,,,,,,,,,,,,,,,,,,,,,,,,,,,,,,b_1_,001,2024-11-27_10h43.50.038,untitled,2024.1.5,None,2024-11-27 10h44.05.490984 +0530,
triangle.png,stranger,1,M,,,,,,,,,4,3,19,1,,,,,,,,,107.3641978999367,,,,,,,,,,,,,,,,,,,,,,,,,,,,,,,,,,107.34811889997218,107.3641978999367,107.84772929991595,107.84772929991595,107.84772929991595,107.84772929991595,107.86436989996582,108.14748219994362,108.14748219994362,108.14748219994362,108.38186329999007,m,0.5202201000647619,None,108.38228759996127,108.39807319990359,109.39850639994256,109.38216059992556,,,,,,,,,,,,,,,,,,,,,,,,,,,,,,,,,,,,,,,,,,,,,,,,,,,,,,,,,,,,,,,,,,,,,,,,,,,,,,,,,,,,b_1_,001,2024-11-27_10h43.50.038,untitled,2024.1.5,None,2024-11-27 10h44.05.490984 +0530,
square.png,you,1,M,,,,,,,,,5,0,20,0,,,,,,,,,109.39850639994256,,,,,,,,,,,,,,,,,,,,,,,,,,,,,,,,,,109.38250790000893,109.39850639994256,109.8821922999341,109.8821922999341,109.8821922999341,109.8821922999341,109.89867099991534,110.18209119990934,110.18209119990934,110.18209119990934,110.499858199968,m,0.6050440000835806,None,110.5002771000145,110.51574669999536,111.516218499979,111.49996769998688,,,,,,,,,,,,,,,,,,,,,,,,,,,,,,,,,,,,,,,,,,,,,,,,,,,,,,,,,,,,,,,,,,,,,,,,,,,,,,,,,,,,b_1_,001,2024-11-27_10h43.50.038,untitled,2024.1.5,None,2024-11-27 10h44.05.490984 +0530,
square.png,stranger,0,Z,,,,,,,,,5,1,21,2,,,,,,,,,111.516218499979,,,,,,,,,,,,,,,,,,,,,,,,,,,,,,,,,,111.50032429990824,111.516218499979,111.99984830000903,111.99984830000903,111.99984830000903,111.99984830000903,112.01678249996621,112.30002799991053,112.30002799991053,112.30002799991053,112.56733200000599,z,0.5644286000169814,None,112.56775429996196,112.5835809999844,113.58392909995746,113.56767209991813,,,,,,,,,,,,,,,,,,,,,,,,,,,,,,,,,,,,,,,,,,,,,,,,,,,,,,,,,,,,,,,,,,,,,,,,,,,,,,,,,,,,b_1_,001,2024-11-27_10h43.50.038,untitled,2024.1.5,None,2024-11-27 10h44.05.490984 +0530,
triangle.png,stranger,1,M,,,,,,,,,5,2,22,1,,,,,,,,,113.58392909995746,,,,,,,,,,,,,,,,,,,,,,,,,,,,,,,,,,113.56802179990336,113.58392909995746,114.06759300001431,114.06759300001431,114.06759300001431,114.06759300001431,114.08448520000093,114.36754020000808,114.36754020000808,114.36754020000808,114.81875169998966,m,0.7397439999040216,None,114.81917079992127,114.83480419998523,115.83499120001215,115.81894689996261,,,,,,,,,,,,,,,,,,,,,,,,,,,,,,,,,,,,,,,,,,,,,,,,,,,,,,,,,,,,,,,,,,,,,,,,,,,,,,,,,,,,b_1_,001,2024-11-27_10h43.50.038,untitled,2024.1.5,None,2024-11-27 10h44.05.490984 +0530,
triangle.png,you,0,Z,,,,,,,,,5,3,23,3,,,,,,,,,115.83499120001215,,,,,,,,,,,,,,,,,,,,,,,,,,,,,,,,,,115.81929809995927,115.83499120001215,116.31882779998705,116.31882779998705,116.31882779998705,116.31882779998705,116.33542029990349,116.6188705000095,116.6188705000095,116.6188705000095,116.8862801999785,z,0.5644377999706194,None,116.88669829990249,116.9024712999817,117.90279660001397,117.88651749992277,,,,,,,,,,,,,,,,,,,,,,,,,,,,,,,,,,,,,,,,,,,,,,,,,,,,,,,,,,,,,,,,,,,,,,,,,,,,,,,,,,,,b_1_,001,2024-11-27_10h43.50.038,untitled,2024.1.5,None,2024-11-27 10h44.05.490984 +0530,
triangle.png,stranger,1,M,,,,,,,,,6,0,24,1,,,,,,,,,117.90279660001397,,,,,,,,,,,,,,,,,,,,,,,,,,,,,,,,,,117.88686500000767,117.90279660001397,118.38646169996355,118.38646169996355,118.38646169996355,118.38646169996355,118.40326539997477,118.68679609999526,118.68679609999526,118.68679609999526,119.00414360000286,m,0.6053010000614449,None,119.00457489991095,119.02015299990308,120.02049179992173,120.004471299937,,,,,,,,,,,,,,,,,,,,,,,,,,,,,,,,,,,,,,,,,,,,,,,,,,,,,,,,,,,,,,,,,,,,,,,,,,,,,,,,,,,,b_1_,001,2024-11-27_10h43.50.038,untitled,2024.1.5,None,2024-11-27 10h44.05.490984 +0530,
square.png,you,1,M,,,,,,,,,6,1,25,0,,,,,,,,,120.02049179992173,,,,,,,,,,,,,,,,,,,,,,,,,,,,,,,,,,120.0048202999169,120.02049179992173,120.50455479999073,120.50455479999073,120.50455479999073,120.50455479999073,120.52110969997011,120.80425169994123,120.80425169994123,120.80425169994123,121.27206489990931,m,0.7515543999616057,None,121.27248259994667,121.28798529994674,122.28851059998851,122.27221089997329,,,,,,,,,,,,,,,,,,,,,,,,,,,,,,,,,,,,,,,,,,,,,,,,,,,,,,,,,,,,,,,,,,,,,,,,,,,,,,,,,,,,b_1_,001,2024-11-27_10h43.50.038,untitled,2024.1.5,None,2024-11-27 10h44.05.490984 +0530,
triangle.png,you,0,Z,,,,,,,,,6,2,26,3,,,,,,,,,122.28851059998851,,,,,,,,,,,,,,,,,,,,,,,,,,,,,,,,,,122.2725564999273,122.28851059998851,122.77210119995289,122.77210119995289,122.77210119995289,122.77210119995289,122.78867969999555,123.0722668999806,123.0722668999806,123.0722668999806,123.35624319990166,z,0.574605799978599,None,123.35665649990551,123.37241449998692,124.37297939998098,124.35668199998327,,,,,,,,,,,,,,,,,,,,,,,,,,,,,,,,,,,,,,,,,,,,,,,,,,,,,,,,,,,,,,,,,,,,,,,,,,,,,,,,,,,,b_1_,001,2024-11-27_10h43.50.038,untitled,2024.1.5,None,2024-11-27 10h44.05.490984 +0530,
square.png,stranger,0,Z,,,,,,,,,6,3,27,2,,,,,,,,,124.37297939998098,,,,,,,,,,,,,,,,,,,,,,,,,,,,,,,,,,124.35702829994261,124.37297939998098,124.8563853999367,124.8563853999367,124.8563853999367,124.8563853999367,124.8732501999475,125.15669979993254,125.15669979993254,125.15669979993254,125.54099469992798,z,0.6713582000229508,None,125.54141399997752,125.55672300001606,126.55714749998879,126.54100879991893,,,,,,,,,,,,,,,,,,,,,,,,,,,,,,,,,,,,,,,,,,,,,,,,,,,,,,,,,,,,,,,,,,,,,,,,,,,,,,,,,,,,b_1_,001,2024-11-27_10h43.50.038,untitled,2024.1.5,None,2024-11-27 10h44.05.490984 +0530,
triangle.png,you,0,Z,,,,,,,,,7,0,28,3,,,,,,,,,126.55714749998879,,,,,,,,,,,,,,,,,,,,,,,,,,,,,,,,,,126.5413574000122,126.55714749998879,127.04098920000251,127.04098920000251,127.04098920000251,127.04098920000251,127.05760469997767,127.34091509995051,127.34091509995051,127.34091509995051,128.02555259992369,m,0.9829520999919623,None,128.02597359998617,128.04139739996754,129.04178749991115,129.02563920000102,,,,,,,,,,,,,,,,,,,,,,,,,,,,,,,,,,,,,,,,,,,,,,,,,,,,,,,,,,,,,,,,,,,,,,,,,,,,,,,,,,,,b_1_,001,2024-11-27_10h43.50.038,untitled,2024.1.5,None,2024-11-27 10h44.05.490984 +0530,
square.png,stranger,0,Z,,,,,,,,,7,1,29,2,,,,,,,,,129.04178749991115,,,,,,,,,,,,,,,,,,,,,,,,,,,,,,,,,,129.0259869999718,129.04178749991115,129.52554669999518,129.52554669999518,129.52554669999518,129.52554669999518,129.5421177999815,129.8252352999989,129.8252352999989,129.8252352999989,130.47655009990558,z,0.9495134999742731,None,130.47697299998254,130.49266220000573,131.49334439996164,131.47702589991968,,,,,,,,,,,,,,,,,,,,,,,,,,,,,,,,,,,,,,,,,,,,,,,,,,,,,,,,,,,,,,,,,,,,,,,,,,,,,,,,,,,,b_1_,001,2024-11-27_10h43.50.038,untitled,2024.1.5,None,2024-11-27 10h44.05.490984 +0530,
square.png,you,1,M,,,,,,,,,7,2,30,0,,,,,,,,,131.49334439996164,,,,,,,,,,,,,,,,,,,,,,,,,,,,,,,,,,131.47737199999392,131.49334439996164,131.97676439990755,131.97676439990755,131.97676439990755,131.97676439990755,131.99337209993973,132.2767214999767,132.2767214999767,132.2767214999767,132.61121329991147,m,0.6297661999706179,None,132.61166439997032,132.62701039994135,133.62749029998668,133.61134199996013,,,,,,,,,,,,,,,,,,,,,,,,,,,,,,,,,,,,,,,,,,,,,,,,,,,,,,,,,,,,,,,,,,,,,,,,,,,,,,,,,,,,b_1_,001,2024-11-27_10h43.50.038,untitled,2024.1.5,None,2024-11-27 10h44.05.490984 +0530,
triangle.png,stranger,1,M,,,,,,,,,7,3,31,1,,,,,,,,,133.62749029998668,,,,,,,,,,,,,,,,,,,,,,,,,,,,,,,,,,133.61168909992557,133.62749029998668,134.1113783000037,134.1113783000037,134.1113783000037,134.1113783000037,134.12779329996556,134.41144529997837,134.41144529997837,134.41144529997837,135.19554159999825,None,,,135.19573119992856,135.21184879995417,136.2123420999851,136.19609189999755,135.21184879995417,,,,,,,,,,,,,,,,,,,,,,,,,,,,,,,,,,,,,,,,,,,,,,,,,,,,,,,,,,,,,,,,,,,,,,,,,,,,,,,,,,,b_1_,001,2024-11-27_10h43.50.038,untitled,2024.1.5,None,2024-11-27 10h44.05.490984 +0530,
square.png,you,1,M,,,,,,,,,8,0,32,0,,,,,,,,,136.2123420999851,,,,,,,,,,,,,,,,,,,,,,,,,,,,,,,,,,136.19644169998355,136.2123420999851,136.71266129997093,136.71266129997093,136.71266129997093,136.71266129997093,136.71266129997093,137.01249889994506,137.01249889994506,137.01249889994506,137.54694229993038,m,0.8272575000301003,None,137.54735859995708,137.56291490001604,138.5635345999617,138.54732889996376,,,,,,,,,,,,,,,,,,,,,,,,,,,,,,,,,,,,,,,,,,,,,,,,,,,,,,,,,,,,,,,,,,,,,,,,,,,,,,,,,,,,b_1_,001,2024-11-27_10h43.50.038,untitled,2024.1.5,None,2024-11-27 10h44.05.490984 +0530,
triangle.png,you,0,Z,,,,,,,,,8,1,33,3,,,,,,,,,138.5635345999617,,,,,,,,,,,,,,,,,,,,,,,,,,,,,,,,,,138.54767559992615,138.5635345999617,139.04718799993861,139.04718799993861,139.04718799993861,139.04718799993861,139.06379319995176,139.34722869994584,139.34722869994584,139.34722869994584,139.53132169996388,z,0.47952130006160587,None,139.5317408000119,139.54743939999025,140.54786549997516,140.5317408000119,,,,,,,,,,,,,,,,,,,,,,,,,,,,,,,,,,,,,,,,,,,,,,,,,,,,,,,,,,,,,,,,,,,,,,,,,,,,,,,,,,,,b_1_,001,2024-11-27_10h43.50.038,untitled,2024.1.5,None,2024-11-27 10h44.05.490984 +0530,
square.png,stranger,0,Z,,,,,,,,,8,2,34,2,,,,,,,,,140.54786549997516,,,,,,,,,,,,,,,,,,,,,,,,,,,,,,,,,,140.53209039999638,140.54786549997516,141.03171969996765,141.03171969996765,141.03171969996765,141.03171969996765,141.04840779991355,141.33170079998672,141.33170079998672,141.33170079998672,142.04902779997792,z,1.0041231999639422,None,142.04946729994845,142.06532779999543,143.065667299903,143.04956349998247,,,,,,,,,,,,,,,,,,,,,,,,,,,,,,,,,,,,,,,,,,,,,,,,,,,,,,,,,,,,,,,,,,,,,,,,,,,,,,,,,,,,b_1_,001,2024-11-27_10h43.50.038,untitled,2024.1.5,None,2024-11-27 10h44.05.490984 +0530,
triangle.png,stranger,1,M,,,,,,,,,8,3,35,1,,,,,,,,,143.065667299903,,,,,,,,,,,,,,,,,,,,,,,,,,,,,,,,,,143.04991469997913,143.065667299903,143.549432199914,143.549432199914,143.549432199914,143.549432199914,143.56642039993312,143.84937589999754,143.84937589999754,143.84937589999754,144.06708989990875,m,0.5060679001035169,None,144.06750859995373,144.0829430000158,145.08354379993398,145.0672478999477,,,,,,,,,,,,,,,,,,,,,,,,,,,,,,,,,,,,,,,,,,,,,,,,,,,,,,,,,,,,,,,,,,,,,,,,,,,,,,,,,,,,b_1_,001,2024-11-27_10h43.50.038,untitled,2024.1.5,None,2024-11-27 10h44.05.490984 +0530,
triangle.png,stranger,1,M,,,,,,,,,9,0,36,1,,,,,,,,,145.08354379993398,,,,,,,,,,,,,,,,,,,,,,,,,,,,,,,,,,145.06759649992455,145.08354379993398,145.56713489990216,145.56713489990216,145.56713489990216,145.56713489990216,145.5837902999483,145.8671512999572,145.8671512999572,145.8671512999572,146.2849303999683,m,0.7086393000790849,None,146.28535809996538,146.30080879991874,147.3013630999485,147.28515429992694,,,,,,,,,,,,,,,,,,,,,,,,,,,,,,,,,,,,,,,,,,,,,,,,,,,,,,,,,,,,,,,,,,,,,,,,,,,,,,,,,,,,b_1_,001,2024-11-27_10h43.50.038,untitled,2024.1.5,None,2024-11-27 10h44.05.490984 +0530,
square.png,you,1,M,,,,,,,,,9,1,37,0,,,,,,,,,147.3013630999485,,,,,,,,,,,,,,,,,,,,,,,,,,,,,,,,,,147.2854969999753,147.3013630999485,147.78511239995714,147.78511239995714,147.78511239995714,147.78511239995714,147.80151449993718,148.08499529992696,148.08499529992696,148.08499529992696,148.4698466999689,m,0.6694680000655353,None,148.47032969992142,148.48535179998726,149.48565299995244,149.46956359990872,,,,,,,,,,,,,,,,,,,,,,,,,,,,,,,,,,,,,,,,,,,,,,,,,,,,,,,,,,,,,,,,,,,,,,,,,,,,,,,,,,,,b_1_,001,2024-11-27_10h43.50.038,untitled,2024.1.5,None,2024-11-27 10h44.05.490984 +0530,
triangle.png,you,0,Z,,,,,,,,,9,2,38,3,,,,,,,,,149.48565299995244,,,,,,,,,,,,,,,,,,,,,,,,,,,,,,,,,,149.46990969998296,149.48565299995244,149.98636859992985,149.98636859992985,149.98636859992985,149.98636859992985,149.98636859992985,150.28614049998578,150.28614049998578,150.28614049998578,150.58696519990917,z,0.5896835000021383,None,150.58738629997242,150.6029639999615,151.603475999902,151.58730649994686,,,,,,,,,,,,,,,,,,,,,,,,,,,,,,,,,,,,,,,,,,,,,,,,,,,,,,,,,,,,,,,,,,,,,,,,,,,,,,,,,,,,b_1_,001,2024-11-27_10h43.50.038,untitled,2024.1.5,None,2024-11-27 10h44.05.490984 +0530,
square.png,stranger,0,Z,,,,,,,,,9,3,39,2,,,,,,,,,151.603475999902,,,,,,,,,,,,,,,,,,,,,,,,,,,,,,,,,,151.58765809994657,151.603475999902,152.0870667999843,152.0870667999843,152.0870667999843,152.0870667999843,152.1037476999918,152.38723280001432,152.38723280001432,152.38723280001432,153.10492399998475,z,1.0130785999353975,None,153.10534149990417,153.1210265000118,154.12156040000264,154.10521790001076,,,,,,,,,,,,,,,,,,,,,,,,,,,,,,,,,,,,,,,,,,,,,,,,,,,,,,,,,,,,,,,,,,,,,,,,,,,,,,,,,,,,b_1_,001,2024-11-27_10h43.50.038,untitled,2024.1.5,None,2024-11-27 10h44.05.490984 +0530,
triangle.png,stranger,1,M,,,,,,,,,10,0,40,1,,,,,,,,,154.12156040000264,,,,,,,,,,,,,,,,,,,,,,,,,,,,,,,,,,154.10556960001122,154.12156040000264,154.60513179993723,154.60513179993723,154.60513179993723,154.60513179993723,154.6219187999377,154.9051141999662,154.9051141999662,154.9051141999662,155.17282749991864,z,0.5550484000705183,None,155.17325489991345,155.18874829995912,156.1893146999646,156.1728441999294,,,,,,,,,,,,,,,,,,,,,,,,,,,,,,,,,,,,,,,,,,,,,,,,,,,,,,,,,,,,,,,,,,,,,,,,,,,,,,,,,,,,b_1_,001,2024-11-27_10h43.50.038,untitled,2024.1.5,None,2024-11-27 10h44.05.490984 +0530,
square.png,you,1,M,,,,,,,,,10,1,41,0,,,,,,,,,156.1893146999646,,,,,,,,,,,,,,,,,,,,,,,,,,,,,,,,,,156.17319299990777,156.1893146999646,156.67299639992416,156.67299639992416,156.67299639992416,156.67299639992416,156.68965009995736,156.9729120999109,156.9729120999109,156.9729120999109,157.75709829991683,None,,,157.75728419993538,157.77317820000462,158.7738785999827,158.75740749994293,157.77317820000462,,,,,,,,,,,,,,,,,,,,,,,,,,,,,,,,,,,,,,,,,,,,,,,,,,,,,,,,,,,,,,,,,,,,,,,,,,,,,,,,,,,b_1_,001,2024-11-27_10h43.50.038,untitled,2024.1.5,None,2024-11-27 10h44.05.490984 +0530,
triangle.png,you,0,Z,,,,,,,,,10,2,42,3,,,,,,,,,158.7738785999827,,,,,,,,,,,,,,,,,,,,,,,,,,,,,,,,,,158.7577632999746,158.7738785999827,159.27433949999977,159.27433949999977,159.27433949999977,159.27433949999977,159.27433949999977,159.57418849994428,159.57418849994428,159.57418849994428,160.12527640000917,z,0.8496736999368295,None,160.12569289992098,160.14128039998468,161.14178649999667,161.125439299969,,,,,,,,,,,,,,,,,,,,,,,,,,,,,,,,,,,,,,,,,,,,,,,,,,,,,,,,,,,,,,,,,,,,,,,,,,,,,,,,,,,,b_1_,001,2024-11-27_10h43.50.038,untitled,2024.1.5,None,2024-11-27 10h44.05.490984 +0530,
square.png,stranger,0,Z,,,,,,,,,10,3,43,2,,,,,,,,,161.14178649999667,,,,,,,,,,,,,,,,,,,,,,,,,,,,,,,,,,161.12578140001278,161.14178649999667,161.6253543999046,161.6253543999046,161.6253543999046,161.6253543999046,161.64194080000743,161.92554739990737,161.92554739990737,161.92554739990737,162.37643920001574,z,0.7346320999786258,None,162.37685779994354,162.39250239997637,163.3928088999819,163.37663790001534,,,,,,,,,,,,,,,,,,,,,,,,,,,,,,,,,,,,,,,,,,,,,,,,,,,,,,,,,,,,,,,,,,,,,,,,,,,,,,,,,,,,b_1_,001,2024-11-27_10h43.50.038,untitled,2024.1.5,None,2024-11-27 10h44.05.490984 +0530,
square.png,stranger,0,Z,,,,,,,,,11,0,44,2,,,,,,,,,163.3928088999819,,,,,,,,,,,,,,,,,,,,,,,,,,,,,,,,,,163.37698539998382,163.3928088999819,163.87650869996287,163.87650869996287,163.87650869996287,163.87650869996287,163.89316999993753,164.1762730999617,164.1762730999617,164.1762730999617,164.4775107000023,m,0.5878307999810204,None,164.47792789991945,164.49336510000285,165.4940111999167,165.47773389995564,,,,,,,,,,,,,,,,,,,,,,,,,,,,,,,,,,,,,,,,,,,,,,,,,,,,,,,,,,,,,,,,,,,,,,,,,,,,,,,,,,,,b_1_,001,2024-11-27_10h43.50.038,untitled,2024.1.5,None,2024-11-27 10h44.05.490984 +0530,
triangle.png,stranger,1,M,,,,,,,,,11,1,45,1,,,,,,,,,165.4940111999167,,,,,,,,,,,,,,,,,,,,,,,,,,,,,,,,,,165.47808209992945,165.4940111999167,165.97794809995685,165.97794809995685,165.97794809995685,165.97794809995685,165.99426830001175,166.27747679990716,166.27747679990716,166.27747679990716,166.62865279999096,m,0.6422373000532389,None,166.62907029991038,166.64442449994385,167.64506359992083,167.62879749992862,,,,,,,,,,,,,,,,,,,,,,,,,,,,,,,,,,,,,,,,,,,,,,,,,,,,,,,,,,,,,,,,,,,,,,,,,,,,,,,,,,,,b_1_,001,2024-11-27_10h43.50.038,untitled,2024.1.5,None,2024-11-27 10h44.05.490984 +0530,
triangle.png,you,0,Z,,,,,,,,,11,2,46,3,,,,,,,,,167.64506359992083,,,,,,,,,,,,,,,,,,,,,,,,,,,,,,,,,,167.62914689991158,167.64506359992083,168.12873170000967,168.12873170000967,168.12873170000967,168.12873170000967,168.14546319993678,168.4288701999467,168.4288701999467,168.4288701999467,168.99638259992935,z,0.8581227000104263,None,168.99679709994234,169.01253429998178,170.0128632999258,169.99666289996821,,,,,,,,,,,,,,,,,,,,,,,,,,,,,,,,,,,,,,,,,,,,,,,,,,,,,,,,,,,,,,,,,,,,,,,,,,,,,,,,,,,,b_1_,001,2024-11-27_10h43.50.038,untitled,2024.1.5,None,2024-11-27 10h44.05.490984 +0530,
square.png,you,1,M,,,,,,,,,11,3,47,0,,,,,,,,,170.0128632999258,,,,,,,,,,,,,,,,,,,,,,,,,,,,,,,,,,169.99701980000827,170.0128632999258,170.49656879995018,170.49656879995018,170.49656879995018,170.49656879995018,170.51318399992306,170.7969732999336,170.7969732999336,170.7969732999336,170.98085489997175,z,0.48250090004876256,None,170.98127509991173,170.99670619994868,171.99727699998766,171.98098999995273,,,,,,,,,,,,,,,,,,,,,,,,,,,,,,,,,,,,,,,,,,,,,,,,,,,,,,,,,,,,,,,,,,,,,,,,,,,,,,,,,,,,b_1_,001,2024-11-27_10h43.50.038,untitled,2024.1.5,None,2024-11-27 10h44.05.490984 +0530,
square.png,stranger,0,Z,,,,,,,,,12,0,48,2,,,,,,,,,171.99727699998766,,,,,,,,,,,,,,,,,,,,,,,,,,,,,,,,,,171.98133559990674,171.99727699998766,172.48122750001494,172.48122750001494,172.48122750001494,172.48122750001494,172.49751069990452,172.7810263999272,172.7810263999272,172.7810263999272,173.39879110001493,z,0.9145390000194311,None,173.3992149999831,173.41467089997604,174.4150947999442,174.3989396999823,,,,,,,,,,,,,,,,,,,,,,,,,,,,,,,,,,,,,,,,,,,,,,,,,,,,,,,,,,,,,,,,,,,,,,,,,,,,,,,,,,,,b_1_,001,2024-11-27_10h43.50.038,untitled,2024.1.5,None,2024-11-27 10h44.05.490984 +0530,
triangle.png,stranger,1,M,,,,,,,,,12,1,49,1,,,,,,,,,174.4150947999442,,,,,,,,,,,,,,,,,,,,,,,,,,,,,,,,,,174.39928499993403,174.4150947999442,174.8988604999613,174.8988604999613,174.8988604999613,174.8988604999613,174.91568769991864,175.19895350001752,175.19895350001752,175.19895350001752,175.7500084999483,m,0.8358215999323875,None,175.75042449997272,175.76611470000353,176.7665216999594,176.75025259994436,,,,,,,,,,,,,,,,,,,,,,,,,,,,,,,,,,,,,,,,,,,,,,,,,,,,,,,,,,,,,,,,,,,,,,,,,,,,,,,,,,,,b_1_,001,2024-11-27_10h43.50.038,untitled,2024.1.5,None,2024-11-27 10h44.05.490984 +0530,
triangle.png,you,0,Z,,,,,,,,,12,2,50,3,,,,,,,,,176.7665216999594,,,,,,,,,,,,,,,,,,,,,,,,,,,,,,,,,,176.75060109992046,176.7665216999594,177.25027730001602,177.25027730001602,177.25027730001602,177.25027730001602,177.26681139995344,177.5501255999552,177.5501255999552,177.5501255999552,178.03452400001697,z,0.7762653999961913,None,178.03494299994782,178.05060730001424,179.0511269000126,179.034642899991,,,,,,,,,,,,,,,,,,,,,,,,,,,,,,,,,,,,,,,,,,,,,,,,,,,,,,,,,,,,,,,,,,,,,,,,,,,,,,,,,,,,b_1_,001,2024-11-27_10h43.50.038,untitled,2024.1.5,None,2024-11-27 10h44.05.490984 +0530,
square.png,you,1,M,,,,,,,,,12,3,51,0,,,,,,,,,179.0511269000126,,,,,,,,,,,,,,,,,,,,,,,,,,,,,,,,,,179.0349916999694,179.0511269000126,179.53454739996232,179.53454739996232,179.53454739996232,179.53454739996232,179.55126279999968,179.83453549991827,179.83453549991827,179.83453549991827,180.3023568999488,m,0.7531498000025749,None,180.3027771000052,180.31832269998267,181.31876769999508,181.30252859997563,,,,,,,,,,,,,,,,,,,,,,,,,,,,,,,,,,,,,,,,,,,,,,,,,,,,,,,,,,,,,,,,,,,,,,,,,,,,,,,,,,,,b_1_,001,2024-11-27_10h43.50.038,untitled,2024.1.5,None,2024-11-27 10h44.05.490984 +0530,
square.png,stranger,0,Z,,,,,,,,,13,0,52,2,,,,,,,,,181.31876769999508,,,,,,,,,,,,,,,,,,,,,,,,,,,,,,,,,,181.30287000001408,181.31876769999508,181.8025591999758,181.8025591999758,181.8025591999758,181.8025591999758,181.81914869998582,182.102580799954,182.102580799954,182.102580799954,182.5034368999768,z,0.6932622999884188,None,182.50385029998142,182.51939299993683,183.51997429993935,183.50373279990163,,,,,,,,,,,,,,,,,,,,,,,,,,,,,,,,,,,,,,,,,,,,,,,,,,,,,,,,,,,,,,,,,,,,,,,,,,,,,,,,,,,,b_1_,001,2024-11-27_10h43.50.038,untitled,2024.1.5,None,2024-11-27 10h44.05.490984 +0530,
triangle.png,you,0,Z,,,,,,,,,13,1,53,3,,,,,,,,,183.51997429993935,,,,,,,,,,,,,,,,,,,,,,,,,,,,,,,,,,183.50408230000176,183.51997429993935,184.00363579997793,184.00363579997793,184.00363579997793,184.00363579997793,184.02031459996942,184.303758099908,184.303758099908,184.303758099908,184.70468299998902,z,0.6989748999476433,None,184.7051078999648,184.72070249996614,185.7211047000019,185.70498559996486,,,,,,,,,,,,,,,,,,,,,,,,,,,,,,,,,,,,,,,,,,,,,,,,,,,,,,,,,,,,,,,,,,,,,,,,,,,,,,,,,,,,b_1_,001,2024-11-27_10h43.50.038,untitled,2024.1.5,None,2024-11-27 10h44.05.490984 +0530,
square.png,you,1,M,,,,,,,,,13,2,54,0,,,,,,,,,185.7211047000019,,,,,,,,,,,,,,,,,,,,,,,,,,,,,,,,,,185.7053378999699,185.7211047000019,186.20487909996882,186.20487909996882,186.20487909996882,186.20487909996882,186.22122690000106,186.5046862999443,186.5046862999443,186.5046862999443,187.07266659999732,z,0.8657303999643773,None,187.0731877000071,187.0884364999365,188.08905939990655,188.07277369999792,,,,,,,,,,,,,,,,,,,,,,,,,,,,,,,,,,,,,,,,,,,,,,,,,,,,,,,,,,,,,,,,,,,,,,,,,,,,,,,,,,,,b_1_,001,2024-11-27_10h43.50.038,untitled,2024.1.5,None,2024-11-27 10h44.05.490984 +0530,
triangle.png,stranger,1,M,,,,,,,,,13,3,55,1,,,,,,,,,188.08905939990655,,,,,,,,,,,,,,,,,,,,,,,,,,,,,,,,,,188.07312479999382,188.08905939990655,188.5726029999787,188.5726029999787,188.5726029999787,188.5726029999787,188.58919989992864,188.8726319000125,188.8726319000125,188.8726319000125,189.24018510000315,m,0.6659977999515831,None,189.24060469993856,189.25606159993913,190.25684309995268,190.24043090001214,,,,,,,,,,,,,,,,,,,,,,,,,,,,,,,,,,,,,,,,,,,,,,,,,,,,,,,,,,,,,,,,,,,,,,,,,,,,,,,,,,,,b_1_,001,2024-11-27_10h43.50.038,untitled,2024.1.5,None,2024-11-27 10h44.05.490984 +0530,
square.png,stranger,0,Z,,,,,,,,,14,0,56,2,,,,,,,,,190.25684309995268,,,,,,,,,,,,,,,,,,,,,,,,,,,,,,,,,,190.24077889998443,190.25684309995268,190.74035689991433,190.74035689991433,190.74035689991433,190.74035689991433,190.75700569991022,191.0403490999015,191.0403490999015,191.0403490999015,191.30801439995412,z,0.5543139000656083,None,191.30843879992608,191.32406779995654,192.32439089997206,192.3079693999607,,,,,,,,,,,,,,,,,,,,,,,,,,,,,,,,,,,,,,,,,,,,,,,,,,,,,,,,,,,,,,,,,,,,,,,,,,,,,,,,,,,,b_1_,001,2024-11-27_10h43.50.038,untitled,2024.1.5,None,2024-11-27 10h44.05.490984 +0530,
square.png,you,1,M,,,,,,,,,14,1,57,0,,,,,,,,,192.32439089997206,,,,,,,,,,,,,,,,,,,,,,,,,,,,,,,,,,192.3083292999072,192.32439089997206,192.80802019999828,192.80802019999828,192.80802019999828,192.80802019999828,192.82474949990865,193.10824629990384,193.10824629990384,193.10824629990384,193.2422099999385,m,0.41957869997713715,None,193.2426513999235,193.25831999990623,194.2586183999665,194.2423959999578,,,,,,,,,,,,,,,,,,,,,,,,,,,,,,,,,,,,,,,,,,,,,,,,,,,,,,,,,,,,,,,,,,,,,,,,,,,,,,,,,,,,b_1_,001,2024-11-27_10h43.50.038,untitled,2024.1.5,None,2024-11-27 10h44.05.490984 +0530,
triangle.png,you,0,Z,,,,,,,,,14,2,58,3,,,,,,,,,194.2586183999665,,,,,,,,,,,,,,,,,,,,,,,,,,,,,,,,,,194.24274419993162,194.2586183999665,194.742393399938,194.742393399938,194.742393399938,194.742393399938,194.75899219990242,195.04253669991158,195.04253669991158,195.04253669991158,195.27689390000887,z,0.5326095999917015,None,195.2773165999679,195.29268149996642,196.2931169999065,196.276873899973,,,,,,,,,,,,,,,,,,,,,,,,,,,,,,,,,,,,,,,,,,,,,,,,,,,,,,,,,,,,,,,,,,,,,,,,,,,,,,,,,,,,b_1_,001,2024-11-27_10h43.50.038,untitled,2024.1.5,None,2024-11-27 10h44.05.490984 +0530,
triangle.png,stranger,1,M,,,,,,,,,14,3,59,1,,,,,,,,,196.2931169999065,,,,,,,,,,,,,,,,,,,,,,,,,,,,,,,,,,196.27722439996433,196.2931169999065,196.77693619998172,196.77693619998172,196.77693619998172,196.77693619998172,196.79355049994774,197.07678779994603,197.07678779994603,197.07678779994603,197.64440049999394,m,0.854161600000225,None,197.64482990000397,197.660486400011,198.66089599998668,198.64493449998554,,,,,,,,,,,,,,,,,,,,,,,,,,,,,,,,,,,,,,,,,,,,,,,,,,,,,,,,,,,,,,,,,,,,,,,,,,,,,,,,,,,,b_1_,001,2024-11-27_10h43.50.038,untitled,2024.1.5,None,2024-11-27 10h44.05.490984 +0530,
triangle.png,stranger,1,M,,,,,,,,,15,0,60,1,,,,,,,,,198.66089599998668,,,,,,,,,,,,,,,,,,,,,,,,,,,,,,,,,,198.64527749991976,198.66089599998668,199.1448732999852,199.1448732999852,199.1448732999852,199.1448732999852,199.16141840000637,199.4446793999523,199.4446793999523,199.4446793999523,199.9959226999199,m,0.8456502000335604,None,199.9963436999824,200.01157109998167,201.0123098999029,200.99595239991322,,,,,,,,,,,,,,,,,,,,,,,,,,,,,,,,,,,,,,,,,,,,,,,,,,,,,,,,,,,,,,,,,,,,,,,,,,,,,,,,,,,,b_1_,001,2024-11-27_10h43.50.038,untitled,2024.1.5,None,2024-11-27 10h44.05.490984 +0530,
square.png,you,1,M,,,,,,,,,15,1,61,0,,,,,,,,,201.0123098999029,,,,,,,,,,,,,,,,,,,,,,,,,,,,,,,,,,200.99630009999964,201.0123098999029,201.49598359991796,201.49598359991796,201.49598359991796,201.49598359991796,201.51265319995582,201.79601589997765,201.79601589997765,201.79601589997765,202.23018859990407,m,0.7273194000590593,None,202.23060539993457,202.24620559997857,203.24673519993667,203.23039869999047,,,,,,,,,,,,,,,,,,,,,,,,,,,,,,,,,,,,,,,,,,,,,,,,,,,,,,,,,,,,,,,,,,,,,,,,,,,,,,,,,,,,b_1_,001,2024-11-27_10h43.50.038,untitled,2024.1.5,None,2024-11-27 10h44.05.490984 +0530,
triangle.png,you,0,Z,,,,,,,,,15,2,62,3,,,,,,,,,203.24673519993667,,,,,,,,,,,,,,,,,,,,,,,,,,,,,,,,,,203.23074209992774,203.24673519993667,203.73059529997408,203.73059529997408,203.73059529997408,203.73059529997408,203.74687699996866,204.03055729996413,204.03055729996413,204.03055729996413,204.51473179995082,z,0.7813331000506878,None,204.5152487999294,204.53070499992464,205.5312213000143,205.51491289993282,,,,,,,,,,,,,,,,,,,,,,,,,,,,,,,,,,,,,,,,,,,,,,,,,,,,,,,,,,,,,,,,,,,,,,,,,,,,,,,,,,,,b_1_,001,2024-11-27_10h43.50.038,untitled,2024.1.5,None,2024-11-27 10h44.05.490984 +0530,
square.png,stranger,0,Z,,,,,,,,,15,3,63,2,,,,,,,,,205.5312213000143,,,,,,,,,,,,,,,,,,,,,,,,,,,,,,,,,,205.51525749999564,205.5312213000143,206.0150332999183,206.0150332999183,206.0150332999183,206.0150332999183,206.03142299992032,206.31483519996982,206.31483519996982,206.31483519996982,207.03265840001404,z,1.001752599957399,None,207.0330765999388,207.04866420000326,208.0490862999577,208.03295699995942,,,,,,,,,,,,,,,,,,,,,,,,,,,,,,,,,,,,,,,,,,,,,,,,,,,,,,,,,,,,,,,,,,,,,,,,,,,,,,,,,,,,b_1_,001,2024-11-27_10h43.50.038,untitled,2024.1.5,None,2024-11-27 10h44.05.490984 +0530,
triangle.png,stranger,1,M,,,,,,,,,16,0,64,1,,,,,,,,,208.0490862999577,,,,,,,,,,,,,,,,,,,,,,,,,,,,,,,,,,208.03330589993857,208.0490862999577,208.53271429997403,208.53271429997403,208.53271429997403,208.53271429997403,208.54963139991742,208.832960599917,208.832960599917,208.832960599917,209.50076600001194,m,0.9660057000583038,None,209.50118969997857,209.51659769995604,210.51729099999648,210.50089559995104,,,,,,,,,,,,,,,,,,,,,,,,,,,,,,,,,,,,,,,,,,,,,,,,,,,,,,,,,,,,,,,,,,,,,,,,,,,,,,,,,,,,b_1_,001,2024-11-27_10h43.50.038,untitled,2024.1.5,None,2024-11-27 10h44.05.490984 +0530,
square.png,you,1,M,,,,,,,,,16,1,65,0,,,,,,,,,210.51729099999648,,,,,,,,,,,,,,,,,,,,,,,,,,,,,,,,,,210.5012441999279,210.51729099999648,211.00091059994884,211.00091059994884,211.00091059994884,211.00091059994884,211.01724109996576,211.30075759999454,211.30075759999454,211.30075759999454,211.70189359993674,m,0.6935996999964118,None,211.7023112999741,211.71769199997652,212.71834409993608,212.70187419990543,,,,,,,,,,,,,,,,,,,,,,,,,,,,,,,,,,,,,,,,,,,,,,,,,,,,,,,,,,,,,,,,,,,,,,,,,,,,,,,,,,,,b_1_,001,2024-11-27_10h43.50.038,untitled,2024.1.5,None,2024-11-27 10h44.05.490984 +0530,
triangle.png,you,0,Z,,,,,,,,,16,2,66,3,,,,,,,,,212.71834409993608,,,,,,,,,,,,,,,,,,,,,,,,,,,,,,,,,,212.70222069998272,212.71834409993608,213.201814299915,213.201814299915,213.201814299915,213.201814299915,213.21843779995106,213.50183029996697,213.50183029996697,213.50183029996697,214.28621109994128,None,,,214.28641059994698,214.30240479996428,215.302831399953,215.28648179990705,214.30240479996428,,,,,,,,,,,,,,,,,,,,,,,,,,,,,,,,,,,,,,,,,,,,,,,,,,,,,,,,,,,,,,,,,,,,,,,,,,,,,,,,,,,b_1_,001,2024-11-27_10h43.50.038,untitled,2024.1.5,None,2024-11-27 10h44.05.490984 +0530,
square.png,stranger,0,Z,,,,,,,,,16,3,67,2,,,,,,,,,215.302831399953,,,,,,,,,,,,,,,,,,,,,,,,,,,,,,,,,,215.28683969995473,215.302831399953,215.803075099946,215.803075099946,215.803075099946,215.803075099946,215.803075099946,216.1031389000127,216.1031389000127,216.1031389000127,216.57112420001067,z,0.7515741999959573,None,216.57154729997274,216.58683569997083,217.58742909994908,217.57123659993522,,,,,,,,,,,,,,,,,,,,,,,,,,,,,,,,,,,,,,,,,,,,,,,,,,,,,,,,,,,,,,,,,,,,,,,,,,,,,,,,,,,,b_1_,001,2024-11-27_10h43.50.038,untitled,2024.1.5,None,2024-11-27 10h44.05.490984 +0530,
triangle.png,stranger,1,M,,,,,,,,,17,0,68,1,,,,,,,,,217.58742909994908,,,,,,,,,,,,,,,,,,,,,,,,,,,,,,,,,,217.5715874999296,217.58742909994908,218.0709773999406,218.0709773999406,218.0709773999406,218.0709773999406,218.0876947999932,218.371077699936,218.371077699936,218.371077699936,218.98880639998242,m,0.9163808000739664,None,218.9892278999323,219.00480819994118,220.0052184999222,219.98902059998363,,,,,,,,,,,,,,,,,,,,,,,,,,,,,,,,,,,,,,,,,,,,,,,,,,,,,,,,,,,,,,,,,,,,,,,,,,,,,,,,,,,,b_1_,001,2024-11-27_10h43.50.038,untitled,2024.1.5,None,2024-11-27 10h44.05.490984 +0530,
square.png,you,1,M,,,,,,,,,17,1,69,0,,,,,,,,,220.0052184999222,,,,,,,,,,,,,,,,,,,,,,,,,,,,,,,,,,219.98936819995288,220.0052184999222,220.4889049999183,220.4889049999183,220.4889049999183,220.4889049999183,220.50553630001377,220.78910509997513,220.78910509997513,220.78910509997513,221.23997609992512,z,0.7392063000006601,None,221.24040219991002,221.25575279991608,222.2564674000023,222.2403489999706,,,,,,,,,,,,,,,,,,,,,,,,,,,,,,,,,,,,,,,,,,,,,,,,,,,,,,,,,,,,,,,,,,,,,,,,,,,,,,,,,,,,b_1_,001,2024-11-27_10h43.50.038,untitled,2024.1.5,None,2024-11-27 10h44.05.490984 +0530,
square.png,stranger,0,Z,,,,,,,,,17,2,70,2,,,,,,,,,222.2564674000023,,,,,,,,,,,,,,,,,,,,,,,,,,,,,,,,,,222.24069819995202,222.2564674000023,222.74032450001687,222.74032450001687,222.74032450001687,222.74032450001687,222.7569348999532,223.04031119996216,223.04031119996216,223.04031119996216,223.60790299996734,z,0.8543482999084517,None,223.60833299998194,223.62376159999985,224.62451469991356,224.60815579991322,,,,,,,,,,,,,,,,,,,,,,,,,,,,,,,,,,,,,,,,,,,,,,,,,,,,,,,,,,,,,,,,,,,,,,,,,,,,,,,,,,,,b_1_,001,2024-11-27_10h43.50.038,untitled,2024.1.5,None,2024-11-27 10h44.05.490984 +0530,
triangle.png,you,0,Z,,,,,,,,,17,3,71,3,,,,,,,,,224.62451469991356,,,,,,,,,,,,,,,,,,,,,,,,,,,,,,,,,,224.6085027999943,224.62451469991356,225.108293499914,225.108293499914,225.108293499914,225.108293499914,225.1250079999445,225.4081009000074,225.4081009000074,225.4081009000074,225.67544189991895,z,0.563784800004214,None,225.67586519999895,225.6914579999866,226.69208059995435,226.67561469995417,,,,,,,,,,,,,,,,,,,,,,,,,,,,,,,,,,,,,,,,,,,,,,,,,,,,,,,,,,,,,,,,,,,,,,,,,,,,,,,,,,,,b_1_,001,2024-11-27_10h43.50.038,untitled,2024.1.5,None,2024-11-27 10h44.05.490984 +0530,
square.png,you,1,M,,,,,,,,,18,0,72,0,,,,,,,,,226.69208059995435,,,,,,,,,,,,,,,,,,,,,,,,,,,,,,,,,,226.67596979998052,226.69208059995435,227.17574430000968,227.17574430000968,227.17574430000968,227.17574430000968,227.1925293999957,227.4757064000005,227.4757064000005,227.4757064000005,227.55985489999875,m,0.38004049996379763,None,227.5602818999905,227.57588809996378,228.57634979998693,228.5601496999152,,,,,,,,,,,,,,,,,,,,,,,,,,,,,,,,,,,,,,,,,,,,,,,,,,,,,,,,,,,,,,,,,,,,,,,,,,,,,,,,,,,,b_1_,001,2024-11-27_10h43.50.038,untitled,2024.1.5,None,2024-11-27 10h44.05.490984 +0530,
square.png,stranger,0,Z,,,,,,,,,18,1,73,2,,,,,,,,,228.57634979998693,,,,,,,,,,,,,,,,,,,,,,,,,,,,,,,,,,228.56049179995898,228.57634979998693,229.06011749990284,229.06011749990284,229.06011749990284,229.06011749990284,229.07661419990472,229.36014199990314,229.36014199990314,229.36014199990314,230.14440089999698,None,,,230.14458550000563,230.1604482999537,231.16117009997834,231.14478309999686,230.1604482999537,,,,,,,,,,,,,,,,,,,,,,,,,,,,,,,,,,,,,,,,,,,,,,,,,,,,,,,,,,,,,,,,,,,,,,,,,,,,,,,,,,,b_1_,001,2024-11-27_10h43.50.038,untitled,2024.1.5,None,2024-11-27 10h44.05.490984 +0530,
triangle.png,you,0,Z,,,,,,,,,18,2,74,3,,,,,,,,,231.16117009997834,,,,,,,,,,,,,,,,,,,,,,,,,,,,,,,,,,231.1451288999524,231.16117009997834,231.66120749991387,231.66120749991387,231.66120749991387,231.66120749991387,231.66120749991387,231.96117649995722,231.96117649995722,231.96117649995722,232.4124236999778,z,0.7343712000874802,None,232.41285680001602,232.4283873999957,233.42888589994982,233.4127377999248,,,,,,,,,,,,,,,,,,,,,,,,,,,,,,,,,,,,,,,,,,,,,,,,,,,,,,,,,,,,,,,,,,,,,,,,,,,,,,,,,,,,b_1_,001,2024-11-27_10h43.50.038,untitled,2024.1.5,None,2024-11-27 10h44.05.490984 +0530,
triangle.png,stranger,1,M,,,,,,,,,18,3,75,1,,,,,,,,,233.42888589994982,,,,,,,,,,,,,,,,,,,,,,,,,,,,,,,,,,233.41308719990775,233.42888589994982,233.91271539998706,233.91271539998706,233.91271539998706,233.91271539998706,233.9293099999195,234.21247449994553,234.21247449994553,234.21247449994553,234.5469419999281,m,0.6179841000121087,None,234.54736169998068,234.56299639993813,235.56336459994782,235.54698400001507,,,,,,,,,,,,,,,,,,,,,,,,,,,,,,,,,,,,,,,,,,,,,,,,,,,,,,,,,,,,,,,,,,,,,,,,,,,,,,,,,,,,b_1_,001,2024-11-27_10h43.50.038,untitled,2024.1.5,None,2024-11-27 10h44.05.490984 +0530,
triangle.png,stranger,1,M,,,,,,,,,19,0,76,1,,,,,,,,,235.56336459994782,,,,,,,,,,,,,,,,,,,,,,,,,,,,,,,,,,235.54733149998356,235.56336459994782,236.0469706999138,236.0469706999138,236.0469706999138,236.0469706999138,236.06369470001664,236.34695569996256,236.34695569996256,236.34695569996256,237.01468569994904,m,0.961146799963899,None,237.0151052000001,237.03071759990416,238.03106169996317,238.01481959992088,,,,,,,,,,,,,,,,,,,,,,,,,,,,,,,,,,,,,,,,,,,,,,,,,,,,,,,,,,,,,,,,,,,,,,,,,,,,,,,,,,,,b_1_,001,2024-11-27_10h43.50.038,untitled,2024.1.5,None,2024-11-27 10h44.05.490984 +0530,
square.png,you,1,M,,,,,,,,,19,1,77,0,,,,,,,,,238.03106169996317,,,,,,,,,,,,,,,,,,,,,,,,,,,,,,,,,,238.01519529998768,238.03106169996317,238.51513640000485,238.51513640000485,238.51513640000485,238.51513640000485,238.5314618999837,238.81488869991153,238.81488869991153,238.81488869991153,238.91585629992187,m,0.39673049992416054,None,238.916284399922,238.93178669991903,239.93213520001154,239.9160053000087,,,,,,,,,,,,,,,,,,,,,,,,,,,,,,,,,,,,,,,,,,,,,,,,,,,,,,,,,,,,,,,,,,,,,,,,,,,,,,,,,,,,b_1_,001,2024-11-27_10h43.50.038,untitled,2024.1.5,None,2024-11-27 10h44.05.490984 +0530,
triangle.png,you,0,Z,,,,,,,,,19,2,78,3,,,,,,,,,239.93213520001154,,,,,,,,,,,,,,,,,,,,,,,,,,,,,,,,,,239.916357900016,239.93213520001154,240.415884399903,240.415884399903,240.415884399903,240.415884399903,240.43240769999102,240.7159797999775,240.7159797999775,240.7159797999775,240.98346849996597,z,0.5546568999998271,None,240.98388800001703,240.9993300999049,241.99985219992232,241.9838794999523,,,,,,,,,,,,,,,,,,,,,,,,,,,,,,,,,,,,,,,,,,,,,,,,,,,,,,,,,,,,,,,,,,,,,,,,,,,,,,,,,,,,b_1_,001,2024-11-27_10h43.50.038,untitled,2024.1.5,None,2024-11-27 10h44.05.490984 +0530,
square.png,stranger,0,Z,,,,,,,,,19,3,79,2,,,,,,,,,241.99985219992232,,,,,,,,,,,,,,,,,,,,,,,,,,,,,,,,,,241.98422499990556,241.99985219992232,242.4838318999391,242.4838318999391,242.4838318999391,242.4838318999391,242.50016209995374,242.78352449997328,242.78352449997328,242.78352449997328,243.0346780999098,m,0.5352014000527561,None,243.03509379993193,243.05055269994773,244.0509229999734,244.03500869998243,,,,,,,,,,,,,,,,,,,,,,,,,,,,,,,,,,,,,,,,,,,,,,,,,,,,,,,,,,,,,,,,,,,,,,,,,,,,,,,,,,,,b_1_,001,2024-11-27_10h43.50.038,untitled,2024.1.5,None,2024-11-27 10h44.05.490984 +0530,
square.png,stranger,0,Z,,,,,,,,,20,0,80,2,,,,,,,,,244.0509229999734,,,,,,,,,,,,,,,,,,,,,,,,,,,,,,,,,,244.0353543999372,244.0509229999734,244.5345934999641,244.5345934999641,244.5345934999641,244.5345934999641,244.55114539992064,244.83479369990528,244.83479369990528,244.83479369990528,245.31902199995238,z,0.7728420000057667,None,245.31944200000726,245.33495009993203,246.335404500016,246.3193062999053,,,,,,,,,,,,,,,,,,,,,,,,,,,,,,,,,,,,,,,,,,,,,,,,,,,,,,,,,,,,,,,,,,,,,,,,,,,,,,,,,,,,b_1_,001,2024-11-27_10h43.50.038,untitled,2024.1.5,None,2024-11-27 10h44.05.490984 +0530,
triangle.png,stranger,1,M,,,,,,,,,20,1,81,1,,,,,,,,,246.335404500016,,,,,,,,,,,,,,,,,,,,,,,,,,,,,,,,,,246.31965489999857,246.335404500016,246.81913509999868,246.81913509999868,246.81913509999868,246.81913509999868,246.83613959990907,247.11934129998554,247.11934129998554,247.11934129998554,247.80351819994394,m,0.9762597000226378,None,247.80393489997368,247.81970200000796,248.820016499958,248.80398779991083,,,,,,,,,,,,,,,,,,,,,,,,,,,,,,,,,,,,,,,,,,,,,,,,,,,,,,,,,,,,,,,,,,,,,,,,,,,,,,,,,,,,b_1_,001,2024-11-27_10h43.50.038,untitled,2024.1.5,None,2024-11-27 10h44.05.490984 +0530,
triangle.png,you,0,Z,,,,,,,,,20,2,82,3,,,,,,,,,248.820016499958,,,,,,,,,,,,,,,,,,,,,,,,,,,,,,,,,,248.80433419998735,248.820016499958,249.30398149997927,249.30398149997927,249.30398149997927,249.30398149997927,249.32036429992877,249.60371830000076,249.60371830000076,249.60371830000076,249.90483489993494,z,0.5874206000007689,None,249.90525019995403,249.9208620999707,250.92139309993945,250.90508619998582,,,,,,,,,,,,,,,,,,,,,,,,,,,,,,,,,,,,,,,,,,,,,,,,,,,,,,,,,,,,,,,,,,,,,,,,,,,,,,,,,,,,b_1_,001,2024-11-27_10h43.50.038,untitled,2024.1.5,None,2024-11-27 10h44.05.490984 +0530,
square.png,you,1,M,,,,,,,,,20,3,83,0,,,,,,,,,250.92139309993945,,,,,,,,,,,,,,,,,,,,,,,,,,,,,,,,,,250.90545039996505,250.92139309993945,251.40478440001607,251.40478440001607,251.40478440001607,251.40478440001607,251.4216326000169,251.70507179992273,251.70507179992273,251.70507179992273,252.1058567999862,m,0.693851999938488,None,252.10627109999768,252.121733799926,253.12222039990593,253.10625720000826,,,,,,,,,,,,,,,,,,,,,,,,,,,,,,,,,,,,,,,,,,,,,,,,,,,,,,,,,,,,,,,,,,,,,,,,,,,,,,,,,,,,b_1_,001,2024-11-27_10h43.50.038,untitled,2024.1.5,None,2024-11-27 10h44.05.490984 +0530,
square.png,stranger,0,Z,,,,,,,,,21,0,84,2,,,,,,,,,253.12222039990593,,,,,,,,,,,,,,,,,,,,,,,,,,,,,,,,,,253.1066063999897,253.12222039990593,253.6060916999122,253.6060916999122,253.6060916999122,253.6060916999122,253.62264680000953,253.9059157000156,253.9059157000156,253.9059157000156,254.18998259992804,m,0.5815943999914452,None,254.19041629997082,254.20626249990892,255.2066601999104,255.19051629991736,,,,,,,,,,,,,,,,,,,,,,,,,,,,,,,,,,,,,,,,,,,,,,,,,,,,,,,,,,,,,,,,,,,,,,,,,,,,,,,,,,,,b_1_,001,2024-11-27_10h43.50.038,untitled,2024.1.5,None,2024-11-27 10h44.05.490984 +0530,
triangle.png,stranger,1,M,,,,,,,,,21,1,85,1,,,,,,,,,255.2066601999104,,,,,,,,,,,,,,,,,,,,,,,,,,,,,,,,,,255.19087719998788,255.2066601999104,255.69036319991574,255.69036319991574,255.69036319991574,255.69036319991574,255.707181799924,255.99037369992584,255.99037369992584,255.99037369992584,256.65817119996063,m,0.9529212999623269,None,256.65859439992346,256.6739612999372,257.6747299999697,257.65852329996414,,,,,,,,,,,,,,,,,,,,,,,,,,,,,,,,,,,,,,,,,,,,,,,,,,,,,,,,,,,,,,,,,,,,,,,,,,,,,,,,,,,,b_1_,001,2024-11-27_10h43.50.038,untitled,2024.1.5,None,2024-11-27 10h44.05.490984 +0530,
triangle.png,you,0,Z,,,,,,,,,21,2,86,3,,,,,,,,,257.6747299999697,,,,,,,,,,,,,,,,,,,,,,,,,,,,,,,,,,257.6588992999168,257.6747299999697,258.158490599948,258.158490599948,258.158490599948,258.158490599948,258.17493380000815,258.45848849997856,258.45848849997856,258.45848849997856,259.2425752999261,None,,,259.24276349996217,259.2588847000152,260.25917019997723,260.24327529990114,259.2588847000152,,,,,,,,,,,,,,,,,,,,,,,,,,,,,,,,,,,,,,,,,,,,,,,,,,,,,,,,,,,,,,,,,,,,,,,,,,,,,,,,,,,b_1_,001,2024-11-27_10h43.50.038,untitled,2024.1.5,None,2024-11-27 10h44.05.490984 +0530,
square.png,you,1,M,,,,,,,,,21,3,87,0,,,,,,,,,260.25917019997723,,,,,,,,,,,,,,,,,,,,,,,,,,,,,,,,,,260.24376629991457,260.25917019997723,260.7595389999915,260.7595389999915,260.7595389999915,260.7595389999915,260.7595389999915,261.05959720001556,261.05959720001556,261.05959720001556,261.2773025999777,m,0.5159385999431834,None,261.27772319992073,261.29308629990555,262.2936913999729,262.2775768999709,,,,,,,,,,,,,,,,,,,,,,,,,,,,,,,,,,,,,,,,,,,,,,,,,,,,,,,,,,,,,,,,,,,,,,,,,,,,,,,,,,,,b_1_,001,2024-11-27_10h43.50.038,untitled,2024.1.5,None,2024-11-27 10h44.05.490984 +0530,
triangle.png,you,0,Z,,,,,,,,,22,0,88,3,,,,,,,,,262.2936913999729,,,,,,,,,,,,,,,,,,,,,,,,,,,,,,,,,,262.27792679995764,262.2936913999729,262.77728559996467,262.77728559996467,262.77728559996467,262.77728559996467,262.7941516999854,263.07734249997884,263.07734249997884,263.07734249997884,263.72847949992865,z,0.9460382000543177,None,263.72889889997896,263.74429109995253,264.7449932999443,264.7289263999555,,,,,,,,,,,,,,,,,,,,,,,,,,,,,,,,,,,,,,,,,,,,,,,,,,,,,,,,,,,,,,,,,,,,,,,,,,,,,,,,,,,,b_1_,001,2024-11-27_10h43.50.038,untitled,2024.1.5,None,2024-11-27 10h44.05.490984 +0530,
square.png,stranger,0,Z,,,,,,,,,22,1,89,2,,,,,,,,,264.7449932999443,,,,,,,,,,,,,,,,,,,,,,,,,,,,,,,,,,264.72927689994685,264.7449932999443,265.228707299917,265.228707299917,265.228707299917,265.228707299917,265.24521399999503,265.5288706999272,265.5288706999272,265.5288706999272,266.0128953999374,m,0.7740428999532014,None,266.01330869994126,266.0288859999273,267.0296175999101,267.01311880000867,,,,,,,,,,,,,,,,,,,,,,,,,,,,,,,,,,,,,,,,,,,,,,,,,,,,,,,,,,,,,,,,,,,,,,,,,,,,,,,,,,,,b_1_,001,2024-11-27_10h43.50.038,untitled,2024.1.5,None,2024-11-27 10h44.05.490984 +0530,
triangle.png,stranger,1,M,,,,,,,,,22,2,90,1,,,,,,,,,267.0296175999101,,,,,,,,,,,,,,,,,,,,,,,,,,,,,,,,,,267.01346369995736,267.0296175999101,267.51338059990667,267.51338059990667,267.51338059990667,267.51338059990667,267.52970859990455,267.81325199990533,267.81325199990533,267.81325199990533,267.99743969994597,m,0.46936459990683943,None,267.99785729998257,268.0134508999763,269.0138120999327,268.99751889996696,,,,,,,,,,,,,,,,,,,,,,,,,,,,,,,,,,,,,,,,,,,,,,,,,,,,,,,,,,,,,,,,,,,,,,,,,,,,,,,,,,,,b_1_,001,2024-11-27_10h43.50.038,untitled,2024.1.5,None,2024-11-27 10h44.05.490984 +0530,
square.png,you,1,M,,,,,,,,,22,3,91,0,,,,,,,,,269.0138120999327,,,,,,,,,,,,,,,,,,,,,,,,,,,,,,,,,,268.99786539992783,269.0138120999327,269.4973746999167,269.4973746999167,269.4973746999167,269.4973746999167,269.514216999989,269.7976790999528,269.7976790999528,269.7976790999528,270.381876999978,m,0.8828570999903604,None,270.3822932000039,270.3980169999413,271.3984148999443,271.38224499998614,,,,,,,,,,,,,,,,,,,,,,,,,,,,,,,,,,,,,,,,,,,,,,,,,,,,,,,,,,,,,,,,,,,,,,,,,,,,,,,,,,,,b_1_,001,2024-11-27_10h43.50.038,untitled,2024.1.5,None,2024-11-27 10h44.05.490984 +0530,
square.png,you,1,M,,,,,,,,,23,0,92,0,,,,,,,,,271.3984148999443,,,,,,,,,,,,,,,,,,,,,,,,,,,,,,,,,,271.3825958999805,271.3984148999443,271.88199919997714,271.88199919997714,271.88199919997714,271.88199919997714,271.89865779993124,272.1820751999039,272.1820751999039,272.1820751999039,272.9664082999807,None,,,272.96659620001446,272.9824557999382,273.9831584999338,273.9667685999302,272.9824557999382,,,,,,,,,,,,,,,,,,,,,,,,,,,,,,,,,,,,,,,,,,,,,,,,,,,,,,,,,,,,,,,,,,,,,,,,,,,,,,,,,,,b_1_,001,2024-11-27_10h43.50.038,untitled,2024.1.5,None,2024-11-27 10h44.05.490984 +0530,
triangle.png,stranger,1,M,,,,,,,,,23,1,93,1,,,,,,,,,273.9831584999338,,,,,,,,,,,,,,,,,,,,,,,,,,,,,,,,,,273.96711420000065,273.9831584999338,274.48352669994347,274.48352669994347,274.48352669994347,274.48352669994347,274.48352669994347,274.783545400016,274.783545400016,274.783545400016,275.10102389997337,m,0.615430900012143,None,275.1014407000039,275.11698299995624,276.1176419999683,276.101397399907,,,,,,,,,,,,,,,,,,,,,,,,,,,,,,,,,,,,,,,,,,,,,,,,,,,,,,,,,,,,,,,,,,,,,,,,,,,,,,,,,,,,b_1_,001,2024-11-27_10h43.50.038,untitled,2024.1.5,None,2024-11-27 10h44.05.490984 +0530,
triangle.png,you,0,Z,,,,,,,,,23,2,94,3,,,,,,,,,276.1176419999683,,,,,,,,,,,,,,,,,,,,,,,,,,,,,,,,,,276.1017445999896,276.1176419999683,276.60111529997084,276.60111529997084,276.60111529997084,276.60111529997084,276.6178620000137,276.90128459990956,276.90128459990956,276.90128459990956,277.2685913000023,z,0.6661624000407755,None,277.26900430000387,277.2848425999982,278.2851553999353,278.26901549997274,,,,,,,,,,,,,,,,,,,,,,,,,,,,,,,,,,,,,,,,,,,,,,,,,,,,,,,,,,,,,,,,,,,,,,,,,,,,,,,,,,,,b_1_,001,2024-11-27_10h43.50.038,untitled,2024.1.5,None,2024-11-27 10h44.05.490984 +0530,
square.png,stranger,0,Z,,,,,,,,,23,3,95,2,,,,,,,,,278.2851553999353,,,,,,,,,,,,,,,,,,,,,,,,,,,,,,,,,,278.2693603999214,278.2851553999353,278.76907289994415,278.76907289994415,278.76907289994415,278.76907289994415,278.7855625000084,279.06880989996716,279.06880989996716,279.06880989996716,279.62002449994907,z,0.8496029999805614,None,279.62044889992103,279.6358041999629,280.6365623999154,280.62015520001296,,,,,,,,,,,,,,,,,,,,,,,,,,,,,,,,,,,,,,,,,,,,,,,,,,,,,,,,,,,,,,,,,,,,,,,,,,,,,,,,,,,,b_1_,001,2024-11-27_10h43.50.038,untitled,2024.1.5,None,2024-11-27 10h44.05.490984 +0530,
triangle.png,you,0,Z,,,,,,,,,24,0,96,3,,,,,,,,,280.6365623999154,,,,,,,,,,,,,,,,,,,,,,,,,,,,,,,,,,280.6205064000096,280.6365623999154,281.1202235999517,281.1202235999517,281.1202235999517,281.1202235999517,281.1366954999976,281.42017529997975,281.42017529997975,281.42017529997975,281.85439979995135,z,0.7184262999799103,None,281.85481589997653,281.8705257999245,282.8710505999625,282.8545701999683,,,,,,,,,,,,,,,,,,,,,,,,,,,,,,,,,,,,,,,,,,,,,,,,,,,,,,,,,,,,,,,,,,,,,,,,,,,,,,,,,,,,b_1_,001,2024-11-27_10h43.50.038,untitled,2024.1.5,None,2024-11-27 10h44.05.490984 +0530,
triangle.png,stranger,1,M,,,,,,,,,24,1,97,1,,,,,,,,,282.8710505999625,,,,,,,,,,,,,,,,,,,,,,,,,,,,,,,,,,282.85491719993297,282.8710505999625,283.3547670999542,283.3547670999542,283.3547670999542,283.3547670999542,283.3715022999095,283.6547873999225,283.6547873999225,283.6547873999225,284.30583640001714,m,0.9398953000782058,None,284.3062516999198,284.32179999991786,285.32210689992644,285.30611449992284,,,,,,,,,,,,,,,,,,,,,,,,,,,,,,,,,,,,,,,,,,,,,,,,,,,,,,,,,,,,,,,,,,,,,,,,,,,,,,,,,,,,b_1_,001,2024-11-27_10h43.50.038,untitled,2024.1.5,None,2024-11-27 10h44.05.490984 +0530,
square.png,stranger,0,Z,,,,,,,,,24,2,98,2,,,,,,,,,285.32210689992644,,,,,,,,,,,,,,,,,,,,,,,,,,,,,,,,,,285.3064697999507,285.32210689992644,285.8060165999923,285.8060165999923,285.8060165999923,285.8060165999923,285.82260289997794,286.1060029999353,286.1060029999353,286.1060029999353,286.673741400009,z,0.8533476999728009,None,286.67416769999545,286.68972389993723,287.69020069995895,287.67387009994127,,,,,,,,,,,,,,,,,,,,,,,,,,,,,,,,,,,,,,,,,,,,,,,,,,,,,,,,,,,,,,,,,,,,,,,,,,,,,,,,,,,,b_1_,001,2024-11-27_10h43.50.038,untitled,2024.1.5,None,2024-11-27 10h44.05.490984 +0530,
square.png,you,1,M,,,,,,,,,24,3,99,0,,,,,,,,,287.69020069995895,,,,,,,,,,,,,,,,,,,,,,,,,,,,,,,,,,287.67422539996915,287.69020069995895,288.1737070999807,288.1737070999807,288.1737070999807,288.1737070999807,288.19045629992615,288.4738514999626,288.4738514999626,288.4738514999626,288.79121439997107,m,0.6142678000032902,None,288.79163379990496,288.80750509991776,289.8077167000156,289.7916391999461,,,,,,,,,,,,,,,,,,,,,,,,,,,,,,,,,,,,,,,,,,,,,,,,,,,,,,,,,,,,,,,,,,,,,,,,,,,,,,,,,,,,b_1_,001,2024-11-27_10h43.50.038,untitled,2024.1.5,None,2024-11-27 10h44.05.490984 +0530,
square.png,you,1,M,,,,,,,,,25,0,100,0,,,,,,,,,289.8077167000156,,,,,,,,,,,,,,,,,,,,,,,,,,,,,,,,,,289.79198849992827,289.8077167000156,290.29156919999514,290.29156919999514,290.29156919999514,290.29156919999514,290.3079321999103,290.5913769999752,290.5913769999752,290.5913769999752,291.1091521999333,m,0.8118904000148177,None,291.10956989997067,291.1252324999077,292.12583399994764,292.1094613999594,,,,,,,,,,,,,,,,,,,,,,,,,,,,,,,,,,,,,,,,,,,,,,,,,,,,,,,,,,,,,,,,,,,,,,,,,,,,,,,,,,,,b_1_,001,2024-11-27_10h43.50.038,untitled,2024.1.5,None,2024-11-27 10h44.05.490984 +0530,
square.png,stranger,0,Z,,,,,,,,,25,1,101,2,,,,,,,,,292.12583399994764,,,,,,,,,,,,,,,,,,,,,,,,,,,,,,,,,,292.10980739991646,292.12583399994764,292.6093663999345,292.6093663999345,292.6093663999345,292.6093663999345,292.62600379996,292.9096389999613,292.9096389999613,292.9096389999613,293.46054409991484,z,0.8499615000328049,None,293.4609617999522,293.476347799995,294.4769476999063,294.4607739999192,,,,,,,,,,,,,,,,,,,,,,,,,,,,,,,,,,,,,,,,,,,,,,,,,,,,,,,,,,,,,,,,,,,,,,,,,,,,,,,,,,,,b_1_,001,2024-11-27_10h43.50.038,untitled,2024.1.5,None,2024-11-27 10h44.05.490984 +0530,
triangle.png,you,0,Z,,,,,,,,,25,2,102,3,,,,,,,,,294.4769476999063,,,,,,,,,,,,,,,,,,,,,,,,,,,,,,,,,,294.4611255999189,294.4769476999063,294.9606935000047,294.9606935000047,294.9606935000047,294.9606935000047,294.9774451999692,295.26046999997925,295.26046999997925,295.26046999997925,295.4949106000131,z,0.5271050999872386,None,295.4953938999679,295.5107365999138,296.51115609996486,296.4950022000121,,,,,,,,,,,,,,,,,,,,,,,,,,,,,,,,,,,,,,,,,,,,,,,,,,,,,,,,,,,,,,,,,,,,,,,,,,,,,,,,,,,,b_1_,001,2024-11-27_10h43.50.038,untitled,2024.1.5,None,2024-11-27 10h44.05.490984 +0530,
triangle.png,stranger,1,M,,,,,,,,,25,3,103,1,,,,,,,,,296.51115609996486,,,,,,,,,,,,,,,,,,,,,,,,,,,,,,,,,,296.49534699996,296.51115609996486,296.994965699967,296.994965699967,296.994965699967,296.994965699967,297.0117370999651,297.2950928999344,297.2950928999344,297.2950928999344,297.3789806999266,m,0.3685864000581205,None,297.3793956999434,297.3952299999073,298.39562009996735,298.37935109995306,,,,,,,,,,,,,,,,,,,,,,,,,,,,,,,,,,,,,,,,,,,,,,,,,,,,,,,,,,,,,,,,,,,,,,,,,,,,,,,,,,,,b_1_,001,2024-11-27_10h43.50.038,untitled,2024.1.5,None,2024-11-27 10h44.05.490984 +0530,
triangle.png,you,0,Z,,,,,,,,,26,0,104,3,,,,,,,,,298.39562009996735,,,,,,,,,,,,,,,,,,,,,,,,,,,,,,,,,,298.3797094000038,298.39562009996735,298.87949600000866,298.87949600000866,298.87949600000866,298.87949600000866,298.89580299996305,299.1791380000068,299.1791380000068,299.1791380000068,299.5135978999315,z,0.6288343999767676,None,299.5140153999673,299.52964729990344,300.53009000001475,300.51371259998996,,,,,,,,,,,,,,,,,,,,,,,,,,,,,,,,,,,,,,,,,,,,,,,,,,,,,,,,,,,,,,,,,,,,,,,,,,,,,,,,,,,,b_1_,001,2024-11-27_10h43.50.038,untitled,2024.1.5,None,2024-11-27 10h44.05.490984 +0530,
triangle.png,stranger,1,M,,,,,,,,,26,1,105,1,,,,,,,,,300.53009000001475,,,,,,,,,,,,,,,,,,,,,,,,,,,,,,,,,,300.51405799994245,300.53009000001475,301.0140059000114,301.0140059000114,301.0140059000114,301.0140059000114,301.03025069995783,301.3136254999554,301.3136254999554,301.3136254999554,301.9149019999895,m,0.8899713999126107,None,301.9153190999059,301.9309429000132,302.9313787999563,302.9149783999892,,,,,,,,,,,,,,,,,,,,,,,,,,,,,,,,,,,,,,,,,,,,,,,,,,,,,,,,,,,,,,,,,,,,,,,,,,,,,,,,,,,,b_1_,001,2024-11-27_10h43.50.038,untitled,2024.1.5,None,2024-11-27 10h44.05.490984 +0530,
square.png,stranger,0,Z,,,,,,,,,26,2,106,2,,,,,,,,,302.9313787999563,,,,,,,,,,,,,,,,,,,,,,,,,,,,,,,,,,302.9153260999592,302.9313787999563,303.4148867999902,303.4148867999902,303.4148867999902,303.4148867999902,303.4316835999489,303.7149931999156,303.7149931999156,303.7149931999156,304.49911299999803,None,,,304.4992970000021,304.51528079994023,305.5158445999259,305.4995438999031,304.51528079994023,,,,,,,,,,,,,,,,,,,,,,,,,,,,,,,,,,,,,,,,,,,,,,,,,,,,,,,,,,,,,,,,,,,,,,,,,,,,,,,,,,,b_1_,001,2024-11-27_10h43.50.038,untitled,2024.1.5,None,2024-11-27 10h44.05.490984 +0530,
square.png,you,1,M,,,,,,,,,26,3,107,0,,,,,,,,,305.5158445999259,,,,,,,,,,,,,,,,,,,,,,,,,,,,,,,,,,305.4998879999621,305.5158445999259,306.01647659996524,306.01647659996524,306.01647659996524,306.01647659996524,306.01647659996524,306.3162998999469,306.3162998999469,306.3162998999469,306.66705559997354,m,0.6349359999876469,None,306.6674738000147,306.6833838999737,307.68378279998433,307.66737589996774,,,,,,,,,,,,,,,,,,,,,,,,,,,,,,,,,,,,,,,,,,,,,,,,,,,,,,,,,,,,,,,,,,,,,,,,,,,,,,,,,,,,b_1_,001,2024-11-27_10h43.50.038,untitled,2024.1.5,None,2024-11-27 10h44.05.490984 +0530,
triangle.png,you,0,Z,,,,,,,,,27,0,108,3,,,,,,,,,307.68378279998433,,,,,,,,,,,,,,,,,,,,,,,,,,,,,,,,,,307.6677221999271,307.68378279998433,308.1673193000024,308.1673193000024,308.1673193000024,308.1673193000024,308.18410039995797,308.4673191999318,308.4673191999318,308.4673191999318,309.00186630000826,z,0.8194336999440566,None,309.00228649994824,309.01769309991505,310.01817489997484,310.00222459994256,,,,,,,,,,,,,,,,,,,,,,,,,,,,,,,,,,,,,,,,,,,,,,,,,,,,,,,,,,,,,,,,,,,,,,,,,,,,,,,,,,,,b_1_,001,2024-11-27_10h43.50.038,untitled,2024.1.5,None,2024-11-27 10h44.05.490984 +0530,
square.png,stranger,0,Z,,,,,,,,,27,1,109,2,,,,,,,,,310.01817489997484,,,,,,,,,,,,,,,,,,,,,,,,,,,,,,,,,,310.002570200013,310.01817489997484,310.5018541999161,310.5018541999161,310.5018541999161,310.5018541999161,310.51869079994503,310.8020326999249,310.8020326999249,310.8020326999249,311.5029131999472,m,0.9975754000479355,None,311.50335059990175,311.5191055999603,312.5196579999756,312.5031520999037,,,,,,,,,,,,,,,,,,,,,,,,,,,,,,,,,,,,,,,,,,,,,,,,,,,,,,,,,,,,,,,,,,,,,,,,,,,,,,,,,,,,b_1_,001,2024-11-27_10h43.50.038,untitled,2024.1.5,None,2024-11-27 10h44.05.490984 +0530,
square.png,you,1,M,,,,,,,,,27,2,110,0,,,,,,,,,312.5196579999756,,,,,,,,,,,,,,,,,,,,,,,,,,,,,,,,,,312.5035002999939,312.5196579999756,313.0033545999322,313.0033545999322,313.0033545999322,313.0033545999322,313.019990199944,313.3032047000015,313.3032047000015,313.3032047000015,313.7376059999224,m,0.7238517000805587,None,313.73801879992243,313.75366389995907,314.75412109994795,314.7376035999041,,,,,,,,,,,,,,,,,,,,,,,,,,,,,,,,,,,,,,,,,,,,,,,,,,,,,,,,,,,,,,,,,,,,,,,,,,,,,,,,,,,,b_1_,001,2024-11-27_10h43.50.038,untitled,2024.1.5,None,2024-11-27 10h44.05.490984 +0530,
triangle.png,stranger,1,M,,,,,,,,,27,3,111,1,,,,,,,,,314.75412109994795,,,,,,,,,,,,,,,,,,,,,,,,,,,,,,,,,,314.7379479999654,314.75412109994795,315.2378374999389,315.2378374999389,315.2378374999389,315.2378374999389,315.25418739998713,315.5374361999566,315.5374361999566,315.5374361999566,315.88873899995815,z,0.6496164000127465,None,315.8891588000115,315.90447289997246,316.9049733999418,316.88872919999994,,,,,,,,,,,,,,,,,,,,,,,,,,,,,,,,,,,,,,,,,,,,,,,,,,,,,,,,,,,,,,,,,,,,,,,,,,,,,,,,,,,,b_1_,001,2024-11-27_10h43.50.038,untitled,2024.1.5,None,2024-11-27 10h44.05.490984 +0530,
triangle.png,you,0,Z,,,,,,,,,28,0,112,3,,,,,,,,,316.9049733999418,,,,,,,,,,,,,,,,,,,,,,,,,,,,,,,,,,316.88907849998213,316.9049733999418,317.38897289999295,317.38897289999295,317.38897289999295,317.38897289999295,317.405580899911,317.688824599958,317.688824599958,317.688824599958,318.2398131999653,z,0.8356065999250859,None,318.2402302999981,318.25590579991695,319.25650709995534,319.2400347999064,,,,,,,,,,,,,,,,,,,,,,,,,,,,,,,,,,,,,,,,,,,,,,,,,,,,,,,,,,,,,,,,,,,,,,,,,,,,,,,,,,,,b_1_,001,2024-11-27_10h43.50.038,untitled,2024.1.5,None,2024-11-27 10h44.05.490984 +0530,
square.png,you,1,M,,,,,,,,,28,1,113,0,,,,,,,,,319.25650709995534,,,,,,,,,,,,,,,,,,,,,,,,,,,,,,,,,,319.24038019997533,319.25650709995534,319.7398622999899,319.7398622999899,319.7398622999899,319.7398622999899,319.7567495999392,320.04014119994827,320.04014119994827,320.04014119994827,320.8081471999176,m,1.067160899983719,None,320.8085730000166,320.82394149992615,321.8240636999253,321.8079310999019,,,,,,,,,,,,,,,,,,,,,,,,,,,,,,,,,,,,,,,,,,,,,,,,,,,,,,,,,,,,,,,,,,,,,,,,,,,,,,,,,,,,b_1_,001,2024-11-27_10h43.50.038,untitled,2024.1.5,None,2024-11-27 10h44.05.490984 +0530,
square.png,stranger,0,Z,,,,,,,,,28,2,114,2,,,,,,,,,321.8240636999253,,,,,,,,,,,,,,,,,,,,,,,,,,,,,,,,,,321.8082775999792,321.8240636999253,322.3079039999284,322.3079039999284,322.3079039999284,322.3079039999284,322.3245576999616,322.6081415999215,322.6081415999215,322.6081415999215,322.9587876999285,z,0.6401362000033259,None,322.95920749998186,322.97492459998466,323.9754816999193,323.9591299999738,,,,,,,,,,,,,,,,,,,,,,,,,,,,,,,,,,,,,,,,,,,,,,,,,,,,,,,,,,,,,,,,,,,,,,,,,,,,,,,,,,,,b_1_,001,2024-11-27_10h43.50.038,untitled,2024.1.5,None,2024-11-27 10h44.05.490984 +0530,
triangle.png,stranger,1,M,,,,,,,,,28,3,115,1,,,,,,,,,323.9754816999193,,,,,,,,,,,,,,,,,,,,,,,,,,,,,,,,,,323.95947349991184,323.9754816999193,324.4588934999192,324.4588934999192,324.4588934999192,324.4588934999192,324.47552229999565,324.75937270000577,324.75937270000577,324.75937270000577,325.4934143999126,z,1.0208771000616252,None,325.4938298999332,325.5094444999704,326.50988889997825,326.4936546999961,,,,,,,,,,,,,,,,,,,,,,,,,,,,,,,,,,,,,,,,,,,,,,,,,,,,,,,,,,,,,,,,,,,,,,,,,,,,,,,,,,,,b_1_,001,2024-11-27_10h43.50.038,untitled,2024.1.5,None,2024-11-27 10h44.05.490984 +0530,
triangle.png,you,0,Z,,,,,,,,,29,0,116,3,,,,,,,,,326.50988889997825,,,,,,,,,,,,,,,,,,,,,,,,,,,,,,,,,,326.494003299973,326.50988889997825,326.9939025999047,326.9939025999047,326.9939025999047,326.9939025999047,327.0105343000032,327.29381229996216,327.29381229996216,327.29381229996216,327.9283772999188,z,0.9332286999560893,None,327.9287976999767,327.94417519995477,328.944579300005,328.9284155999776,,,,,,,,,,,,,,,,,,,,,,,,,,,,,,,,,,,,,,,,,,,,,,,,,,,,,,,,,,,,,,,,,,,,,,,,,,,,,,,,,,,,b_1_,001,2024-11-27_10h43.50.038,untitled,2024.1.5,None,2024-11-27 10h44.05.490984 +0530,
square.png,stranger,0,Z,,,,,,,,,29,1,117,2,,,,,,,,,328.944579300005,,,,,,,,,,,,,,,,,,,,,,,,,,,,,,,,,,328.9287625999423,328.944579300005,329.4282196999993,329.4282196999993,329.4282196999993,329.4282196999993,329.4451554999687,329.7281921999529,329.7281921999529,329.7281921999529,330.4126068999758,z,0.9797198999440297,None,330.413023000001,330.42880899994634,331.4296530999709,331.413052399992,,,,,,,,,,,,,,,,,,,,,,,,,,,,,,,,,,,,,,,,,,,,,,,,,,,,,,,,,,,,,,,,,,,,,,,,,,,,,,,,,,,,b_1_,001,2024-11-27_10h43.50.038,untitled,2024.1.5,None,2024-11-27 10h44.05.490984 +0530,
square.png,you,1,M,,,,,,,,,29,2,118,0,,,,,,,,,331.4296530999709,,,,,,,,,,,,,,,,,,,,,,,,,,,,,,,,,,331.4134492999874,331.4296530999709,331.91284020000603,331.91284020000603,331.91284020000603,331.91284020000603,331.92979500000365,332.21283179998863,332.21283179998863,332.21283179998863,332.5637011999497,m,0.6352903000079095,None,332.5641151999589,332.5799704999663,333.580461799982,333.5641130999429,,,,,,,,,,,,,,,,,,,,,,,,,,,,,,,,,,,,,,,,,,,,,,,,,,,,,,,,,,,,,,,,,,,,,,,,,,,,,,,,,,,,b_1_,001,2024-11-27_10h43.50.038,untitled,2024.1.5,None,2024-11-27 10h44.05.490984 +0530,
triangle.png,stranger,1,M,,,,,,,,,29,3,119,1,,,,,,,,,333.580461799982,,,,,,,,,,,,,,,,,,,,,,,,,,,,,,,,,,333.56445969990455,333.580461799982,334.06422559998464,334.06422559998464,334.06422559998464,334.06422559998464,334.08055119996425,334.3641399999615,334.3641399999615,334.3641399999615,334.48149759997614,m,0.4159910000162199,None,334.48191440000664,334.49743300001137,335.4979570999276,335.4819290000014,,,,,,,,,,,,,,,,,,,,,,,,,,,,,,,,,,,,,,,,,,,,,,,,,,,,,,,,,,,,,,,,,,,,,,,,,,,,,,,,,,,,b_1_,001,2024-11-27_10h43.50.038,untitled,2024.1.5,None,2024-11-27 10h44.05.490984 +0530,
triangle.png,stranger,1,M,,,,,,,,,30,0,120,1,,,,,,,,,335.4979570999276,,,,,,,,,,,,,,,,,,,,,,,,,,,,,,,,,,335.4822802999988,335.4979570999276,335.98181729996577,335.98181729996577,335.98181729996577,335.98181729996577,335.9984591999091,336.2817578999093,336.2817578999093,336.2817578999093,336.43231339997146,m,0.4347871000645682,None,336.43273949995637,336.44841839990113,337.448879799922,337.43282879993785,,,,,,,,,,,,,,,,,,,,,,,,,,,,,,,,,,,,,,,,,,,,,,,,,,,,,,,,,,,,,,,,,,,,,,,,,,,,,,,,,,,,b_1_,001,2024-11-27_10h43.50.038,untitled,2024.1.5,None,2024-11-27 10h44.05.490984 +0530,
square.png,stranger,0,Z,,,,,,,,,30,1,121,2,,,,,,,,,337.448879799922,,,,,,,,,,,,,,,,,,,,,,,,,,,,,,,,,,337.4332037999993,337.448879799922,337.93266349995974,337.93266349995974,337.93266349995974,337.93266349995974,337.94940779998433,338.2325717000058,338.2325717000058,338.2325717000058,338.93377909995615,z,0.9859810000052676,None,338.9341994000133,338.94963409996126,339.9501450000098,339.934113199939,,,,,,,,,,,,,,,,,,,,,,,,,,,,,,,,,,,,,,,,,,,,,,,,,,,,,,,,,,,,,,,,,,,,,,,,,,,,,,,,,,,,b_1_,001,2024-11-27_10h43.50.038,untitled,2024.1.5,None,2024-11-27 10h44.05.490984 +0530,
square.png,you,1,M,,,,,,,,,30,2,122,0,,,,,,,,,339.9501450000098,,,,,,,,,,,,,,,,,,,,,,,,,,,,,,,,,,339.9344806999434,339.9501450000098,340.43411989999004,340.43411989999004,340.43411989999004,340.43411989999004,340.4506892999634,340.7338923999341,340.7338923999341,340.7338923999341,341.134913399932,m,0.6972748000407591,None,341.1353342999937,341.1510120999301,342.1516588999657,342.13522449997254,,,,,,,,,,,,,,,,,,,,,,,,,,,,,,,,,,,,,,,,,,,,,,,,,,,,,,,,,,,,,,,,,,,,,,,,,,,,,,,,,,,,b_1_,001,2024-11-27_10h43.50.038,untitled,2024.1.5,None,2024-11-27 10h44.05.490984 +0530,
triangle.png,you,0,Z,,,,,,,,,30,3,123,3,,,,,,,,,342.1516588999657,,,,,,,,,,,,,,,,,,,,,,,,,,,,,,,,,,342.13557919999585,342.1516588999657,342.6349988000002,342.6349988000002,342.6349988000002,342.6349988000002,342.6518419999629,342.93511419999413,342.93511419999413,342.93511419999413,343.402821799973,z,0.752176999929361,None,343.4032422999153,343.41866610001307,344.41935479990207,344.4028914999217,,,,,,,,,,,,,,,,,,,,,,,,,,,,,,,,,,,,,,,,,,,,,,,,,,,,,,,,,,,,,,,,,,,,,,,,,,,,,,,,,,,,b_1_,001,2024-11-27_10h43.50.038,untitled,2024.1.5,None,2024-11-27 10h44.05.490984 +0530,
square.png,stranger,0,Z,,,,,,,,,31,0,124,2,,,,,,,,,344.41935479990207,,,,,,,,,,,,,,,,,,,,,,,,,,,,,,,,,,344.4032404999016,344.41935479990207,344.90285039995797,344.90285039995797,344.90285039995797,344.90285039995797,344.91957919998094,345.2029823999619,345.2029823999619,345.2029823999619,345.5870228999993,z,0.6764877000823617,None,345.5874540999066,345.6030995999463,346.6036783999298,346.58739419991616,,,,,,,,,,,,,,,,,,,,,,,,,,,,,,,,,,,,,,,,,,,,,,,,,,,,,,,,,,,,,,,,,,,,,,,,,,,,,,,,,,,,b_1_,001,2024-11-27_10h43.50.038,untitled,2024.1.5,None,2024-11-27 10h44.05.490984 +0530,
square.png,you,1,M,,,,,,,,,31,1,125,0,,,,,,,,,346.6036783999298,,,,,,,,,,,,,,,,,,,,,,,,,,,,,,,,,,346.5877510999562,346.6036783999298,347.0872682000045,347.0872682000045,347.0872682000045,347.0872682000045,347.1038966999622,347.3873249000171,347.3873249000171,347.3873249000171,347.7714183999924,m,0.6685600000200793,None,347.7718476000009,347.78769189992454,348.78818889998365,348.7719823999796,,,,,,,,,,,,,,,,,,,,,,,,,,,,,,,,,,,,,,,,,,,,,,,,,,,,,,,,,,,,,,,,,,,,,,,,,,,,,,,,,,,,b_1_,001,2024-11-27_10h43.50.038,untitled,2024.1.5,None,2024-11-27 10h44.05.490984 +0530,
triangle.png,you,0,Z,,,,,,,,,31,2,126,3,,,,,,,,,348.78818889998365,,,,,,,,,,,,,,,,,,,,,,,,,,,,,,,,,,348.77233049995266,348.78818889998365,349.2718323000008,349.2718323000008,349.2718323000008,349.2718323000008,349.2883221999509,349.5718842999777,349.5718842999777,349.5718842999777,350.12299549998716,z,0.8427407999988645,None,350.1234126999043,350.13896379992366,351.13927119993605,351.12305809999816,,,,,,,,,,,,,,,,,,,,,,,,,,,,,,,,,,,,,,,,,,,,,,,,,,,,,,,,,,,,,,,,,,,,,,,,,,,,,,,,,,,,b_1_,001,2024-11-27_10h43.50.038,untitled,2024.1.5,None,2024-11-27 10h44.05.490984 +0530,
triangle.png,stranger,1,M,,,,,,,,,31,3,127,1,,,,,,,,,351.13927119993605,,,,,,,,,,,,,,,,,,,,,,,,,,,,,,,,,,351.1234107000055,351.13927119993605,351.62307649990544,351.62307649990544,351.62307649990544,351.62307649990544,351.63953539996874,351.92292859999,351.92292859999,351.92292859999,352.70735559996683,None,,,352.70753869996406,352.7233860999113,353.7240077999886,353.70799489994533,352.7233860999113,,,,,,,,,,,,,,,,,,,,,,,,,,,,,,,,,,,,,,,,,,,,,,,,,,,,,,,,,,,,,,,,,,,,,,,,,,,,,,,,,,,b_1_,001,2024-11-27_10h43.50.038,untitled,2024.1.5,None,2024-11-27 10h44.05.490984 +0530,
triangle.png,you,0,Z,,,,,,,,,32,0,128,3,,,,,,,,,353.7240077999886,,,,,,,,,,,,,,,,,,,,,,,,,,,,,,,,,,353.7083788999589,353.7240077999886,354.2243029999081,354.2243029999081,354.2243029999081,354.2243029999081,354.2243029999081,354.5241559999995,354.5241559999995,354.5241559999995,354.8923550999025,z,0.6668457000050694,None,354.8927681999048,354.90799649991095,355.90854939993005,355.89221159997396,,,,,,,,,,,,,,,,,,,,,,,,,,,,,,,,,,,,,,,,,,,,,,,,,,,,,,,,,,,,,,,,,,,,,,,,,,,,,,,,,,,,b_1_,001,2024-11-27_10h43.50.038,untitled,2024.1.5,None,2024-11-27 10h44.05.490984 +0530,
square.png,stranger,0,Z,,,,,,,,,32,1,129,2,,,,,,,,,355.90854939993005,,,,,,,,,,,,,,,,,,,,,,,,,,,,,,,,,,355.8925562999211,355.90854939993005,356.39189289999194,356.39189289999194,356.39189289999194,356.39189289999194,356.4088822999038,356.6921335000079,356.6921335000079,356.6921335000079,356.9928955999203,z,0.5913937999866903,None,356.99330809991807,357.00923329999205,358.00951759994496,357.99321789992973,,,,,,,,,,,,,,,,,,,,,,,,,,,,,,,,,,,,,,,,,,,,,,,,,,,,,,,,,,,,,,,,,,,,,,,,,,,,,,,,,,,,b_1_,001,2024-11-27_10h43.50.038,untitled,2024.1.5,None,2024-11-27 10h44.05.490984 +0530,
square.png,you,1,M,,,,,,,,,32,2,130,0,,,,,,,,,358.00951759994496,,,,,,,,,,,,,,,,,,,,,,,,,,,,,,,,,,357.9935661999043,358.00951759994496,358.4933152999729,358.4933152999729,358.4933152999729,358.4933152999729,358.5097458999371,358.7931562999729,358.7931562999729,358.7931562999729,359.01061210001353,z,0.5021802999544889,None,359.01102939993143,359.0268549999455,360.02726469992194,360.01082699990366,,,,,,,,,,,,,,,,,,,,,,,,,,,,,,,,,,,,,,,,,,,,,,,,,,,,,,,,,,,,,,,,,,,,,,,,,,,,,,,,,,,,b_1_,001,2024-11-27_10h43.50.038,untitled,2024.1.5,None,2024-11-27 10h44.05.490984 +0530,
triangle.png,stranger,1,M,,,,,,,,,32,3,131,1,,,,,,,,,360.02726469992194,,,,,,,,,,,,,,,,,,,,,,,,,,,,,,,,,,360.0111783000175,360.02726469992194,360.510967399925,360.510967399925,360.510967399925,360.510967399925,360.5277232999215,360.810783599969,360.810783599969,360.810783599969,360.9118580999784,m,0.3915974000701681,None,360.9122718999861,360.927739799954,361.92827549995854,361.9119501999812,,,,,,,,,,,,,,,,,,,,,,,,,,,,,,,,,,,,,,,,,,,,,,,,,,,,,,,,,,,,,,,,,,,,,,,,,,,,,,,,,,,,b_1_,001,2024-11-27_10h43.50.038,untitled,2024.1.5,None,2024-11-27 10h44.05.490984 +0530,
square.png,you,1,M,,,,,,,,,33,0,132,0,,,,,,,,,361.92827549995854,,,,,,,,,,,,,,,,,,,,,,,,,,,,,,,,,,361.91229649994057,361.92827549995854,362.41200679994654,362.41200679994654,362.41200679994654,362.41200679994654,362.4286579999607,362.7121208999306,362.7121208999306,362.7121208999306,362.79653509997297,m,0.3832953000674024,None,362.7969497999875,362.81211099994835,363.81255159992725,363.7963337999536,,,,,,,,,,,,,,,,,,,,,,,,,,,,,,,,,,,,,,,,,,,,,,,,,,,,,,,,,,,,,,,,,,,,,,,,,,,,,,,,,,,,b_1_,001,2024-11-27_10h43.50.038,untitled,2024.1.5,None,2024-11-27 10h44.05.490984 +0530,
triangle.png,stranger,1,M,,,,,,,,,33,1,133,1,,,,,,,,,363.81255159992725,,,,,,,,,,,,,,,,,,,,,,,,,,,,,,,,,,363.7966795999091,363.81255159992725,364.3130782999797,364.3130782999797,364.3130782999797,364.3130782999797,364.3130782999797,364.6128514999291,364.6128514999291,364.6128514999291,365.39702569996007,None,,,365.3972108999733,365.41321429994423,,366.39717549993657,365.41321429994423,,,,,,,,,,,,,,,,,,,,,,,,,,,,,,,,,,,,,,,,,,,,,,,,,,,,,,,,,,,,,,,,,,,,,,,,,,,,,,,,,,,b_1_,001,2024-11-27_10h43.50.038,untitled,2024.1.5,None,2024-11-27 10h44.05.490984 +0530,
triangle.png,you,0,Z,,,,,,,,,33,2,134,3,,,,,,,,,366.4140014000004,,,,,,,,,,,,,,,,,,,,,,,,,,,,,,,,,,366.3975932999747,366.4140014000004,366.89776680001523,366.89776680001523,366.89776680001523,366.89776680001523,366.91407950001303,367.1976507999934,367.1976507999934,367.1976507999934,367.71514479990583,z,0.8017399999080226,None,367.7155577999074,367.73130119999405,368.73175189993344,368.71551839995664,,,,,,,,,,,,,,,,,,,,,,,,,,,,,,,,,,,,,,,,,,,,,,,,,,,,,,,,,,,,,,,,,,,,,,,,,,,,,,,,,,,,b_1_,001,2024-11-27_10h43.50.038,untitled,2024.1.5,None,2024-11-27 10h44.05.490984 +0530,
square.png,stranger,0,Z,,,,,,,,,33,3,135,2,,,,,,,,,368.73175189993344,,,,,,,,,,,,,,,,,,,,,,,,,,,,,,,,,,368.7158632999053,368.73175189993344,369.21559419995174,369.21559419995174,369.21559419995174,369.21559419995174,369.2320327999769,369.5153776999796,369.5153776999796,369.5153776999796,369.93314759992063,m,0.712202399969101,None,369.9335621999344,369.9488983999472,370.9494460999267,370.9333150999155,,,,,,,,,,,,,,,,,,,,,,,,,,,,,,,,,,,,,,,,,,,,,,,,,,,,,,,,,,,,,,,,,,,,,,,,,,,,,,,,,,,,b_1_,001,2024-11-27_10h43.50.038,untitled,2024.1.5,None,2024-11-27 10h44.05.490984 +0530,
square.png,you,1,M,,,,,,,,,34,0,136,0,,,,,,,,,370.9494460999267,,,,,,,,,,,,,,,,,,,,,,,,,,,,,,,,,,370.93366400001105,370.9494460999267,371.4331098999828,371.4331098999828,371.4331098999828,371.4331098999828,371.4499206999317,371.7331423999276,371.7331423999276,371.7331423999276,372.11738919990603,m,0.6830004999646917,None,372.1178063999396,372.13356829993427,373.1341510999482,373.1176622000057,,,,,,,,,,,,,,,,,,,,,,,,,,,,,,,,,,,,,,,,,,,,,,,,,,,,,,,,,,,,,,,,,,,,,,,,,,,,,,,,,,,,b_1_,001,2024-11-27_10h43.50.038,untitled,2024.1.5,None,2024-11-27 10h44.05.490984 +0530,
triangle.png,you,0,Z,,,,,,,,,34,1,137,3,,,,,,,,,373.1341510999482,,,,,,,,,,,,,,,,,,,,,,,,,,,,,,,,,,373.11800799996126,373.1341510999482,373.61767710000277,373.61767710000277,373.61767710000277,373.61767710000277,373.6344652000116,373.9175839999225,373.9175839999225,373.9175839999225,374.3019112999318,z,0.6735881000058725,None,374.3023275999585,374.31805309990887,375.3184612999903,375.30207649990916,,,,,,,,,,,,,,,,,,,,,,,,,,,,,,,,,,,,,,,,,,,,,,,,,,,,,,,,,,,,,,,,,,,,,,,,,,,,,,,,,,,,b_1_,001,2024-11-27_10h43.50.038,untitled,2024.1.5,None,2024-11-27 10h44.05.490984 +0530,
triangle.png,stranger,1,M,,,,,,,,,34,2,138,1,,,,,,,,,375.3184612999903,,,,,,,,,,,,,,,,,,,,,,,,,,,,,,,,,,375.30242119997274,375.3184612999903,375.8020512999501,375.8020512999501,375.8020512999501,375.8020512999501,375.8184711999493,376.1022255999269,376.1022255999269,376.1022255999269,376.50325770000927,z,0.6981542999856174,None,376.50367449992336,376.51918679999653,377.5194269999629,377.5028836999554,,,,,,,,,,,,,,,,,,,,,,,,,,,,,,,,,,,,,,,,,,,,,,,,,,,,,,,,,,,,,,,,,,,,,,,,,,,,,,,,,,,,b_1_,001,2024-11-27_10h43.50.038,untitled,2024.1.5,None,2024-11-27 10h44.05.490984 +0530,
square.png,stranger,0,Z,,,,,,,,,34,3,139,2,,,,,,,,,377.5194269999629,,,,,,,,,,,,,,,,,,,,,,,,,,,,,,,,,,377.5032091999892,377.5194269999629,378.0031960000051,378.0031960000051,378.0031960000051,378.0031960000051,378.01971269992646,378.30322759994306,378.30322759994306,378.30322759994306,378.7542811000021,z,0.7406868999823928,None,378.75474279990885,378.7702618999174,379.7705992999254,379.7545114000095,,,,,,,,,,,,,,,,,,,,,,,,,,,,,,,,,,,,,,,,,,,,,,,,,,,,,,,,,,,,,,,,,,,,,,,,,,,,,,,,,,,,b_1_,001,2024-11-27_10h43.50.038,untitled,2024.1.5,None,2024-11-27 10h44.05.490984 +0530,
square.png,stranger,0,Z,,,,,,,,,35,0,140,2,,,,,,,,,379.7705992999254,,,,,,,,,,,,,,,,,,,,,,,,,,,,,,,,,,379.7548565999605,379.7705992999254,380.2543256999925,380.2543256999925,380.2543256999925,380.2543256999925,380.2709844999481,380.55460839997977,380.55460839997977,380.55460839997977,380.9888568999013,z,0.732619300018996,None,380.98928929993417,381.00472729990724,382.00530710001476,381.98909479996655,,,,,,,,,,,,,,,,,,,,,,,,,,,,,,,,,,,,,,,,,,,,,,,,,,,,,,,,,,,,,,,,,,,,,,,,,,,,,,,,,,,,b_1_,001,2024-11-27_10h43.50.038,untitled,2024.1.5,None,2024-11-27 10h44.05.490984 +0530,
triangle.png,you,0,Z,,,,,,,,,35,1,141,3,,,,,,,,,382.00530710001476,,,,,,,,,,,,,,,,,,,,,,,,,,,,,,,,,,381.98943839990534,382.00530710001476,382.4890436999267,382.4890436999267,382.4890436999267,382.4890436999267,382.5055531999096,382.7891108999029,382.7891108999029,382.7891108999029,383.1397206999827,m,0.6415525000775233,None,383.140139099909,383.1559363999404,384.1564556999365,384.14001609990373,,,,,,,,,,,,,,,,,,,,,,,,,,,,,,,,,,,,,,,,,,,,,,,,,,,,,,,,,,,,,,,,,,,,,,,,,,,,,,,,,,,,b_1_,001,2024-11-27_10h43.50.038,untitled,2024.1.5,None,2024-11-27 10h44.05.490984 +0530,
triangle.png,stranger,1,M,,,,,,,,,35,2,142,1,,,,,,,,,384.1564556999365,,,,,,,,,,,,,,,,,,,,,,,,,,,,,,,,,,384.1403615999734,384.1564556999365,384.6399970999919,384.6399970999919,384.6399970999919,384.6399970999919,384.65658650000114,384.93991720001213,384.93991720001213,384.93991720001213,385.72417019994464,None,,,385.72435409994796,385.7403373999987,386.7406497999327,386.724492099951,385.7403373999987,,,,,,,,,,,,,,,,,,,,,,,,,,,,,,,,,,,,,,,,,,,,,,,,,,,,,,,,,,,,,,,,,,,,,,,,,,,,,,,,,,,b_1_,001,2024-11-27_10h43.50.038,untitled,2024.1.5,None,2024-11-27 10h44.05.490984 +0530,
square.png,you,1,M,,,,,,,,,35,3,143,0,,,,,,,,,386.7406497999327,,,,,,,,,,,,,,,,,,,,,,,,,,,,,,,,,,386.7248502000002,386.7406497999327,387.24122099997476,387.24122099997476,387.24122099997476,387.24122099997476,387.24122099997476,387.541445299983,387.541445299983,387.541445299983,387.9090128999669,m,0.6613938000518829,None,387.90943170001265,387.92478399991523,388.9256706999149,388.90914389991667,,,,,,,,,,,,,,,,,,,,,,,,,,,,,,,,,,,,,,,,,,,,,,,,,,,,,,,,,,,,,,,,,,,,,,,,,,,,,,,,,,,,b_1_,001,2024-11-27_10h43.50.038,untitled,2024.1.5,None,2024-11-27 10h44.05.490984 +0530,
triangle.png,you,0,Z,,,,,,,,,36,0,144,3,,,,,,,,,388.9256706999149,,,,,,,,,,,,,,,,,,,,,,,,,,,,,,,,,,388.90949039999396,388.9256706999149,389.4089716000017,389.4089716000017,389.4089716000017,389.4089716000017,389.42558599996846,389.70933509990573,389.70933509990573,389.70933509990573,389.84319539996795,z,0.4308049000101164,None,389.84361169999465,389.85930579993874,390.8598884999519,390.8435576999327,,,,,,,,,,,,,,,,,,,,,,,,,,,,,,,,,,,,,,,,,,,,,,,,,,,,,,,,,,,,,,,,,,,,,,,,,,,,,,,,,,,,b_1_,001,2024-11-27_10h43.50.038,untitled,2024.1.5,None,2024-11-27 10h44.05.490984 +0530,
