stimulus_b,label_b,is_match_b,shouldpress_b,stimulus_2b,label_2b,is_match_2b,shouldpress_2b,p_trials.thisRepN,p_trials.thisTrialN,p_trials.thisN,p_trials.thisIndex,trials.thisRepN,trials.thisTrialN,trials.thisN,trials.thisIndex,p_trials_2.thisRepN,p_trials_2.thisTrialN,p_trials_2.thisN,p_trials_2.thisIndex,trials_2.thisRepN,trials_2.thisTrialN,trials_2.thisN,trials_2.thisIndex,thisRow.t,notes,Intruduction.started,text_3.started,key_resp_2.started,Intruduction.stopped,key_resp_2.keys,key_resp_2.rt,key_resp_2.duration,self_other_instructions.started,text_4.started,key_resp_3.started,self_other_instructions.stopped,key_resp_3.keys,key_resp_3.rt,key_resp_3.duration,self_other_info.started,square_image.started,triangle_image.started,self_label.started,other_label.started,key_resp_4.started,text_5.started,self_other_info.stopped,key_resp_4.keys,key_resp_4.rt,key_resp_4.duration,self_other_starting_2.started,text_6.started,key_resp_5.started,self_other_starting_2.stopped,key_resp_5.keys,key_resp_5.rt,key_resp_5.duration,b1.started,p_fication.started,p_fication.stopped,p_fixation_3.started,p_text.started,key_resp_p.started,p_image.started,p_fixation_3.stopped,p_text.stopped,p_image.stopped,key_resp_p.stopped,b1.stopped,key_resp_p.keys,b_feedback.started,text_15.started,b_feedback.stopped,text_15.stopped,key_resp_p.rt,key_resp_p.duration,start2.started,start_2.started,key_resp_11.started,start2.stopped,key_resp_11.keys,key_resp_11.rt,key_resp_11.duration,break_3.started,text_13.started,text_14.started,key_resp_10.started,text_13.stopped,break_3.stopped,key_resp_10.keys,key_resp_10.rt,key_resp_10.duration,self_instructions_2.started,text_10.started,key_resp_7.started,self_instructions_2.stopped,key_resp_7.keys,key_resp_7.rt,key_resp_7.duration,self_intro_2.started,circle_image.started,diamond_image.started,Disgusting_self_lable.started,Desirable_self_lable.started,key_resp_8.started,text_11.started,self_intro_2.stopped,key_resp_8.keys,key_resp_8.rt,key_resp_8.duration,self_starting_3.started,text_12.started,key_resp_9.started,self_starting_3.stopped,key_resp_9.keys,key_resp_9.rt,key_resp_9.duration,practice2.started,p_fixation_2.started,p_fixation_2.stopped,p_fixation_4.started,p_text_8.started,key_resp_6_p.started,p_image_2.started,p_fixation_4.stopped,p_text_8.stopped,p_image_2.stopped,practice2.stopped,key_resp_6_p.keys,key_resp_6_p.rt,key_resp_6_p.duration,feedback_2_p.started,text_16.started,text_16.stopped,feedback_2_p.stopped,key_resp_6_p.stopped,trial_2.started,fixation_2.started,fixation_4.started,text_8.started,key_resp_6.started,image_2.started,fixation_2.stopped,fixation_4.stopped,text_8.stopped,image_2.stopped,trial_2.stopped,key_resp_6.keys,key_resp_6.rt,key_resp_6.duration,feedback_2.started,text_9.started,text_9.stopped,feedback_2.stopped,key_resp_6.stopped,Thank_you.started,text_7.started,text_7.stopped,Thank_you.stopped,participant,session,date,expName,psychopyVersion,frameRate,expStart,
,,,,,,,,,,,,,,,,,,,,,,,,,,0.002790300059132278,0.0067743000108748674,0.0067743000108748674,2.9204476000741124,space,2.9007977000437677,None,,,,,,,,,,,,,,,,,,,,,,,,,,,,,,,,,,,,,,,,,,,,,,,,,,,,,,,,,,,,,,,,,,,,,,,,,,,,,,,,,,,,,,,,,,,,,,,,,,,,,,,,,,,,,,,,,,,,,,,,,,,,,,,,B_2,001,2024-11-27_12h08.48.067,untitled,2024.1.5,None,2024-11-27 12h09.03.004161 +0530,
,,,,,,,,,,,,,,,,,,,,,,,,,,,,,,,,,2.9204725000308827,2.9346473000478,2.9346473000478,18.676775800064206,space,15.736503200023435,None,,,,,,,,,,,,,,,,,,,,,,,,,,,,,,,,,,,,,,,,,,,,,,,,,,,,,,,,,,,,,,,,,,,,,,,,,,,,,,,,,,,,,,,,,,,,,,,,,,,,,,,,,,,,,,,,,,,,,,,,,B_2,001,2024-11-27_12h08.48.067,untitled,2024.1.5,None,2024-11-27 12h09.03.004161 +0530,
,,,,,,,,,,,,,,,,,,,,,,,,,,,,,,,,,,,,,,,,18.67680100002326,18.709612900041975,18.709612900041975,18.709612900041975,18.709612900041975,18.709612900041975,18.709612900041975,81.64152160007507,space,62.92570700007491,None,,,,,,,,,,,,,,,,,,,,,,,,,,,,,,,,,,,,,,,,,,,,,,,,,,,,,,,,,,,,,,,,,,,,,,,,,,,,,,,,,,,,,,,,,,,,,,,,,,,,,,,,,,,,,,B_2,001,2024-11-27_12h08.48.067,untitled,2024.1.5,None,2024-11-27 12h09.03.004161 +0530,
,,,,,,,,,,,,,,,,,,,,,,,,,,,,,,,,,,,,,,,,,,,,,,,,,,,81.64155200007372,81.65766300004907,81.65766300004907,89.26231690007262,space,7.593015799997374,None,,,,,,,,,,,,,,,,,,,,,,,,,,,,,,,,,,,,,,,,,,,,,,,,,,,,,,,,,,,,,,,,,,,,,,,,,,,,,,,,,,,,,,,,,,,,,,,,,,,,,,,B_2,001,2024-11-27_12h08.48.067,untitled,2024.1.5,None,2024-11-27 12h09.03.004161 +0530,
triangle.png,you,0,Z,,,,,0,0,0,3,,,,,,,,,,,,,89.27773150010034,,,,,,,,,,,,,,,,,,,,,,,,,,,,,,,,,,89.26879860006738,89.27773150010034,89.778251400101,89.778251400101,89.778251400101,89.778251400101,89.778251400101,90.0781659000786,90.0781659000786,90.0781659000786,90.87848530011252,90.86221800011117,None,90.8624319001101,90.87848530011252,91.86244870000519,,,,,,,,,,,,,,,,,,,,,,,,,,,,,,,,,,,,,,,,,,,,,,,,,,,,,,,,,,,,,,,,,,,,,,,,,,,,,,,,,,,,,,,B_2,001,2024-11-27_12h08.48.067,untitled,2024.1.5,None,2024-11-27 12h09.03.004161 +0530,
square.png,stranger,0,Z,,,,,0,1,1,2,,,,,,,,,,,,,91.87892900011502,,,,,,,,,,,,,,,,,,,,,,,,,,,,,,,,,,91.86269540002104,91.87892900011502,92.37930240004789,92.36262610007543,92.36262610007543,92.36262610007543,92.36262610007543,92.66260290006176,92.66260290006176,92.66260290006176,93.46323820005637,93.44713130011223,None,93.44726500008255,93.46323820005637,94.44756640004925,94.46369770006277,,,,,,,,,,,,,,,,,,,,,,,,,,,,,,,,,,,,,,,,,,,,,,,,,,,,,,,,,,,,,,,,,,,,,,,,,,,,,,,,,,,,,,B_2,001,2024-11-27_12h08.48.067,untitled,2024.1.5,None,2024-11-27 12h09.03.004161 +0530,
square.png,you,1,M,,,,,0,2,2,0,,,,,,,,,,,,,94.46369770006277,,,,,,,,,,,,,,,,,,,,,,,,,,,,,,,,,,94.4477968000574,94.46369770006277,94.96407960006036,94.96407960006036,94.96407960006036,94.96407960006036,94.96407960006036,95.26421820011456,95.26421820011456,95.26421820011456,96.06452080002055,96.04847690009046,None,96.04862180002965,96.06452080002055,97.048926700023,97.06507380004041,,,,,,,,,,,,,,,,,,,,,,,,,,,,,,,,,,,,,,,,,,,,,,,,,,,,,,,,,,,,,,,,,,,,,,,,,,,,,,,,,,,,,,B_2,001,2024-11-27_12h08.48.067,untitled,2024.1.5,None,2024-11-27 12h09.03.004161 +0530,
triangle.png,stranger,1,M,,,,,0,3,3,1,,,,,,,,,,,,,97.06507380004041,,,,,,,,,,,,,,,,,,,,,,,,,,,,,,,,,,97.04916590009816,97.06507380004041,97.56545590003952,97.56545590003952,97.56545590003952,97.56545590003952,97.56545590003952,,,,,97.81646750005893,m,97.81679020007141,97.83227580005769,98.81658560002688,98.83291640004609,0.24540420004632324,None,,,,,,,,,,,,,,,,,,,,,,,,,,,,,,,,,,,,,,,,,,,,,,,,,,,,,,,,,,,,,,,,,,,,,,,,,,,,,,,,,,,,B_2,001,2024-11-27_12h08.48.067,untitled,2024.1.5,None,2024-11-27 12h09.03.004161 +0530,
square.png,stranger,0,Z,,,,,1,0,4,2,,,,,,,,,,,,,98.83291640004609,,,,,,,,,,,,,,,,,,,,,,,,,,,,,,,,,,98.81682010006625,98.83291640004609,99.33295010006987,99.31652590003796,99.31652590003796,99.31652590003796,99.31652590003796,99.61634720000438,99.61634720000438,99.61634720000438,,99.81720060005318,z,99.81744270003401,99.83326240000315,100.81756790005602,100.83377750008367,0.4868531000101939,None,,,,,,,,,,,,,,,,,,,,,,,,,,,,,,,,,,,,,,,,,,,,,,,,,,,,,,,,,,,,,,,,,,,,,,,,,,,,,,,,,,,,B_2,001,2024-11-27_12h08.48.067,untitled,2024.1.5,None,2024-11-27 12h09.03.004161 +0530,
triangle.png,stranger,1,M,,,,,1,1,5,1,,,,,,,,,,,,,100.83377750008367,,,,,,,,,,,,,,,,,,,,,,,,,,,,,,,,,,100.81779860006645,100.83377750008367,101.33411070005968,101.31749150005635,101.31749150005635,101.31749150005635,101.31749150005635,101.61749150010291,101.61749150010291,101.61749150010291,,101.63478890003171,m,101.6350316000171,101.65085260011256,102.63509039999917,102.65121560008265,0.31403520004823804,None,,,,,,,,,,,,,,,,,,,,,,,,,,,,,,,,,,,,,,,,,,,,,,,,,,,,,,,,,,,,,,,,,,,,,,,,,,,,,,,,,,,,B_2,001,2024-11-27_12h08.48.067,untitled,2024.1.5,None,2024-11-27 12h09.03.004161 +0530,
square.png,you,1,M,,,,,1,2,6,0,,,,,,,,,,,,,102.65121560008265,,,,,,,,,,,,,,,,,,,,,,,,,,,,,,,,,,102.63531690009404,102.65121560008265,103.15149110008497,103.13492280000355,103.13492280000355,103.13492280000355,103.13492280000355,103.43514980003238,103.43514980003238,103.43514980003238,,103.63603190006688,m,103.63627450005151,103.65199440007564,104.63602990005165,104.65250510000624,0.48860460007563233,None,,,,,,,,,,,,,,,,,,,,,,,,,,,,,,,,,,,,,,,,,,,,,,,,,,,,,,,,,,,,,,,,,,,,,,,,,,,,,,,,,,,,B_2,001,2024-11-27_12h08.48.067,untitled,2024.1.5,None,2024-11-27 12h09.03.004161 +0530,
triangle.png,you,0,Z,,,,,1,3,7,3,,,,,,,,,,,,,104.65250510000624,,,,,,,,,,,,,,,,,,,,,,,,,,,,,,,,,,104.6362564000301,104.65250510000624,105.15256030007731,105.1359734000871,105.1359734000871,105.1359734000871,105.1359734000871,105.43598430010024,105.43598430010024,105.43598430010024,,105.73691820004024,z,105.73716090002563,105.75300570006948,106.73708550003357,106.75357710011303,0.5913047000067309,None,,,,,,,,,,,,,,,,,,,,,,,,,,,,,,,,,,,,,,,,,,,,,,,,,,,,,,,,,,,,,,,,,,,,,,,,,,,,,,,,,,,,B_2,001,2024-11-27_12h08.48.067,untitled,2024.1.5,None,2024-11-27 12h09.03.004161 +0530,
square.png,you,1,M,,,,,2,0,8,0,,,,,,,,,,,,,106.75357710011303,,,,,,,,,,,,,,,,,,,,,,,,,,,,,,,,,,106.73731390002649,106.75357710011303,107.2538584000431,107.23720130010042,107.23720130010042,107.23720130010042,107.23720130010042,,,,,107.50482540007215,m,107.50507400010247,107.52051490009762,108.50489860004745,108.52113290003035,0.2543452000245452,None,,,,,,,,,,,,,,,,,,,,,,,,,,,,,,,,,,,,,,,,,,,,,,,,,,,,,,,,,,,,,,,,,,,,,,,,,,,,,,,,,,,,B_2,001,2024-11-27_12h08.48.067,untitled,2024.1.5,None,2024-11-27 12h09.03.004161 +0530,
triangle.png,stranger,1,M,,,,,2,1,9,1,,,,,,,,,,,,,108.52113290003035,,,,,,,,,,,,,,,,,,,,,,,,,,,,,,,,,,108.50512650003657,108.52113290003035,109.02118410007097,109.00484530010726,109.00484530010726,109.00484530010726,109.00484530010726,109.30464700004086,109.30464700004086,109.30464700004086,,109.33877700008452,m,109.33901970006991,109.35461270005908,110.33921560004819,110.35531190002803,0.3308543999446556,None,,,,,,,,,,,,,,,,,,,,,,,,,,,,,,,,,,,,,,,,,,,,,,,,,,,,,,,,,,,,,,,,,,,,,,,,,,,,,,,,,,,,B_2,001,2024-11-27_12h08.48.067,untitled,2024.1.5,None,2024-11-27 12h09.03.004161 +0530,
square.png,stranger,0,Z,,,,,2,2,10,2,,,,,,,,,,,,,110.35531190002803,,,,,,,,,,,,,,,,,,,,,,,,,,,,,,,,,,110.33944380003959,110.35531190002803,110.85586260003038,110.83906150003895,110.83906150003895,110.83906150003895,110.83906150003895,111.13887380005326,111.13887380005326,111.13887380005326,,111.25659320002887,m,111.25683510000817,111.27249130001292,112.256804500008,112.2730277000228,0.41550260002259165,None,,,,,,,,,,,,,,,,,,,,,,,,,,,,,,,,,,,,,,,,,,,,,,,,,,,,,,,,,,,,,,,,,,,,,,,,,,,,,,,,,,,,B_2,001,2024-11-27_12h08.48.067,untitled,2024.1.5,None,2024-11-27 12h09.03.004161 +0530,
triangle.png,you,0,Z,,,,,2,3,11,3,,,,,,,,,,,,,112.2730277000228,,,,,,,,,,,,,,,,,,,,,,,,,,,,,,,,,,112.25703340000473,112.2730277000228,112.7734740000451,112.7566873000469,112.7566873000469,112.7566873000469,112.7566873000469,113.05655750003643,113.05655750003643,113.05655750003643,113.856943000108,113.84067180007696,None,113.84080170001835,113.856943000108,114.84152240003459,114.85766660002992,,,,,,,,,,,,,,,,,,,,,,,,,,,,,,,,,,,,,,,,,,,,,,,,,,,,,,,,,,,,,,,,,,,,,,,,,,,,,,,,,,,,,,B_2,001,2024-11-27_12h08.48.067,untitled,2024.1.5,None,2024-11-27 12h09.03.004161 +0530,
triangle.png,you,0,Z,,,,,3,0,12,3,,,,,,,,,,,,,114.85766660002992,,,,,,,,,,,,,,,,,,,,,,,,,,,,,,,,,,114.84175100002903,114.85766660002992,115.35816670011263,115.35816670011263,115.35816670011263,115.35816670011263,115.35816670011263,115.65813990007155,115.65813990007155,115.65813990007155,,115.87557760009076,z,115.87582010007463,115.89142020000145,116.87589850008953,116.89206620003097,0.5050443999934942,None,,,,,,,,,,,,,,,,,,,,,,,,,,,,,,,,,,,,,,,,,,,,,,,,,,,,,,,,,,,,,,,,,,,,,,,,,,,,,,,,,,,,B_2,001,2024-11-27_12h08.48.067,untitled,2024.1.5,None,2024-11-27 12h09.03.004161 +0530,
square.png,stranger,0,Z,,,,,3,1,13,2,,,,,,,,,,,,,116.89206620003097,,,,,,,,,,,,,,,,,,,,,,,,,,,,,,,,,,116.87612880009692,116.89206620003097,117.39236640010495,117.37581050000153,117.37581050000153,117.37581050000153,117.37581050000153,117.67558830010239,117.67558830010239,117.67558830010239,,117.72655600006692,m,117.72680100006983,117.7423852001084,118.72671960003208,118.7427575000329,0.3343968999106437,None,,,,,,,,,,,,,,,,,,,,,,,,,,,,,,,,,,,,,,,,,,,,,,,,,,,,,,,,,,,,,,,,,,,,,,,,,,,,,,,,,,,,B_2,001,2024-11-27_12h08.48.067,untitled,2024.1.5,None,2024-11-27 12h09.03.004161 +0530,
square.png,you,1,M,,,,,3,2,14,0,,,,,,,,,,,,,118.7427575000329,,,,,,,,,,,,,,,,,,,,,,,,,,,,,,,,,,118.72694830002729,118.7427575000329,119.24316690000705,119.22691030008718,119.22691030008718,119.22691030008718,119.22691030008718,119.52678870002273,119.52678870002273,119.52678870002273,,119.82745550002437,z,119.82769820000976,119.84359630011022,120.82772830000613,120.84402800002135,0.5924936999799684,None,,,,,,,,,,,,,,,,,,,,,,,,,,,,,,,,,,,,,,,,,,,,,,,,,,,,,,,,,,,,,,,,,,,,,,,,,,,,,,,,,,,,B_2,001,2024-11-27_12h08.48.067,untitled,2024.1.5,None,2024-11-27 12h09.03.004161 +0530,
triangle.png,stranger,1,M,,,,,3,3,15,1,,,,,,,,,,,,,120.84402800002135,,,,,,,,,,,,,,,,,,,,,,,,,,,,,,,,,,120.82795470010024,120.84402800002135,121.34425940003712,121.32781790010631,121.32781790010631,121.32781790010631,121.32781790010631,121.627720800112,121.627720800112,121.627720800112,,122.12876320001669,z,122.12901120004244,122.14470080006868,123.12899990007281,123.14517660008278,0.7917723999125883,None,,,,,,,,,,,,,,,,,,,,,,,,,,,,,,,,,,,,,,,,,,,,,,,,,,,,,,,,,,,,,,,,,,,,,,,,,,,,,,,,,,,,B_2,001,2024-11-27_12h08.48.067,untitled,2024.1.5,None,2024-11-27 12h09.03.004161 +0530,
triangle.png,you,0,Z,,,,,4,0,16,3,,,,,,,,,,,,,123.14517660008278,,,,,,,,,,,,,,,,,,,,,,,,,,,,,,,,,,123.12923210009467,123.14517660008278,123.6456539001083,123.62897470011376,123.62897470011376,123.62897470011376,123.62897470011376,123.92878830002155,123.92878830002155,123.92878830002155,124.72944040002767,124.71291590004694,None,124.71304600010626,124.72944040002767,125.7135512001114,125.72982070001308,,,,,,,,,,,,,,,,,,,,,,,,,,,,,,,,,,,,,,,,,,,,,,,,,,,,,,,,,,,,,,,,,,,,,,,,,,,,,,,,,,,,,,B_2,001,2024-11-27_12h08.48.067,untitled,2024.1.5,None,2024-11-27 12h09.03.004161 +0530,
triangle.png,stranger,1,M,,,,,4,1,17,1,,,,,,,,,,,,,125.72982070001308,,,,,,,,,,,,,,,,,,,,,,,,,,,,,,,,,,125.71377980010584,125.72982070001308,126.23014280002099,126.23014280002099,126.23014280002099,126.23014280002099,126.23014280002099,126.53013890003785,126.53013890003785,126.53013890003785,127.33071060001384,127.31440200004727,None,127.3145331001142,127.33071060001384,128.31488050008193,128.33131710009184,,,,,,,,,,,,,,,,,,,,,,,,,,,,,,,,,,,,,,,,,,,,,,,,,,,,,,,,,,,,,,,,,,,,,,,,,,,,,,,,,,,,,,B_2,001,2024-11-27_12h08.48.067,untitled,2024.1.5,None,2024-11-27 12h09.03.004161 +0530,
square.png,stranger,0,Z,,,,,4,2,18,2,,,,,,,,,,,,,128.33131710009184,,,,,,,,,,,,,,,,,,,,,,,,,,,,,,,,,,128.31510860007256,128.33131710009184,128.83154560008552,128.83154560008552,128.83154560008552,128.83154560008552,128.83154560008552,129.1316270000534,129.1316270000534,129.1316270000534,,129.6488559000427,z,129.6491115000099,129.6647774000885,130.64939970010892,130.66570160002448,0.81599529995583,None,,,,,,,,,,,,,,,,,,,,,,,,,,,,,,,,,,,,,,,,,,,,,,,,,,,,,,,,,,,,,,,,,,,,,,,,,,,,,,,,,,,,B_2,001,2024-11-27_12h08.48.067,untitled,2024.1.5,None,2024-11-27 12h09.03.004161 +0530,
square.png,you,1,M,,,,,4,3,19,0,,,,,,,,,,,,,130.66570160002448,,,,,,,,,,,,,,,,,,,,,,,,,,,,,,,,,,130.64963240001816,130.66570160002448,131.1660674000159,131.14952380000614,131.14952380000614,131.14952380000614,131.14952380000614,131.44949830009136,131.44949830009136,131.44949830009136,,131.66704550001305,z,131.66728820011485,131.68292690010276,132.6672423001146,132.68337950005662,0.5059127000859007,None,,,,,,,,,,,,,,,,,,,,,,,,,,,,,,,,,,,,,,,,,,,,,,,,,,,,,,,,,,,,,,,,,,,,,,,,,,,,,,,,,,,,B_2,001,2024-11-27_12h08.48.067,untitled,2024.1.5,None,2024-11-27 12h09.03.004161 +0530,
,,,,,,,,,,,,,,,,,,,,,,,,,,,,,,,,,,,,,,,,,,,,,,,,,,,,,,,,,,,,,,,,,,,,,,,,,,,,,132.667288800003,132.68337950005662,132.68337950005662,143.70680810010526,space,11.016022800002247,None,,,,,,,,,,,,,,,,,,,,,,,,,,,,,,,,,,,,,,,,,,,,,,,,,,,,,,,,,,,,,,,,,,,,,,,,,,,,,B_2,001,2024-11-27_12h08.48.067,untitled,2024.1.5,None,2024-11-27 12h09.03.004161 +0530,
triangle.png,you,0,Z,,,,,,,,,0,0,0,3,,,,,,,,,143.72238830011338,,,,,,,,,,,,,,,,,,,,,,,,,,,,,,,,,,143.7122156000696,143.72238830011338,144.22286780003924,144.22286780003924,144.22286780003924,144.22286780003924,144.22286780003924,144.522752400022,144.522752400022,144.522752400022,145.32336950011086,145.30714500008617,None,145.30745400011074,145.32336950011086,146.30712230002973,,,,,,,,,,,,,,,,,,,,,,,,,,,,,,,,,,,,,,,,,,,,,,,,,,,,,,,,,,,,,,,,,,,,,,,,,,,,,,,,,,,,,,,B_2,001,2024-11-27_12h08.48.067,untitled,2024.1.5,None,2024-11-27 12h09.03.004161 +0530,
square.png,you,1,M,,,,,,,,,0,1,1,0,,,,,,,,,146.3235805000877,,,,,,,,,,,,,,,,,,,,,,,,,,,,,,,,,,146.30748740001582,146.3235805000877,146.82398860005196,146.80736780003645,146.80736780003645,146.80736780003645,146.80736780003645,147.10727800009772,147.10727800009772,147.10727800009772,,147.25852770009078,m,147.25909370009322,147.2741436000215,148.25863170006778,148.27488270006143,0.44802590005565435,None,,,,,,,,,,,,,,,,,,,,,,,,,,,,,,,,,,,,,,,,,,,,,,,,,,,,,,,,,,,,,,,,,,,,,,,,,,,,,,,,,,,,B_2,001,2024-11-27_12h08.48.067,untitled,2024.1.5,None,2024-11-27 12h09.03.004161 +0530,
triangle.png,stranger,1,M,,,,,,,,,0,2,2,1,,,,,,,,,148.27488270006143,,,,,,,,,,,,,,,,,,,,,,,,,,,,,,,,,,148.25904730008915,148.27488270006143,148.775062300032,148.75838650006335,148.75838650006335,148.75838650006335,148.75838650006335,149.05851240002085,149.05851240002085,149.05851240002085,,149.22602350008674,z,149.22643720009364,149.24178930011112,150.22614100005012,150.24266780004837,0.4524344999808818,None,,,,,,,,,,,,,,,,,,,,,,,,,,,,,,,,,,,,,,,,,,,,,,,,,,,,,,,,,,,,,,,,,,,,,,,,,,,,,,,,,,,,B_2,001,2024-11-27_12h08.48.067,untitled,2024.1.5,None,2024-11-27 12h09.03.004161 +0530,
square.png,stranger,0,Z,,,,,,,,,0,3,3,2,,,,,,,,,150.24266780004837,,,,,,,,,,,,,,,,,,,,,,,,,,,,,,,,,,150.22648710000794,150.24266780004837,150.74281690001953,150.7260453000199,150.7260453000199,150.7260453000199,150.7260453000199,151.02605750004295,151.02605750004295,151.02605750004295,,151.16015540005174,m,151.16056820005178,151.17631200002506,152.1605726000853,152.17679100006353,0.42939649999607354,None,,,,,,,,,,,,,,,,,,,,,,,,,,,,,,,,,,,,,,,,,,,,,,,,,,,,,,,,,,,,,,,,,,,,,,,,,,,,,,,,,,,,B_2,001,2024-11-27_12h08.48.067,untitled,2024.1.5,None,2024-11-27 12h09.03.004161 +0530,
triangle.png,you,0,Z,,,,,,,,,1,0,4,3,,,,,,,,,152.17679100006353,,,,,,,,,,,,,,,,,,,,,,,,,,,,,,,,,,152.16091630002484,152.17679100006353,152.67708720010705,152.66040210006759,152.66040210006759,152.66040210006759,152.66040210006759,152.96037770004477,152.96037770004477,152.96037770004477,,153.14474360004533,z,153.1451615000842,153.1605643000221,154.14504800003488,154.1610194001114,0.4750327999936417,None,,,,,,,,,,,,,,,,,,,,,,,,,,,,,,,,,,,,,,,,,,,,,,,,,,,,,,,,,,,,,,,,,,,,,,,,,,,,,,,,,,,,B_2,001,2024-11-27_12h08.48.067,untitled,2024.1.5,None,2024-11-27 12h09.03.004161 +0530,
triangle.png,stranger,1,M,,,,,,,,,1,1,5,1,,,,,,,,,154.1610194001114,,,,,,,,,,,,,,,,,,,,,,,,,,,,,,,,,,154.14539170009084,154.1610194001114,154.66138950001914,154.64494310005102,154.64494310005102,154.64494310005102,154.64494310005102,154.944825100014,154.944825100014,154.944825100014,,155.02891870005988,z,155.02935050008819,155.04485700000077,156.02907420007978,156.04550440004095,0.3778332000365481,None,,,,,,,,,,,,,,,,,,,,,,,,,,,,,,,,,,,,,,,,,,,,,,,,,,,,,,,,,,,,,,,,,,,,,,,,,,,,,,,,,,,,B_2,001,2024-11-27_12h08.48.067,untitled,2024.1.5,None,2024-11-27 12h09.03.004161 +0530,
square.png,stranger,0,Z,,,,,,,,,1,2,6,2,,,,,,,,,156.04550440004095,,,,,,,,,,,,,,,,,,,,,,,,,,,,,,,,,,156.02942480007187,156.04550440004095,156.5457387000788,156.52903490001336,156.52903490001336,156.52903490001336,156.52903490001336,156.82902260008268,156.82902260008268,156.82902260008268,,157.1800226001069,z,157.1804438000545,157.19608470005915,158.18023470009211,158.1965094000334,0.6451607000781223,None,,,,,,,,,,,,,,,,,,,,,,,,,,,,,,,,,,,,,,,,,,,,,,,,,,,,,,,,,,,,,,,,,,,,,,,,,,,,,,,,,,,,B_2,001,2024-11-27_12h08.48.067,untitled,2024.1.5,None,2024-11-27 12h09.03.004161 +0530,
square.png,you,1,M,,,,,,,,,1,3,7,0,,,,,,,,,158.1965094000334,,,,,,,,,,,,,,,,,,,,,,,,,,,,,,,,,,158.18058360007126,158.1965094000334,158.6968281000154,158.68052720010746,158.68052720010746,158.68052720010746,158.68052720010746,158.980395300081,158.980395300081,158.980395300081,,159.58139080007095,m,159.58181190001778,159.59720070008188,160.58157840010244,160.59780420002062,0.8855277999537066,None,,,,,,,,,,,,,,,,,,,,,,,,,,,,,,,,,,,,,,,,,,,,,,,,,,,,,,,,,,,,,,,,,,,,,,,,,,,,,,,,,,,,B_2,001,2024-11-27_12h08.48.067,untitled,2024.1.5,None,2024-11-27 12h09.03.004161 +0530,
square.png,you,1,M,,,,,,,,,2,0,8,0,,,,,,,,,160.59780420002062,,,,,,,,,,,,,,,,,,,,,,,,,,,,,,,,,,160.5819247000618,160.59780420002062,161.09821190009825,161.08149190002587,161.08149190002587,161.08149190002587,161.08149190002587,,,,,161.3322460000636,z,161.3326747000683,161.34830280009191,162.3324895000551,162.34877860010602,0.24449860001914203,None,,,,,,,,,,,,,,,,,,,,,,,,,,,,,,,,,,,,,,,,,,,,,,,,,,,,,,,,,,,,,,,,,,,,,,,,,,,,,,,,,,,,B_2,001,2024-11-27_12h08.48.067,untitled,2024.1.5,None,2024-11-27 12h09.03.004161 +0530,
triangle.png,you,0,Z,,,,,,,,,2,1,9,3,,,,,,,,,162.34877860010602,,,,,,,,,,,,,,,,,,,,,,,,,,,,,,,,,,162.33283660002053,162.34877860010602,162.84903150005266,162.83277390000876,162.83277390000876,162.83277390000876,162.83277390000876,163.13228770007845,163.13228770007845,163.13228770007845,,163.31667500000913,m,163.31709470006172,163.33260830002837,164.31694200006314,164.33296380005777,0.48166950000450015,None,,,,,,,,,,,,,,,,,,,,,,,,,,,,,,,,,,,,,,,,,,,,,,,,,,,,,,,,,,,,,,,,,,,,,,,,,,,,,,,,,,,,B_2,001,2024-11-27_12h08.48.067,untitled,2024.1.5,None,2024-11-27 12h09.03.004161 +0530,
triangle.png,stranger,1,M,,,,,,,,,2,2,10,1,,,,,,,,,164.33296380005777,,,,,,,,,,,,,,,,,,,,,,,,,,,,,,,,,,164.3172854000004,164.33296380005777,164.83320760005154,164.81669120001607,164.81669120001607,164.81669120001607,164.81669120001607,,,,,165.05087990011089,z,165.05129980004858,165.06694190006237,166.05110300006345,166.0672932000598,0.2305304000619799,None,,,,,,,,,,,,,,,,,,,,,,,,,,,,,,,,,,,,,,,,,,,,,,,,,,,,,,,,,,,,,,,,,,,,,,,,,,,,,,,,,,,,B_2,001,2024-11-27_12h08.48.067,untitled,2024.1.5,None,2024-11-27 12h09.03.004161 +0530,
square.png,stranger,0,Z,,,,,,,,,2,3,11,2,,,,,,,,,166.0672932000598,,,,,,,,,,,,,,,,,,,,,,,,,,,,,,,,,,166.0514485000167,166.0672932000598,166.56776730006095,166.55108560004737,166.55108560004737,166.55108560004737,166.55108560004737,166.8508562000934,166.8508562000934,166.8508562000934,,166.93492400005925,m,166.93534600001294,166.9511419000337,167.93549810000695,167.95139350008685,0.3722667000256479,None,,,,,,,,,,,,,,,,,,,,,,,,,,,,,,,,,,,,,,,,,,,,,,,,,,,,,,,,,,,,,,,,,,,,,,,,,,,,,,,,,,,,B_2,001,2024-11-27_12h08.48.067,untitled,2024.1.5,None,2024-11-27 12h09.03.004161 +0530,
square.png,you,1,M,,,,,,,,,3,0,12,0,,,,,,,,,167.95139350008685,,,,,,,,,,,,,,,,,,,,,,,,,,,,,,,,,,167.935846800101,167.95139350008685,168.45205510000233,168.43550900008995,168.43550900008995,168.43550900008995,168.43550900008995,168.7352384000551,168.7352384000551,168.7352384000551,,168.75267690001056,m,168.75310130009893,168.76856270001736,169.75284100009594,169.76912410010118,0.30766699998639524,None,,,,,,,,,,,,,,,,,,,,,,,,,,,,,,,,,,,,,,,,,,,,,,,,,,,,,,,,,,,,,,,,,,,,,,,,,,,,,,,,,,,,B_2,001,2024-11-27_12h08.48.067,untitled,2024.1.5,None,2024-11-27 12h09.03.004161 +0530,
triangle.png,stranger,1,M,,,,,,,,,3,1,13,1,,,,,,,,,169.76912410010118,,,,,,,,,,,,,,,,,,,,,,,,,,,,,,,,,,169.7531857000431,169.76912410010118,170.26939890009817,170.25285230006557,170.25285230006557,170.25285230006557,170.25285230006557,170.55281350004952,170.55281350004952,170.55281350004952,,170.80386560002808,z,170.80428230005782,170.81995740009006,171.80382010003086,171.82037370000035,0.5425911999773234,None,,,,,,,,,,,,,,,,,,,,,,,,,,,,,,,,,,,,,,,,,,,,,,,,,,,,,,,,,,,,,,,,,,,,,,,,,,,,,,,,,,,,B_2,001,2024-11-27_12h08.48.067,untitled,2024.1.5,None,2024-11-27 12h09.03.004161 +0530,
square.png,stranger,0,Z,,,,,,,,,3,2,14,2,,,,,,,,,171.82037370000035,,,,,,,,,,,,,,,,,,,,,,,,,,,,,,,,,,171.80416870000772,171.82037370000035,172.32063070009463,172.303921700106,172.303921700106,172.303921700106,172.303921700106,172.6038336000638,172.6038336000638,172.6038336000638,,172.6379322001012,m,172.6383573000785,172.65397820004728,173.63831890001893,173.65460620005615,0.33094579994212836,None,,,,,,,,,,,,,,,,,,,,,,,,,,,,,,,,,,,,,,,,,,,,,,,,,,,,,,,,,,,,,,,,,,,,,,,,,,,,,,,,,,,,B_2,001,2024-11-27_12h08.48.067,untitled,2024.1.5,None,2024-11-27 12h09.03.004161 +0530,
triangle.png,you,0,Z,,,,,,,,,3,3,15,3,,,,,,,,,173.65460620005615,,,,,,,,,,,,,,,,,,,,,,,,,,,,,,,,,,173.6386649000924,173.65460620005615,174.154786100029,174.1381933001103,174.1381933001103,174.1381933001103,174.1381933001103,174.43820620002225,174.43820620002225,174.43820620002225,,174.47245360002853,m,174.4728749000933,174.48803970008157,175.47238760010805,175.48864990007132,0.3286941999103874,None,,,,,,,,,,,,,,,,,,,,,,,,,,,,,,,,,,,,,,,,,,,,,,,,,,,,,,,,,,,,,,,,,,,,,,,,,,,,,,,,,,,,B_2,001,2024-11-27_12h08.48.067,untitled,2024.1.5,None,2024-11-27 12h09.03.004161 +0530,
triangle.png,stranger,1,M,,,,,,,,,4,0,16,1,,,,,,,,,175.48864990007132,,,,,,,,,,,,,,,,,,,,,,,,,,,,,,,,,,175.47273530007806,175.48864990007132,175.98888390010688,175.97263620002195,175.97263620002195,175.97263620002195,175.97263620002195,176.27207100007217,176.27207100007217,176.27207100007217,,176.7234498000471,z,176.72387360001449,176.73926380008925,177.72359720000532,177.73994790005963,0.7413739000912756,None,,,,,,,,,,,,,,,,,,,,,,,,,,,,,,,,,,,,,,,,,,,,,,,,,,,,,,,,,,,,,,,,,,,,,,,,,,,,,,,,,,,,B_2,001,2024-11-27_12h08.48.067,untitled,2024.1.5,None,2024-11-27 12h09.03.004161 +0530,
triangle.png,you,0,Z,,,,,,,,,4,1,17,3,,,,,,,,,177.73994790005963,,,,,,,,,,,,,,,,,,,,,,,,,,,,,,,,,,177.72395020001568,177.73994790005963,178.24012640002184,178.2235106000444,178.2235106000444,178.2235106000444,178.2235106000444,178.52346040005796,178.52346040005796,178.52346040005796,,178.57458220003173,m,178.57500230008736,178.59038850001525,179.5744206000818,179.59076440008357,0.3467881999677047,None,,,,,,,,,,,,,,,,,,,,,,,,,,,,,,,,,,,,,,,,,,,,,,,,,,,,,,,,,,,,,,,,,,,,,,,,,,,,,,,,,,,,B_2,001,2024-11-27_12h08.48.067,untitled,2024.1.5,None,2024-11-27 12h09.03.004161 +0530,
square.png,stranger,0,Z,,,,,,,,,4,2,18,2,,,,,,,,,179.59076440008357,,,,,,,,,,,,,,,,,,,,,,,,,,,,,,,,,,179.57477330008987,179.59076440008357,180.09126250003465,180.07456060010009,180.07456060010009,180.07456060010009,180.07456060010009,180.37445920007303,180.37445920007303,180.37445920007303,,180.4752104000654,m,180.47562910011038,180.49147350003477,181.4754945000168,181.49176000000443,0.38868079998064786,None,,,,,,,,,,,,,,,,,,,,,,,,,,,,,,,,,,,,,,,,,,,,,,,,,,,,,,,,,,,,,,,,,,,,,,,,,,,,,,,,,,,,B_2,001,2024-11-27_12h08.48.067,untitled,2024.1.5,None,2024-11-27 12h09.03.004161 +0530,
square.png,you,1,M,,,,,,,,,4,3,19,0,,,,,,,,,181.49176000000443,,,,,,,,,,,,,,,,,,,,,,,,,,,,,,,,,,181.4758399000857,181.49176000000443,181.99231310002506,181.97564910002984,181.97564910002984,181.97564910002984,181.97564910002984,182.27552870009094,182.27552870009094,182.27552870009094,,182.60974100010935,m,182.6101574000204,182.62569740007166,183.60992630000692,183.62620220007375,0.6265400000847876,None,,,,,,,,,,,,,,,,,,,,,,,,,,,,,,,,,,,,,,,,,,,,,,,,,,,,,,,,,,,,,,,,,,,,,,,,,,,,,,,,,,,,B_2,001,2024-11-27_12h08.48.067,untitled,2024.1.5,None,2024-11-27 12h09.03.004161 +0530,
square.png,you,1,M,,,,,,,,,5,0,20,0,,,,,,,,,183.62620220007375,,,,,,,,,,,,,,,,,,,,,,,,,,,,,,,,,,183.61027060006745,183.62620220007375,184.12673360004555,184.1101049000863,184.1101049000863,184.1101049000863,184.1101049000863,184.4100083000958,184.4100083000958,184.4100083000958,,184.5108826000942,m,184.51129710010719,184.526857900084,185.51111570000648,185.527220100048,0.3887692999560386,None,,,,,,,,,,,,,,,,,,,,,,,,,,,,,,,,,,,,,,,,,,,,,,,,,,,,,,,,,,,,,,,,,,,,,,,,,,,,,,,,,,,,B_2,001,2024-11-27_12h08.48.067,untitled,2024.1.5,None,2024-11-27 12h09.03.004161 +0530,
triangle.png,stranger,1,M,,,,,,,,,5,1,21,1,,,,,,,,,185.527220100048,,,,,,,,,,,,,,,,,,,,,,,,,,,,,,,,,,185.51146010006778,185.527220100048,186.02758920006454,186.0110445000464,186.0110445000464,186.0110445000464,186.0110445000464,186.3110946000088,186.3110946000088,186.3110946000088,,186.36162820004392,z,186.3620515000075,186.37763630005065,187.36209410009906,187.37813870003447,0.3443150999955833,None,,,,,,,,,,,,,,,,,,,,,,,,,,,,,,,,,,,,,,,,,,,,,,,,,,,,,,,,,,,,,,,,,,,,,,,,,,,,,,,,,,,,B_2,001,2024-11-27_12h08.48.067,untitled,2024.1.5,None,2024-11-27 12h09.03.004161 +0530,
triangle.png,you,0,Z,,,,,,,,,5,2,22,3,,,,,,,,,187.37813870003447,,,,,,,,,,,,,,,,,,,,,,,,,,,,,,,,,,187.3624422000721,187.37813870003447,187.87862480001058,187.86201900010929,187.86201900010929,187.86201900010929,187.86201900010929,188.1617161000613,188.1617161000613,188.1617161000613,,188.24617930001114,m,188.24666550010443,188.26202500006184,189.2462260000175,189.26268990000244,0.36804749991279095,None,,,,,,,,,,,,,,,,,,,,,,,,,,,,,,,,,,,,,,,,,,,,,,,,,,,,,,,,,,,,,,,,,,,,,,,,,,,,,,,,,,,,B_2,001,2024-11-27_12h08.48.067,untitled,2024.1.5,None,2024-11-27 12h09.03.004161 +0530,
square.png,stranger,0,Z,,,,,,,,,5,3,23,2,,,,,,,,,189.26268990000244,,,,,,,,,,,,,,,,,,,,,,,,,,,,,,,,,,189.2465711000841,189.26268990000244,189.7632561000064,189.74629070004448,189.74629070004448,189.74629070004448,189.74629070004448,190.04618480009958,190.04618480009958,190.04618480009958,190.84654769999906,190.83038850000594,None,190.830578800058,190.84654769999906,191.8310494000325,191.84731650003232,,,,,,,,,,,,,,,,,,,,,,,,,,,,,,,,,,,,,,,,,,,,,,,,,,,,,,,,,,,,,,,,,,,,,,,,,,,,,,,,,,,,,,B_2,001,2024-11-27_12h08.48.067,untitled,2024.1.5,None,2024-11-27 12h09.03.004161 +0530,
square.png,you,1,M,,,,,,,,,6,0,24,0,,,,,,,,,191.84731650003232,,,,,,,,,,,,,,,,,,,,,,,,,,,,,,,,,,191.8314002000261,191.84731650003232,192.34762220003176,192.34762220003176,192.34762220003176,192.34762220003176,192.34762220003176,192.64759830001276,192.64759830001276,192.64759830001276,,192.6483317000093,m,192.64874190010596,192.66432660003193,193.64849060005508,193.66462720010895,0.29183020000346005,None,,,,,,,,,,,,,,,,,,,,,,,,,,,,,,,,,,,,,,,,,,,,,,,,,,,,,,,,,,,,,,,,,,,,,,,,,,,,,,,,,,,,B_2,001,2024-11-27_12h08.48.067,untitled,2024.1.5,None,2024-11-27 12h09.03.004161 +0530,
triangle.png,you,0,Z,,,,,,,,,6,1,25,3,,,,,,,,,193.66462720010895,,,,,,,,,,,,,,,,,,,,,,,,,,,,,,,,,,193.64883870002814,193.66462720010895,194.16488310007844,194.14848140010145,194.14848140010145,194.14848140010145,194.14848140010145,194.44859820010606,194.44859820010606,194.44859820010606,,194.84934920002706,z,194.84978880011477,194.8653788000811,195.8497222000733,195.8658478000434,0.6865335999755189,None,,,,,,,,,,,,,,,,,,,,,,,,,,,,,,,,,,,,,,,,,,,,,,,,,,,,,,,,,,,,,,,,,,,,,,,,,,,,,,,,,,,,B_2,001,2024-11-27_12h08.48.067,untitled,2024.1.5,None,2024-11-27 12h09.03.004161 +0530,
square.png,stranger,0,Z,,,,,,,,,6,2,26,2,,,,,,,,,195.8658478000434,,,,,,,,,,,,,,,,,,,,,,,,,,,,,,,,,,195.85006880003493,195.8658478000434,196.3664856000105,196.34954590001144,196.34954590001144,196.34954590001144,196.34954590001144,196.6496256000828,196.6496256000828,196.6496256000828,,197.4172868001042,m,197.41772600007243,197.43347820010968,198.4176609000424,198.43385060003493,1.0580104000400752,None,,,,,,,,,,,,,,,,,,,,,,,,,,,,,,,,,,,,,,,,,,,,,,,,,,,,,,,,,,,,,,,,,,,,,,,,,,,,,,,,,,,,B_2,001,2024-11-27_12h08.48.067,untitled,2024.1.5,None,2024-11-27 12h09.03.004161 +0530,
triangle.png,stranger,1,M,,,,,,,,,6,3,27,1,,,,,,,,,198.43385060003493,,,,,,,,,,,,,,,,,,,,,,,,,,,,,,,,,,198.41801230004057,198.43385060003493,198.9341032000957,198.91779340000357,198.91779340000357,198.91779340000357,198.91779340000357,199.21754780004267,199.21754780004267,199.21754780004267,,199.7019623001106,z,199.70238890009932,199.71777260000817,200.7021367000416,200.7184333000332,0.7812724999384955,None,,,,,,,,,,,,,,,,,,,,,,,,,,,,,,,,,,,,,,,,,,,,,,,,,,,,,,,,,,,,,,,,,,,,,,,,,,,,,,,,,,,,B_2,001,2024-11-27_12h08.48.067,untitled,2024.1.5,None,2024-11-27 12h09.03.004161 +0530,
triangle.png,you,0,Z,,,,,,,,,7,0,28,3,,,,,,,,,200.7184333000332,,,,,,,,,,,,,,,,,,,,,,,,,,,,,,,,,,200.70248950005043,200.7184333000332,201.21887170011178,201.20227660005912,201.20227660005912,201.20227660005912,201.20227660005912,201.5022388000507,201.5022388000507,201.5022388000507,,201.65281340002548,m,201.65323360008188,201.66891950007994,202.65319580002688,202.66933090006933,0.44925900001544505,None,,,,,,,,,,,,,,,,,,,,,,,,,,,,,,,,,,,,,,,,,,,,,,,,,,,,,,,,,,,,,,,,,,,,,,,,,,,,,,,,,,,,B_2,001,2024-11-27_12h08.48.067,untitled,2024.1.5,None,2024-11-27 12h09.03.004161 +0530,
square.png,you,1,M,,,,,,,,,7,1,29,0,,,,,,,,,202.66933090006933,,,,,,,,,,,,,,,,,,,,,,,,,,,,,,,,,,202.65354900003877,202.66933090006933,203.1697351000039,203.15298640006222,203.15298640006222,203.15298640006222,203.15298640006222,203.45301900000777,203.45301900000777,203.45301900000777,204.25364270003047,204.23714200011455,None,204.23733130004257,204.25364270003047,205.23799600009806,205.2542263000505,,,,,,,,,,,,,,,,,,,,,,,,,,,,,,,,,,,,,,,,,,,,,,,,,,,,,,,,,,,,,,,,,,,,,,,,,,,,,,,,,,,,,,B_2,001,2024-11-27_12h08.48.067,untitled,2024.1.5,None,2024-11-27 12h09.03.004161 +0530,
square.png,stranger,0,Z,,,,,,,,,7,2,30,2,,,,,,,,,205.2542263000505,,,,,,,,,,,,,,,,,,,,,,,,,,,,,,,,,,205.23834330006503,205.2542263000505,205.75463730003685,205.75463730003685,205.75463730003685,205.75463730003685,205.75463730003685,206.05446690006647,206.05446690006647,206.05446690006647,,206.0886883001076,m,206.08910700003617,206.1044802000979,207.08860800007824,207.10504850000143,0.32096310006454587,None,,,,,,,,,,,,,,,,,,,,,,,,,,,,,,,,,,,,,,,,,,,,,,,,,,,,,,,,,,,,,,,,,,,,,,,,,,,,,,,,,,,,B_2,001,2024-11-27_12h08.48.067,untitled,2024.1.5,None,2024-11-27 12h09.03.004161 +0530,
triangle.png,stranger,1,M,,,,,,,,,7,3,31,1,,,,,,,,,207.10504850000143,,,,,,,,,,,,,,,,,,,,,,,,,,,,,,,,,,207.08896250010002,207.10504850000143,207.6054662000388,207.58888320007827,207.58888320007827,207.58888320007827,207.58888320007827,207.88852120004594,207.88852120004594,207.88852120004594,,208.3730860000942,z,208.37350670003798,208.38891400001012,209.37331100006122,209.38932650000788,0.782068399945274,None,,,,,,,,,,,,,,,,,,,,,,,,,,,,,,,,,,,,,,,,,,,,,,,,,,,,,,,,,,,,,,,,,,,,,,,,,,,,,,,,,,,,B_2,001,2024-11-27_12h08.48.067,untitled,2024.1.5,None,2024-11-27 12h09.03.004161 +0530,
triangle.png,stranger,1,M,,,,,,,,,8,0,32,1,,,,,,,,,209.38932650000788,,,,,,,,,,,,,,,,,,,,,,,,,,,,,,,,,,209.37365660001524,209.38932650000788,209.88994580006693,209.87318950006738,209.87318950006738,209.87318950006738,209.87318950006738,210.17314540001098,210.17314540001098,210.17314540001098,,210.2741596000269,m,210.2745777000673,210.2899052000139,211.27442000003066,211.29043710010592,0.3848584999796003,None,,,,,,,,,,,,,,,,,,,,,,,,,,,,,,,,,,,,,,,,,,,,,,,,,,,,,,,,,,,,,,,,,,,,,,,,,,,,,,,,,,,,B_2,001,2024-11-27_12h08.48.067,untitled,2024.1.5,None,2024-11-27 12h09.03.004161 +0530,
square.png,you,1,M,,,,,,,,,8,1,33,0,,,,,,,,,211.29043710010592,,,,,,,,,,,,,,,,,,,,,,,,,,,,,,,,,,211.27477560006082,211.29043710010592,211.7907766000135,211.77407440007664,211.77407440007664,211.77407440007664,211.77407440007664,212.0743502000114,212.0743502000114,212.0743502000114,,212.39165360003244,m,212.39207710011397,212.40769470005762,213.39185910008382,213.40833880007267,0.6017216999316588,None,,,,,,,,,,,,,,,,,,,,,,,,,,,,,,,,,,,,,,,,,,,,,,,,,,,,,,,,,,,,,,,,,,,,,,,,,,,,,,,,,,,,B_2,001,2024-11-27_12h08.48.067,untitled,2024.1.5,None,2024-11-27 12h09.03.004161 +0530,
triangle.png,you,0,Z,,,,,,,,,8,2,34,3,,,,,,,,,213.40833880007267,,,,,,,,,,,,,,,,,,,,,,,,,,,,,,,,,,213.3922071000561,213.40833880007267,213.90865110000595,213.89201870001853,213.89201870001853,213.89201870001853,213.89201870001853,214.19192310003564,214.19192310003564,214.19192310003564,,214.65972900006454,m,214.66014320007525,214.67569370009005,215.65982550010085,215.6760048000142,0.7597189000807703,None,,,,,,,,,,,,,,,,,,,,,,,,,,,,,,,,,,,,,,,,,,,,,,,,,,,,,,,,,,,,,,,,,,,,,,,,,,,,,,,,,,,,B_2,001,2024-11-27_12h08.48.067,untitled,2024.1.5,None,2024-11-27 12h09.03.004161 +0530,
square.png,stranger,0,Z,,,,,,,,,8,3,35,2,,,,,,,,,215.6760048000142,,,,,,,,,,,,,,,,,,,,,,,,,,,,,,,,,,215.66017270006705,215.6760048000142,216.17623050010297,216.15992040000856,216.15992040000856,216.15992040000856,216.15992040000856,216.45983550010715,216.45983550010715,216.45983550010715,,217.1609974000603,z,217.1614178000018,217.17695030011237,218.16102810006123,218.1773903000867,0.9900998000521213,None,,,,,,,,,,,,,,,,,,,,,,,,,,,,,,,,,,,,,,,,,,,,,,,,,,,,,,,,,,,,,,,,,,,,,,,,,,,,,,,,,,,,B_2,001,2024-11-27_12h08.48.067,untitled,2024.1.5,None,2024-11-27 12h09.03.004161 +0530,
triangle.png,you,0,Z,,,,,,,,,9,0,36,3,,,,,,,,,218.1773903000867,,,,,,,,,,,,,,,,,,,,,,,,,,,,,,,,,,218.16138430009596,218.1773903000867,218.67774510011077,218.66118670010474,218.66118670010474,218.66118670010474,218.66118670010474,218.9609075000044,218.9609075000044,218.9609075000044,219.76138640008867,219.7452749001095,None,219.74546700005885,219.76138640008867,220.74579559999984,220.76189140009228,,,,,,,,,,,,,,,,,,,,,,,,,,,,,,,,,,,,,,,,,,,,,,,,,,,,,,,,,,,,,,,,,,,,,,,,,,,,,,,,,,,,,,B_2,001,2024-11-27_12h08.48.067,untitled,2024.1.5,None,2024-11-27 12h09.03.004161 +0530,
triangle.png,stranger,1,M,,,,,,,,,9,1,37,1,,,,,,,,,220.76189140009228,,,,,,,,,,,,,,,,,,,,,,,,,,,,,,,,,,220.74614050006494,220.76189140009228,221.26251680008136,221.26251680008136,221.26251680008136,221.26251680008136,221.26251680008136,221.5622721000109,221.5622721000109,221.5622721000109,,222.09686440008227,m,222.09729240008164,222.11303320003208,223.09708180010784,223.1131030000979,0.8212517999345437,None,,,,,,,,,,,,,,,,,,,,,,,,,,,,,,,,,,,,,,,,,,,,,,,,,,,,,,,,,,,,,,,,,,,,,,,,,,,,,,,,,,,,B_2,001,2024-11-27_12h08.48.067,untitled,2024.1.5,None,2024-11-27 12h09.03.004161 +0530,
square.png,you,1,M,,,,,,,,,9,2,38,0,,,,,,,,,223.1131030000979,,,,,,,,,,,,,,,,,,,,,,,,,,,,,,,,,,223.09743000008166,223.1131030000979,223.6136031000642,223.59683700010646,223.59683700010646,223.59683700010646,223.59683700010646,223.8969273000257,223.8969273000257,223.8969273000257,,224.54794130008668,m,224.54835950001143,224.5641667000018,225.5481205000542,225.56459610001184,0.9384673999156803,None,,,,,,,,,,,,,,,,,,,,,,,,,,,,,,,,,,,,,,,,,,,,,,,,,,,,,,,,,,,,,,,,,,,,,,,,,,,,,,,,,,,,B_2,001,2024-11-27_12h08.48.067,untitled,2024.1.5,None,2024-11-27 12h09.03.004161 +0530,
square.png,stranger,0,Z,,,,,,,,,9,3,39,2,,,,,,,,,225.56459610001184,,,,,,,,,,,,,,,,,,,,,,,,,,,,,,,,,,225.5484667000128,225.56459610001184,226.0649154999992,226.04805410001427,226.04805410001427,226.04805410001427,226.04805410001427,226.34809570002835,226.34809570002835,226.34809570002835,,226.5822155000642,m,226.58263550000265,226.59831490006763,227.58274450001772,227.59885400009807,0.5185477000195533,None,,,,,,,,,,,,,,,,,,,,,,,,,,,,,,,,,,,,,,,,,,,,,,,,,,,,,,,,,,,,,,,,,,,,,,,,,,,,,,,,,,,,B_2,001,2024-11-27_12h08.48.067,untitled,2024.1.5,None,2024-11-27 12h09.03.004161 +0530,
triangle.png,you,0,Z,,,,,,,,,10,0,40,3,,,,,,,,,227.59885400009807,,,,,,,,,,,,,,,,,,,,,,,,,,,,,,,,,,227.58311320003122,227.59885400009807,228.09942350001074,228.08232740010135,228.08232740010135,228.08232740010135,228.08232740010135,228.38263820006978,228.38263820006978,228.38263820006978,,228.8170523000881,m,228.81753840006422,228.83278020005673,229.81699760002084,229.83347810001578,0.7328756999922916,None,,,,,,,,,,,,,,,,,,,,,,,,,,,,,,,,,,,,,,,,,,,,,,,,,,,,,,,,,,,,,,,,,,,,,,,,,,,,,,,,,,,,B_2,001,2024-11-27_12h08.48.067,untitled,2024.1.5,None,2024-11-27 12h09.03.004161 +0530,
triangle.png,stranger,1,M,,,,,,,,,10,1,41,1,,,,,,,,,229.83347810001578,,,,,,,,,,,,,,,,,,,,,,,,,,,,,,,,,,229.81734710000455,229.83347810001578,230.33372640004382,230.31717060005758,230.31717060005758,230.31717060005758,230.31717060005758,230.61711370002013,230.61711370002013,230.61711370002013,,230.9347060000291,z,230.93512550008018,230.95078860002104,231.93493030010723,231.95095160009805,0.6101444000378251,None,,,,,,,,,,,,,,,,,,,,,,,,,,,,,,,,,,,,,,,,,,,,,,,,,,,,,,,,,,,,,,,,,,,,,,,,,,,,,,,,,,,,B_2,001,2024-11-27_12h08.48.067,untitled,2024.1.5,None,2024-11-27 12h09.03.004161 +0530,
square.png,stranger,0,Z,,,,,,,,,10,2,42,2,,,,,,,,,231.95095160009805,,,,,,,,,,,,,,,,,,,,,,,,,,,,,,,,,,231.9352794000879,231.95095160009805,232.45156910002697,232.43462880002335,232.43462880002335,232.43462880002335,232.43462880002335,232.73489720001817,232.73489720001817,232.73489720001817,,232.81897420005407,m,232.81939360010438,232.83481150004081,233.81910570000764,233.83529860002454,0.3760743000311777,None,,,,,,,,,,,,,,,,,,,,,,,,,,,,,,,,,,,,,,,,,,,,,,,,,,,,,,,,,,,,,,,,,,,,,,,,,,,,,,,,,,,,B_2,001,2024-11-27_12h08.48.067,untitled,2024.1.5,None,2024-11-27 12h09.03.004161 +0530,
square.png,you,1,M,,,,,,,,,10,3,43,0,,,,,,,,,233.83529860002454,,,,,,,,,,,,,,,,,,,,,,,,,,,,,,,,,,233.8194473000476,233.83529860002454,234.3356058000354,234.31894210004248,234.31894210004248,234.31894210004248,234.31894210004248,234.619029100053,234.619029100053,234.619029100053,235.41967600001954,235.4033717000857,None,235.40355930000078,235.41967600001954,236.40367200004403,236.42011500010267,,,,,,,,,,,,,,,,,,,,,,,,,,,,,,,,,,,,,,,,,,,,,,,,,,,,,,,,,,,,,,,,,,,,,,,,,,,,,,,,,,,,,,B_2,001,2024-11-27_12h08.48.067,untitled,2024.1.5,None,2024-11-27 12h09.03.004161 +0530,
triangle.png,you,0,Z,,,,,,,,,11,0,44,3,,,,,,,,,236.42011500010267,,,,,,,,,,,,,,,,,,,,,,,,,,,,,,,,,,236.4040216000285,236.42011500010267,236.92054020008072,236.92054020008072,236.92054020008072,236.92054020008072,236.92054020008072,237.22037940006703,237.22037940006703,237.22037940006703,,237.27126280008815,m,237.2716800000053,237.28734320006333,238.2715949000558,238.2878509000875,0.3343651000177488,None,,,,,,,,,,,,,,,,,,,,,,,,,,,,,,,,,,,,,,,,,,,,,,,,,,,,,,,,,,,,,,,,,,,,,,,,,,,,,,,,,,,,B_2,001,2024-11-27_12h08.48.067,untitled,2024.1.5,None,2024-11-27 12h09.03.004161 +0530,
triangle.png,stranger,1,M,,,,,,,,,11,1,45,1,,,,,,,,,238.2878509000875,,,,,,,,,,,,,,,,,,,,,,,,,,,,,,,,,,238.27194020000752,238.2878509000875,238.7879262000788,238.77136300003622,238.77136300003622,238.77136300003622,238.77136300003622,239.07142060005572,239.07142060005572,239.07142060005572,,239.42232670006342,z,239.42274670000188,239.4381673000753,240.4225744000869,240.43869460001588,0.6349215999944136,None,,,,,,,,,,,,,,,,,,,,,,,,,,,,,,,,,,,,,,,,,,,,,,,,,,,,,,,,,,,,,,,,,,,,,,,,,,,,,,,,,,,,B_2,001,2024-11-27_12h08.48.067,untitled,2024.1.5,None,2024-11-27 12h09.03.004161 +0530,
square.png,stranger,0,Z,,,,,,,,,11,2,46,2,,,,,,,,,240.43869460001588,,,,,,,,,,,,,,,,,,,,,,,,,,,,,,,,,,240.42292220005766,240.43869460001588,240.93901220010594,240.92245240008924,240.92245240008924,240.92245240008924,240.92245240008924,241.22259060002398,241.22259060002398,241.22259060002398,,241.2399379000999,m,241.24035840004217,241.25578520004638,242.2403896000469,242.25630300003104,0.30530619993805885,None,,,,,,,,,,,,,,,,,,,,,,,,,,,,,,,,,,,,,,,,,,,,,,,,,,,,,,,,,,,,,,,,,,,,,,,,,,,,,,,,,,,,B_2,001,2024-11-27_12h08.48.067,untitled,2024.1.5,None,2024-11-27 12h09.03.004161 +0530,
square.png,you,1,M,,,,,,,,,11,3,47,0,,,,,,,,,242.25630300003104,,,,,,,,,,,,,,,,,,,,,,,,,,,,,,,,,,242.24074560008012,242.25630300003104,242.75661400007084,242.7400072000455,242.7400072000455,242.7400072000455,242.7400072000455,243.04023630009033,243.04023630009033,243.04023630009033,,243.1909408000065,m,243.19136300007813,243.20701410004403,244.1911607000511,244.20744640007615,0.4396097999997437,None,,,,,,,,,,,,,,,,,,,,,,,,,,,,,,,,,,,,,,,,,,,,,,,,,,,,,,,,,,,,,,,,,,,,,,,,,,,,,,,,,,,,B_2,001,2024-11-27_12h08.48.067,untitled,2024.1.5,None,2024-11-27 12h09.03.004161 +0530,
triangle.png,you,0,Z,,,,,,,,,12,0,48,3,,,,,,,,,244.20744640007615,,,,,,,,,,,,,,,,,,,,,,,,,,,,,,,,,,244.19151560007595,244.20744640007615,244.70763790002093,244.69097400002647,244.69097400002647,244.69097400002647,244.69097400002647,244.99121380003635,244.99121380003635,244.99121380003635,,245.40886429999955,z,245.40929050010163,245.4245831000153,246.4089291000273,246.4252858000109,0.7122835000045598,None,,,,,,,,,,,,,,,,,,,,,,,,,,,,,,,,,,,,,,,,,,,,,,,,,,,,,,,,,,,,,,,,,,,,,,,,,,,,,,,,,,,,B_2,001,2024-11-27_12h08.48.067,untitled,2024.1.5,None,2024-11-27 12h09.03.004161 +0530,
triangle.png,stranger,1,M,,,,,,,,,12,1,49,1,,,,,,,,,246.4252858000109,,,,,,,,,,,,,,,,,,,,,,,,,,,,,,,,,,246.40927880001254,246.4252858000109,246.92552680009976,246.90901650011074,246.90901650011074,246.90901650011074,246.90901650011074,247.2088998000836,247.2088998000836,247.2088998000836,,247.26006870006677,m,247.26050319999922,247.2757386000594,248.25986530003138,248.2762884000549,0.3490298999240622,None,,,,,,,,,,,,,,,,,,,,,,,,,,,,,,,,,,,,,,,,,,,,,,,,,,,,,,,,,,,,,,,,,,,,,,,,,,,,,,,,,,,,B_2,001,2024-11-27_12h08.48.067,untitled,2024.1.5,None,2024-11-27 12h09.03.004161 +0530,
square.png,you,1,M,,,,,,,,,12,2,50,0,,,,,,,,,248.2762884000549,,,,,,,,,,,,,,,,,,,,,,,,,,,,,,,,,,248.26021640002728,248.2762884000549,248.77656610007398,248.75975130009465,248.75975130009465,248.75975130009465,248.75975130009465,249.05992710008286,249.05992710008286,249.05992710008286,,249.34409900009632,m,249.34451600001194,249.36013970000204,250.34431850002147,250.36056220007595,0.5827358999522403,None,,,,,,,,,,,,,,,,,,,,,,,,,,,,,,,,,,,,,,,,,,,,,,,,,,,,,,,,,,,,,,,,,,,,,,,,,,,,,,,,,,,,B_2,001,2024-11-27_12h08.48.067,untitled,2024.1.5,None,2024-11-27 12h09.03.004161 +0530,
square.png,stranger,0,Z,,,,,,,,,12,3,51,2,,,,,,,,,250.36056220007595,,,,,,,,,,,,,,,,,,,,,,,,,,,,,,,,,,250.34466890001204,250.36056220007595,250.86081500002183,250.8444349000929,250.8444349000929,250.8444349000929,250.8444349000929,251.14416320004966,251.14416320004966,251.14416320004966,,251.67861570010427,z,251.67903390002903,251.69467870006338,252.67908430006355,252.69503920001443,0.8185675999848172,None,,,,,,,,,,,,,,,,,,,,,,,,,,,,,,,,,,,,,,,,,,,,,,,,,,,,,,,,,,,,,,,,,,,,,,,,,,,,,,,,,,,,B_2,001,2024-11-27_12h08.48.067,untitled,2024.1.5,None,2024-11-27 12h09.03.004161 +0530,
triangle.png,stranger,1,M,,,,,,,,,13,0,52,1,,,,,,,,,252.69503920001443,,,,,,,,,,,,,,,,,,,,,,,,,,,,,,,,,,252.67943250003736,252.69503920001443,253.19543790002353,253.17882280005142,253.17882280005142,253.17882280005142,253.17882280005142,253.47873210010584,253.47873210010584,253.47873210010584,254.27944340009708,254.26291000004858,None,254.26310130010825,254.27944340009708,255.26356290001422,255.27980230003595,,,,,,,,,,,,,,,,,,,,,,,,,,,,,,,,,,,,,,,,,,,,,,,,,,,,,,,,,,,,,,,,,,,,,,,,,,,,,,,,,,,,,,B_2,001,2024-11-27_12h08.48.067,untitled,2024.1.5,None,2024-11-27 12h09.03.004161 +0530,
triangle.png,you,0,Z,,,,,,,,,13,1,53,3,,,,,,,,,255.27980230003595,,,,,,,,,,,,,,,,,,,,,,,,,,,,,,,,,,255.26391270000022,255.27980230003595,255.78024490003008,255.78024490003008,255.78024490003008,255.78024490003008,255.78024490003008,256.08013910008594,256.08013910008594,256.08013910008594,,256.4476758000674,m,256.44818480010144,256.4636937000323,257.44809110008646,257.4643656000262,0.6515129000181332,None,,,,,,,,,,,,,,,,,,,,,,,,,,,,,,,,,,,,,,,,,,,,,,,,,,,,,,,,,,,,,,,,,,,,,,,,,,,,,,,,,,,,B_2,001,2024-11-27_12h08.48.067,untitled,2024.1.5,None,2024-11-27 12h09.03.004161 +0530,
square.png,you,1,M,,,,,,,,,13,2,54,0,,,,,,,,,257.4643656000262,,,,,,,,,,,,,,,,,,,,,,,,,,,,,,,,,,257.448439000058,257.4643656000262,257.9646324000787,257.94805390003603,257.94805390003603,257.94805390003603,257.94805390003603,258.2478616000153,258.2478616000153,258.2478616000153,,258.23221770010423,m,258.23263520002365,258.2478616000153,259.2322102000471,259.24837480008136,0.27550920005887747,None,,,,,,,,,,,,,,,,,,,,,,,,,,,,,,,,,,,,,,,,,,,,,,,,,,,,,,,,,,,,,,,,,,,,,,,,,,,,,,,,,,,,B_2,001,2024-11-27_12h08.48.067,untitled,2024.1.5,None,2024-11-27 12h09.03.004161 +0530,
square.png,stranger,0,Z,,,,,,,,,13,3,55,2,,,,,,,,,259.24837480008136,,,,,,,,,,,,,,,,,,,,,,,,,,,,,,,,,,259.232561300043,259.24837480008136,259.7487000001129,259.7323761000298,259.7323761000298,259.7323761000298,259.7323761000298,260.03222790011205,260.03222790011205,260.03222790011205,,260.683222200023,m,260.68364790000487,260.6993590000784,261.68361070007086,261.69958710006904,0.9389557000249624,None,,,,,,,,,,,,,,,,,,,,,,,,,,,,,,,,,,,,,,,,,,,,,,,,,,,,,,,,,,,,,,,,,,,,,,,,,,,,,,,,,,,,B_2,001,2024-11-27_12h08.48.067,untitled,2024.1.5,None,2024-11-27 12h09.03.004161 +0530,
square.png,stranger,0,Z,,,,,,,,,14,0,56,2,,,,,,,,,261.69958710006904,,,,,,,,,,,,,,,,,,,,,,,,,,,,,,,,,,261.68396390008274,261.69958710006904,262.19992420007475,262.1835731000174,262.1835731000174,262.1835731000174,262.1835731000174,262.48335270001553,262.48335270001553,262.48335270001553,,263.0012104000198,z,263.0016346001066,263.01709080010187,264.00110130000394,264.01766500005033,0.8157083000987768,None,,,,,,,,,,,,,,,,,,,,,,,,,,,,,,,,,,,,,,,,,,,,,,,,,,,,,,,,,,,,,,,,,,,,,,,,,,,,,,,,,,,,B_2,001,2024-11-27_12h08.48.067,untitled,2024.1.5,None,2024-11-27 12h09.03.004161 +0530,
square.png,you,1,M,,,,,,,,,14,1,57,0,,,,,,,,,264.01766500005033,,,,,,,,,,,,,,,,,,,,,,,,,,,,,,,,,,264.00146140006837,264.01766500005033,264.5180001000408,264.50117450009566,264.50117450009566,264.50117450009566,264.50117450009566,264.8012912000995,264.8012912000995,264.8012912000995,,265.05219820002094,m,265.0526267000241,265.06813550007064,266.0524125000229,266.068503000075,0.5385781999211758,None,,,,,,,,,,,,,,,,,,,,,,,,,,,,,,,,,,,,,,,,,,,,,,,,,,,,,,,,,,,,,,,,,,,,,,,,,,,,,,,,,,,,B_2,001,2024-11-27_12h08.48.067,untitled,2024.1.5,None,2024-11-27 12h09.03.004161 +0530,
triangle.png,you,0,Z,,,,,,,,,14,2,58,3,,,,,,,,,266.068503000075,,,,,,,,,,,,,,,,,,,,,,,,,,,,,,,,,,266.0527567000827,266.068503000075,266.5690989000723,266.5523981000297,266.5523981000297,266.5523981000297,266.5523981000297,266.85235380008817,266.85235380008817,266.85235380008817,,267.3367142000934,z,267.3371378000593,267.35285320004914,268.33704420004506,268.35316420008894,0.7793395000044256,None,,,,,,,,,,,,,,,,,,,,,,,,,,,,,,,,,,,,,,,,,,,,,,,,,,,,,,,,,,,,,,,,,,,,,,,,,,,,,,,,,,,,B_2,001,2024-11-27_12h08.48.067,untitled,2024.1.5,None,2024-11-27 12h09.03.004161 +0530,
triangle.png,stranger,1,M,,,,,,,,,14,3,59,1,,,,,,,,,268.35316420008894,,,,,,,,,,,,,,,,,,,,,,,,,,,,,,,,,,268.3373955000425,268.35316420008894,268.8534714000998,268.83677460008767,268.83677460008767,268.83677460008767,268.83677460008767,269.1368456000928,269.1368456000928,269.1368456000928,,269.30428820010275,m,269.3047113000648,269.32039830007125,270.3046704001026,270.3208737000823,0.4626642999937758,None,,,,,,,,,,,,,,,,,,,,,,,,,,,,,,,,,,,,,,,,,,,,,,,,,,,,,,,,,,,,,,,,,,,,,,,,,,,,,,,,,,,,B_2,001,2024-11-27_12h08.48.067,untitled,2024.1.5,None,2024-11-27 12h09.03.004161 +0530,
triangle.png,stranger,1,M,,,,,,,,,15,0,60,1,,,,,,,,,270.3208737000823,,,,,,,,,,,,,,,,,,,,,,,,,,,,,,,,,,270.30501780007035,270.3208737000823,270.82142360007856,270.8047225000337,270.8047225000337,270.8047225000337,270.8047225000337,271.10439590003807,271.10439590003807,271.10439590003807,,271.48878200002946,z,271.48920790001284,271.50488070002757,272.4891487000277,272.5051823001122,0.6788475000066683,None,,,,,,,,,,,,,,,,,,,,,,,,,,,,,,,,,,,,,,,,,,,,,,,,,,,,,,,,,,,,,,,,,,,,,,,,,,,,,,,,,,,,B_2,001,2024-11-27_12h08.48.067,untitled,2024.1.5,None,2024-11-27 12h09.03.004161 +0530,
square.png,stranger,0,Z,,,,,,,,,15,1,61,2,,,,,,,,,272.5051823001122,,,,,,,,,,,,,,,,,,,,,,,,,,,,,,,,,,272.48949870001525,272.5051823001122,273.00552860007156,272.98915690009017,272.98915690009017,272.98915690009017,272.98915690009017,273.288895900012,273.288895900012,273.288895900012,,273.3230853000423,m,273.3235071001109,273.33914890000597,274.3233781000599,274.3394735000329,0.3223112999694422,None,,,,,,,,,,,,,,,,,,,,,,,,,,,,,,,,,,,,,,,,,,,,,,,,,,,,,,,,,,,,,,,,,,,,,,,,,,,,,,,,,,,,B_2,001,2024-11-27_12h08.48.067,untitled,2024.1.5,None,2024-11-27 12h09.03.004161 +0530,
square.png,you,1,M,,,,,,,,,15,2,62,0,,,,,,,,,274.3394735000329,,,,,,,,,,,,,,,,,,,,,,,,,,,,,,,,,,274.3237256000284,274.3394735000329,274.83985530002974,274.82324200007133,274.82324200007133,274.82324200007133,274.82324200007133,275.12327240000013,275.12327240000013,275.12327240000013,,275.2407495001098,m,275.24117140006274,275.2566979000112,276.240756800049,276.25718960002996,0.4124047999503091,None,,,,,,,,,,,,,,,,,,,,,,,,,,,,,,,,,,,,,,,,,,,,,,,,,,,,,,,,,,,,,,,,,,,,,,,,,,,,,,,,,,,,B_2,001,2024-11-27_12h08.48.067,untitled,2024.1.5,None,2024-11-27 12h09.03.004161 +0530,
triangle.png,you,0,Z,,,,,,,,,15,3,63,3,,,,,,,,,276.25718960002996,,,,,,,,,,,,,,,,,,,,,,,,,,,,,,,,,,276.24111270008143,276.25718960002996,276.75745800009463,276.74121850007214,276.74121850007214,276.74121850007214,276.74121850007214,277.0410594000714,277.0410594000714,277.0410594000714,,277.0916533001,m,277.0920804000925,277.1074367000256,278.09189070004504,278.1083557000384,0.3492287000408396,None,,,,,,,,,,,,,,,,,,,,,,,,,,,,,,,,,,,,,,,,,,,,,,,,,,,,,,,,,,,,,,,,,,,,,,,,,,,,,,,,,,,,B_2,001,2024-11-27_12h08.48.067,untitled,2024.1.5,None,2024-11-27 12h09.03.004161 +0530,
triangle.png,you,0,Z,,,,,,,,,16,0,64,3,,,,,,,,,278.1083557000384,,,,,,,,,,,,,,,,,,,,,,,,,,,,,,,,,,278.0922484000912,278.1083557000384,278.6085779001005,278.5917074000463,278.5917074000463,278.5917074000463,278.5917074000463,278.8916860000463,278.8916860000463,278.8916860000463,,278.9260235000402,z,278.9264420000836,278.9417529000202,279.92621010006405,279.94248040008824,0.33167610003147274,None,,,,,,,,,,,,,,,,,,,,,,,,,,,,,,,,,,,,,,,,,,,,,,,,,,,,,,,,,,,,,,,,,,,,,,,,,,,,,,,,,,,,B_2,001,2024-11-27_12h08.48.067,untitled,2024.1.5,None,2024-11-27 12h09.03.004161 +0530,
triangle.png,stranger,1,M,,,,,,,,,16,1,65,1,,,,,,,,,279.94248040008824,,,,,,,,,,,,,,,,,,,,,,,,,,,,,,,,,,279.92656640009955,279.94248040008824,280.4426552000223,280.4261310000438,280.4261310000438,280.4261310000438,280.4261310000438,280.7260771000292,280.7260771000292,280.7260771000292,,280.8103278001072,m,280.81082310003694,280.82615880004596,281.8104116000468,281.8268159000436,0.37308589997701347,None,,,,,,,,,,,,,,,,,,,,,,,,,,,,,,,,,,,,,,,,,,,,,,,,,,,,,,,,,,,,,,,,,,,,,,,,,,,,,,,,,,,,B_2,001,2024-11-27_12h08.48.067,untitled,2024.1.5,None,2024-11-27 12h09.03.004161 +0530,
square.png,you,1,M,,,,,,,,,16,2,66,0,,,,,,,,,281.8268159000436,,,,,,,,,,,,,,,,,,,,,,,,,,,,,,,,,,281.810758800013,281.8268159000436,282.32684290001635,282.3103580001043,282.3103580001043,282.3103580001043,282.3103580001043,282.6105703000212,282.6105703000212,282.6105703000212,,282.89453970000613,m,282.8949581000488,282.91080630000215,283.8948663000483,283.9109911000123,0.580929399933666,None,,,,,,,,,,,,,,,,,,,,,,,,,,,,,,,,,,,,,,,,,,,,,,,,,,,,,,,,,,,,,,,,,,,,,,,,,,,,,,,,,,,,B_2,001,2024-11-27_12h08.48.067,untitled,2024.1.5,None,2024-11-27 12h09.03.004161 +0530,
square.png,stranger,0,Z,,,,,,,,,16,3,67,2,,,,,,,,,283.9109911000123,,,,,,,,,,,,,,,,,,,,,,,,,,,,,,,,,,283.89521490002517,283.9109911000123,284.41156930010766,284.3949315000791,284.3949315000791,284.3949315000791,284.3949315000791,284.6949707000749,284.6949707000749,284.6949707000749,,285.1792061000597,z,285.1796252001077,285.1952163000824,286.17946830007713,286.1956574000651,0.7688427999382839,None,,,,,,,,,,,,,,,,,,,,,,,,,,,,,,,,,,,,,,,,,,,,,,,,,,,,,,,,,,,,,,,,,,,,,,,,,,,,,,,,,,,,B_2,001,2024-11-27_12h08.48.067,untitled,2024.1.5,None,2024-11-27 12h09.03.004161 +0530,
triangle.png,you,0,Z,,,,,,,,,17,0,68,3,,,,,,,,,286.1956574000651,,,,,,,,,,,,,,,,,,,,,,,,,,,,,,,,,,286.17981550004333,286.1956574000651,286.6960747000994,286.6794104001019,286.6794104001019,286.6794104001019,286.6794104001019,286.9792595000472,286.9792595000472,286.9792595000472,,287.1135837000329,m,287.1139997000573,287.12956430006307,288.1137715000659,288.1300649000332,0.41958929994143546,None,,,,,,,,,,,,,,,,,,,,,,,,,,,,,,,,,,,,,,,,,,,,,,,,,,,,,,,,,,,,,,,,,,,,,,,,,,,,,,,,,,,,B_2,001,2024-11-27_12h08.48.067,untitled,2024.1.5,None,2024-11-27 12h09.03.004161 +0530,
square.png,stranger,0,Z,,,,,,,,,17,1,69,2,,,,,,,,,288.1300649000332,,,,,,,,,,,,,,,,,,,,,,,,,,,,,,,,,,288.11411890003365,288.1300649000332,288.6305311000906,288.6139495000243,288.6139495000243,288.6139495000243,288.6139495000243,288.9138108000625,288.9138108000625,288.9138108000625,,289.2979304000037,m,289.2983645000495,289.31411820009816,290.2980360001093,290.3145830000285,0.6775767999934033,None,,,,,,,,,,,,,,,,,,,,,,,,,,,,,,,,,,,,,,,,,,,,,,,,,,,,,,,,,,,,,,,,,,,,,,,,,,,,,,,,,,,,B_2,001,2024-11-27_12h08.48.067,untitled,2024.1.5,None,2024-11-27 12h09.03.004161 +0530,
triangle.png,stranger,1,M,,,,,,,,,17,2,70,1,,,,,,,,,290.3145830000285,,,,,,,,,,,,,,,,,,,,,,,,,,,,,,,,,,290.29838270007167,290.3145830000285,290.8148878000211,290.7979990000604,290.7979990000604,290.7979990000604,290.7979990000604,291.097964100074,291.097964100074,291.097964100074,,291.08224150002934,m,291.08267900010105,291.097964100074,292.0822432000423,292.0986128000077,0.27796880004461855,None,,,,,,,,,,,,,,,,,,,,,,,,,,,,,,,,,,,,,,,,,,,,,,,,,,,,,,,,,,,,,,,,,,,,,,,,,,,,,,,,,,,,B_2,001,2024-11-27_12h08.48.067,untitled,2024.1.5,None,2024-11-27 12h09.03.004161 +0530,
square.png,you,1,M,,,,,,,,,17,3,71,0,,,,,,,,,292.0986128000077,,,,,,,,,,,,,,,,,,,,,,,,,,,,,,,,,,292.08259800006635,292.0986128000077,292.5989010001067,292.5825392000843,292.5825392000843,292.5825392000843,292.5825392000843,,,,,292.8498994000256,z,292.8503224001033,292.8657549000345,293.84990530007053,293.86632690008264,0.25633150001522154,None,,,,,,,,,,,,,,,,,,,,,,,,,,,,,,,,,,,,,,,,,,,,,,,,,,,,,,,,,,,,,,,,,,,,,,,,,,,,,,,,,,,,B_2,001,2024-11-27_12h08.48.067,untitled,2024.1.5,None,2024-11-27 12h09.03.004161 +0530,
triangle.png,stranger,1,M,,,,,,,,,18,0,72,1,,,,,,,,,293.86632690008264,,,,,,,,,,,,,,,,,,,,,,,,,,,,,,,,,,293.85025690007024,293.86632690008264,294.36647950008046,294.35023540002294,294.35023540002294,294.35023540002294,294.35023540002294,294.6498639000347,294.6498639000347,294.6498639000347,,294.7341623000102,m,294.73458390007727,294.75001180008985,295.7342322000768,295.75054680008907,0.3773125000298023,None,,,,,,,,,,,,,,,,,,,,,,,,,,,,,,,,,,,,,,,,,,,,,,,,,,,,,,,,,,,,,,,,,,,,,,,,,,,,,,,,,,,,B_2,001,2024-11-27_12h08.48.067,untitled,2024.1.5,None,2024-11-27 12h09.03.004161 +0530,
triangle.png,you,0,Z,,,,,,,,,18,1,73,3,,,,,,,,,295.75054680008907,,,,,,,,,,,,,,,,,,,,,,,,,,,,,,,,,,295.7345846000826,295.75054680008907,296.25075220002327,296.23447790008504,296.23447790008504,296.23447790008504,296.23447790008504,296.53416830010246,296.53416830010246,296.53416830010246,,296.651893000002,m,296.6523076000158,296.6676643000683,297.6520714000799,297.6681765000103,0.41613439994398504,None,,,,,,,,,,,,,,,,,,,,,,,,,,,,,,,,,,,,,,,,,,,,,,,,,,,,,,,,,,,,,,,,,,,,,,,,,,,,,,,,,,,,B_2,001,2024-11-27_12h08.48.067,untitled,2024.1.5,None,2024-11-27 12h09.03.004161 +0530,
square.png,stranger,0,Z,,,,,,,,,18,2,74,2,,,,,,,,,297.6681765000103,,,,,,,,,,,,,,,,,,,,,,,,,,,,,,,,,,297.65242200007197,297.6681765000103,298.16871450003237,298.15204559999984,298.15204559999984,298.15204559999984,298.15204559999984,298.45199600001797,298.45199600001797,298.45199600001797,,298.53625240002293,m,298.5366766001098,298.55199280008674,299.5362354000099,299.5524615000468,0.3740156999556348,None,,,,,,,,,,,,,,,,,,,,,,,,,,,,,,,,,,,,,,,,,,,,,,,,,,,,,,,,,,,,,,,,,,,,,,,,,,,,,,,,,,,,B_2,001,2024-11-27_12h08.48.067,untitled,2024.1.5,None,2024-11-27 12h09.03.004161 +0530,
square.png,you,1,M,,,,,,,,,18,3,75,0,,,,,,,,,299.5524615000468,,,,,,,,,,,,,,,,,,,,,,,,,,,,,,,,,,299.53660040011164,299.5524615000468,300.0530107000377,300.03639540006407,300.03639540006407,300.03639540006407,300.03639540006407,300.3363313000882,300.3363313000882,300.3363313000882,301.1367089000996,301.12046410003677,None,301.12065480009187,301.1367089000996,302.1211566000711,302.1372143001063,,,,,,,,,,,,,,,,,,,,,,,,,,,,,,,,,,,,,,,,,,,,,,,,,,,,,,,,,,,,,,,,,,,,,,,,,,,,,,,,,,,,,,B_2,001,2024-11-27_12h08.48.067,untitled,2024.1.5,None,2024-11-27 12h09.03.004161 +0530,
square.png,stranger,0,Z,,,,,,,,,19,0,76,2,,,,,,,,,302.1372143001063,,,,,,,,,,,,,,,,,,,,,,,,,,,,,,,,,,302.12150990008377,302.1372143001063,302.6378372000763,302.6378372000763,302.6378372000763,302.6378372000763,302.6378372000763,302.93761630007066,302.93761630007066,302.93761630007066,,303.1718998000724,z,303.1723226000322,303.1878591000568,304.1718812000472,304.1881052000681,0.5218856999417767,None,,,,,,,,,,,,,,,,,,,,,,,,,,,,,,,,,,,,,,,,,,,,,,,,,,,,,,,,,,,,,,,,,,,,,,,,,,,,,,,,,,,,B_2,001,2024-11-27_12h08.48.067,untitled,2024.1.5,None,2024-11-27 12h09.03.004161 +0530,
triangle.png,stranger,1,M,,,,,,,,,19,1,77,1,,,,,,,,,304.1881052000681,,,,,,,,,,,,,,,,,,,,,,,,,,,,,,,,,,304.1722256001085,304.1881052000681,304.6884322001133,304.6718564000912,304.6718564000912,304.6718564000912,304.6718564000912,304.97206850000657,304.97206850000657,304.97206850000657,,305.42281150002964,m,305.4232390000252,305.43873270007316,306.42304380005226,306.43936170008965,0.7398455999791622,None,,,,,,,,,,,,,,,,,,,,,,,,,,,,,,,,,,,,,,,,,,,,,,,,,,,,,,,,,,,,,,,,,,,,,,,,,,,,,,,,,,,,B_2,001,2024-11-27_12h08.48.067,untitled,2024.1.5,None,2024-11-27 12h09.03.004161 +0530,
square.png,you,1,M,,,,,,,,,19,2,78,0,,,,,,,,,306.43936170008965,,,,,,,,,,,,,,,,,,,,,,,,,,,,,,,,,,306.4233911000192,306.43936170008965,306.9395039000083,306.923179000034,306.923179000034,306.923179000034,306.923179000034,307.22322460007854,307.22322460007854,307.22322460007854,,307.80772670009173,m,307.80815230007283,307.82354720006697,308.80758800008334,308.82380960008595,0.8834354999708012,None,,,,,,,,,,,,,,,,,,,,,,,,,,,,,,,,,,,,,,,,,,,,,,,,,,,,,,,,,,,,,,,,,,,,,,,,,,,,,,,,,,,,B_2,001,2024-11-27_12h08.48.067,untitled,2024.1.5,None,2024-11-27 12h09.03.004161 +0530,
triangle.png,you,0,Z,,,,,,,,,19,3,79,3,,,,,,,,,308.82380960008595,,,,,,,,,,,,,,,,,,,,,,,,,,,,,,,,,,308.80793620005716,308.82380960008595,309.3241870000493,309.30751350009814,309.30751350009814,309.30751350009814,309.30751350009814,309.607611500076,309.607611500076,309.607611500076,,309.8252519000089,m,309.825688800076,309.8411904000677,310.82532290008385,310.8417147001019,0.5082017999375239,None,,,,,,,,,,,,,,,,,,,,,,,,,,,,,,,,,,,,,,,,,,,,,,,,,,,,,,,,,,,,,,,,,,,,,,,,,,,,,,,,,,,,B_2,001,2024-11-27_12h08.48.067,untitled,2024.1.5,None,2024-11-27 12h09.03.004161 +0530,
triangle.png,you,0,Z,,,,,,,,,20,0,80,3,,,,,,,,,310.8417147001019,,,,,,,,,,,,,,,,,,,,,,,,,,,,,,,,,,310.8256699000485,310.8417147001019,311.3420799000887,311.3253880001139,311.3253880001139,311.3253880001139,311.3253880001139,311.6253715000348,311.6253715000348,311.6253715000348,,312.0596000000369,z,312.06002390000504,312.0755274000112,313.05986450007185,313.07594040001277,0.7326933000003919,None,,,,,,,,,,,,,,,,,,,,,,,,,,,,,,,,,,,,,,,,,,,,,,,,,,,,,,,,,,,,,,,,,,,,,,,,,,,,,,,,,,,,B_2,001,2024-11-27_12h08.48.067,untitled,2024.1.5,None,2024-11-27 12h09.03.004161 +0530,
triangle.png,stranger,1,M,,,,,,,,,20,1,81,1,,,,,,,,,313.07594040001277,,,,,,,,,,,,,,,,,,,,,,,,,,,,,,,,,,313.0602095000213,313.07594040001277,313.57648590009194,313.55976020009257,313.55976020009257,313.55976020009257,313.55976020009257,313.8597127000103,313.8597127000103,313.8597127000103,,314.5941415000707,m,314.5945608000038,314.61038940004073,315.59466110006906,315.610604000045,1.0311561999842525,None,,,,,,,,,,,,,,,,,,,,,,,,,,,,,,,,,,,,,,,,,,,,,,,,,,,,,,,,,,,,,,,,,,,,,,,,,,,,,,,,,,,,B_2,001,2024-11-27_12h08.48.067,untitled,2024.1.5,None,2024-11-27 12h09.03.004161 +0530,
square.png,stranger,0,Z,,,,,,,,,20,2,82,2,,,,,,,,,315.610604000045,,,,,,,,,,,,,,,,,,,,,,,,,,,,,,,,,,315.595010500052,315.610604000045,316.11103260004893,316.09435140003916,316.09435140003916,316.09435140003916,316.09435140003916,316.39442580007017,316.39442580007017,316.39442580007017,,316.74525120004546,z,316.7456744000083,316.7615043000551,317.7456761000212,317.76187730010133,0.6489176000468433,None,,,,,,,,,,,,,,,,,,,,,,,,,,,,,,,,,,,,,,,,,,,,,,,,,,,,,,,,,,,,,,,,,,,,,,,,,,,,,,,,,,,,B_2,001,2024-11-27_12h08.48.067,untitled,2024.1.5,None,2024-11-27 12h09.03.004161 +0530,
square.png,you,1,M,,,,,,,,,20,3,83,0,,,,,,,,,317.76187730010133,,,,,,,,,,,,,,,,,,,,,,,,,,,,,,,,,,317.7460270000156,317.76187730010133,318.26200660003815,318.24573010008316,318.24573010008316,318.24573010008316,318.24573010008316,318.54552770010196,318.54552770010196,318.54552770010196,,318.6795776000945,m,318.6799956000177,318.69565520004835,319.67975700006355,319.69630460010376,0.42569629999343306,None,,,,,,,,,,,,,,,,,,,,,,,,,,,,,,,,,,,,,,,,,,,,,,,,,,,,,,,,,,,,,,,,,,,,,,,,,,,,,,,,,,,,B_2,001,2024-11-27_12h08.48.067,untitled,2024.1.5,None,2024-11-27 12h09.03.004161 +0530,
square.png,stranger,0,Z,,,,,,,,,21,0,84,2,,,,,,,,,319.69630460010376,,,,,,,,,,,,,,,,,,,,,,,,,,,,,,,,,,319.680104100029,319.69630460010376,320.1966607000213,320.18002840003464,320.18002840003464,320.18002840003464,320.18002840003464,320.47994650003966,320.47994650003966,320.47994650003966,,321.06402070005424,z,321.06445380009245,321.08010390005074,322.06466880009975,322.0806328000035,0.8788032999727875,None,,,,,,,,,,,,,,,,,,,,,,,,,,,,,,,,,,,,,,,,,,,,,,,,,,,,,,,,,,,,,,,,,,,,,,,,,,,,,,,,,,,,B_2,001,2024-11-27_12h08.48.067,untitled,2024.1.5,None,2024-11-27 12h09.03.004161 +0530,
square.png,you,1,M,,,,,,,,,21,1,85,0,,,,,,,,,322.0806328000035,,,,,,,,,,,,,,,,,,,,,,,,,,,,,,,,,,322.0650233000051,322.0806328000035,322.5810352000408,322.56468920002226,322.56468920002226,322.56468920002226,322.56468920002226,322.8645514000673,322.8645514000673,322.8645514000673,,323.0152123000007,m,323.01563400006853,323.0311263001058,324.0156789000612,324.0318593000993,0.4464374000672251,None,,,,,,,,,,,,,,,,,,,,,,,,,,,,,,,,,,,,,,,,,,,,,,,,,,,,,,,,,,,,,,,,,,,,,,,,,,,,,,,,,,,,B_2,001,2024-11-27_12h08.48.067,untitled,2024.1.5,None,2024-11-27 12h09.03.004161 +0530,
triangle.png,stranger,1,M,,,,,,,,,21,2,86,1,,,,,,,,,324.0318593000993,,,,,,,,,,,,,,,,,,,,,,,,,,,,,,,,,,324.016029600054,324.0318593000993,324.5319726000307,324.51560520008206,324.51560520008206,324.51560520008206,324.51560520008206,324.81559420004487,324.81559420004487,324.81559420004487,,325.53305450000335,m,325.5334831000073,325.5490331000183,326.53339710005093,326.5494688000763,1.003713299985975,None,,,,,,,,,,,,,,,,,,,,,,,,,,,,,,,,,,,,,,,,,,,,,,,,,,,,,,,,,,,,,,,,,,,,,,,,,,,,,,,,,,,,B_2,001,2024-11-27_12h08.48.067,untitled,2024.1.5,None,2024-11-27 12h09.03.004161 +0530,
triangle.png,you,0,Z,,,,,,,,,21,3,87,3,,,,,,,,,326.5494688000763,,,,,,,,,,,,,,,,,,,,,,,,,,,,,,,,,,326.53374740004074,326.5494688000763,327.0498362000799,327.03348580002785,327.03348580002785,327.03348580002785,327.03348580002785,327.3335966001032,327.3335966001032,327.3335966001032,,327.8511679000221,z,327.8515811000252,327.86724070005585,328.85154920001514,328.86742960009724,0.8102665999904275,None,,,,,,,,,,,,,,,,,,,,,,,,,,,,,,,,,,,,,,,,,,,,,,,,,,,,,,,,,,,,,,,,,,,,,,,,,,,,,,,,,,,,B_2,001,2024-11-27_12h08.48.067,untitled,2024.1.5,None,2024-11-27 12h09.03.004161 +0530,
square.png,stranger,0,Z,,,,,,,,,22,0,88,2,,,,,,,,,328.86742960009724,,,,,,,,,,,,,,,,,,,,,,,,,,,,,,,,,,328.8518991000019,328.86742960009724,329.3678320000181,329.3515913001029,329.3515913001029,329.3515913001029,329.3515913001029,329.651180600049,329.651180600049,329.651180600049,330.45176300010644,330.4352866000263,None,330.4354742000578,330.45176300010644,331.4358349000104,331.4522735000355,,,,,,,,,,,,,,,,,,,,,,,,,,,,,,,,,,,,,,,,,,,,,,,,,,,,,,,,,,,,,,,,,,,,,,,,,,,,,,,,,,,,,,B_2,001,2024-11-27_12h08.48.067,untitled,2024.1.5,None,2024-11-27 12h09.03.004161 +0530,
square.png,you,1,M,,,,,,,,,22,1,89,0,,,,,,,,,331.4522735000355,,,,,,,,,,,,,,,,,,,,,,,,,,,,,,,,,,331.43618250009604,331.4522735000355,331.9526596000651,331.9526596000651,331.9526596000651,331.9526596000651,331.9526596000651,332.25263630005065,332.25263630005065,332.25263630005065,,333.02061440004036,z,333.0210309000686,333.0363638000563,334.0205745000858,334.03678840002976,1.0655559999868274,None,,,,,,,,,,,,,,,,,,,,,,,,,,,,,,,,,,,,,,,,,,,,,,,,,,,,,,,,,,,,,,,,,,,,,,,,,,,,,,,,,,,,B_2,001,2024-11-27_12h08.48.067,untitled,2024.1.5,None,2024-11-27 12h09.03.004161 +0530,
triangle.png,you,0,Z,,,,,,,,,22,2,90,3,,,,,,,,,334.03678840002976,,,,,,,,,,,,,,,,,,,,,,,,,,,,,,,,,,334.02092330006417,334.03678840002976,334.53733820002526,334.5206818000879,334.5206818000879,334.5206818000879,334.5206818000879,334.8204838000238,334.8204838000238,334.8204838000238,,335.1548754000105,z,335.155298900092,335.1707082000794,336.15496710001025,336.1711971000768,0.6265860999701545,None,,,,,,,,,,,,,,,,,,,,,,,,,,,,,,,,,,,,,,,,,,,,,,,,,,,,,,,,,,,,,,,,,,,,,,,,,,,,,,,,,,,,B_2,001,2024-11-27_12h08.48.067,untitled,2024.1.5,None,2024-11-27 12h09.03.004161 +0530,
triangle.png,stranger,1,M,,,,,,,,,22,3,91,1,,,,,,,,,336.1711971000768,,,,,,,,,,,,,,,,,,,,,,,,,,,,,,,,,,336.1553152000997,336.1711971000768,336.67158670001663,336.6551484001102,336.6551484001102,336.6551484001102,336.6551484001102,336.95499050000217,336.95499050000217,336.95499050000217,,337.5393549000146,m,337.53977180004586,337.55546620010864,338.53972730005626,338.555933100055,0.8721630999352783,None,,,,,,,,,,,,,,,,,,,,,,,,,,,,,,,,,,,,,,,,,,,,,,,,,,,,,,,,,,,,,,,,,,,,,,,,,,,,,,,,,,,,B_2,001,2024-11-27_12h08.48.067,untitled,2024.1.5,None,2024-11-27 12h09.03.004161 +0530,
triangle.png,stranger,1,M,,,,,,,,,23,0,92,1,,,,,,,,,338.555933100055,,,,,,,,,,,,,,,,,,,,,,,,,,,,,,,,,,338.5400780000491,338.555933100055,339.05616500007454,339.0397327000974,339.0397327000974,339.0397327000974,339.0397327000974,339.3394973000977,339.3394973000977,339.3394973000977,340.1398944000248,340.1238013000693,None,340.1239882000955,340.1398944000248,341.1244745000731,341.1405694000423,,,,,,,,,,,,,,,,,,,,,,,,,,,,,,,,,,,,,,,,,,,,,,,,,,,,,,,,,,,,,,,,,,,,,,,,,,,,,,,,,,,,,,B_2,001,2024-11-27_12h08.48.067,untitled,2024.1.5,None,2024-11-27 12h09.03.004161 +0530,
square.png,stranger,0,Z,,,,,,,,,23,1,93,2,,,,,,,,,341.1405694000423,,,,,,,,,,,,,,,,,,,,,,,,,,,,,,,,,,341.1248311001109,341.1405694000423,341.6407890000846,341.6407890000846,341.6407890000846,341.6407890000846,341.6407890000846,341.94081550010014,341.94081550010014,341.94081550010014,,342.47523300000466,z,342.4756599001121,342.4912595000351,343.4756727000931,343.4918333000969,0.8213119999272749,None,,,,,,,,,,,,,,,,,,,,,,,,,,,,,,,,,,,,,,,,,,,,,,,,,,,,,,,,,,,,,,,,,,,,,,,,,,,,,,,,,,,,B_2,001,2024-11-27_12h08.48.067,untitled,2024.1.5,None,2024-11-27 12h09.03.004161 +0530,
triangle.png,you,0,Z,,,,,,,,,23,2,94,3,,,,,,,,,343.4918333000969,,,,,,,,,,,,,,,,,,,,,,,,,,,,,,,,,,343.4760249000974,343.4918333000969,343.9922512000194,343.97535640001297,343.97535640001297,343.97535640001297,343.97535640001297,344.2753633001121,344.2753633001121,344.2753633001121,,344.8433935000794,m,344.8438170000445,344.8590428000316,345.8434375000652,345.8595450000139,0.8594193999888375,None,,,,,,,,,,,,,,,,,,,,,,,,,,,,,,,,,,,,,,,,,,,,,,,,,,,,,,,,,,,,,,,,,,,,,,,,,,,,,,,,,,,,B_2,001,2024-11-27_12h08.48.067,untitled,2024.1.5,None,2024-11-27 12h09.03.004161 +0530,
square.png,you,1,M,,,,,,,,,23,3,95,0,,,,,,,,,345.8595450000139,,,,,,,,,,,,,,,,,,,,,,,,,,,,,,,,,,345.84378580003977,345.8595450000139,346.35999890009407,346.34327870002016,346.34327870002016,346.34327870002016,346.34327870002016,346.6434583000373,346.6434583000373,346.6434583000373,,347.16100740002,m,347.16142570006195,347.1767681000056,348.16131500003394,348.1776272000279,0.8075517000397667,None,,,,,,,,,,,,,,,,,,,,,,,,,,,,,,,,,,,,,,,,,,,,,,,,,,,,,,,,,,,,,,,,,,,,,,,,,,,,,,,,,,,,B_2,001,2024-11-27_12h08.48.067,untitled,2024.1.5,None,2024-11-27 12h09.03.004161 +0530,
triangle.png,you,0,Z,,,,,,,,,24,0,96,3,,,,,,,,,348.1776272000279,,,,,,,,,,,,,,,,,,,,,,,,,,,,,,,,,,348.1616657000268,348.1776272000279,348.6779176000273,348.6610121000558,348.6610121000558,348.6610121000558,348.6610121000558,348.96131490007974,348.96131490007974,348.96131490007974,,349.57944650005084,z,349.5798652000958,349.59480240009725,350.579262400046,350.59527120005805,0.9176151999272406,None,,,,,,,,,,,,,,,,,,,,,,,,,,,,,,,,,,,,,,,,,,,,,,,,,,,,,,,,,,,,,,,,,,,,,,,,,,,,,,,,,,,,B_2,001,2024-11-27_12h08.48.067,untitled,2024.1.5,None,2024-11-27 12h09.03.004161 +0530,
square.png,you,1,M,,,,,,,,,24,1,97,0,,,,,,,,,350.59527120005805,,,,,,,,,,,,,,,,,,,,,,,,,,,,,,,,,,350.57961180002894,350.59527120005805,351.09562880010344,351.0790755000198,351.0790755000198,351.0790755000198,351.0790755000198,351.3792224000208,351.3792224000208,351.3792224000208,,351.9634700000752,m,351.96388580009807,351.9795467000222,352.9635895000538,352.9800793000031,0.8687128000892699,None,,,,,,,,,,,,,,,,,,,,,,,,,,,,,,,,,,,,,,,,,,,,,,,,,,,,,,,,,,,,,,,,,,,,,,,,,,,,,,,,,,,,B_2,001,2024-11-27_12h08.48.067,untitled,2024.1.5,None,2024-11-27 12h09.03.004161 +0530,
square.png,stranger,0,Z,,,,,,,,,24,2,98,2,,,,,,,,,352.9800793000031,,,,,,,,,,,,,,,,,,,,,,,,,,,,,,,,,,352.9639326001052,352.9800793000031,353.4803948000772,353.4638211000711,353.4638211000711,353.4638211000711,353.4638211000711,353.7636874000309,353.7636874000309,353.7636874000309,,354.1312760000583,z,354.13170870009344,354.14701700001024,355.13168930006213,355.14785840001423,0.6553779999958351,None,,,,,,,,,,,,,,,,,,,,,,,,,,,,,,,,,,,,,,,,,,,,,,,,,,,,,,,,,,,,,,,,,,,,,,,,,,,,,,,,,,,,B_2,001,2024-11-27_12h08.48.067,untitled,2024.1.5,None,2024-11-27 12h09.03.004161 +0530,
triangle.png,stranger,1,M,,,,,,,,,24,3,99,1,,,,,,,,,355.14785840001423,,,,,,,,,,,,,,,,,,,,,,,,,,,,,,,,,,355.1320335000055,355.14785840001423,355.6481855000602,355.631294800085,355.631294800085,355.631294800085,355.631294800085,355.9315878000343,355.9315878000343,355.9315878000343,,356.53229670005385,m,356.53271350008436,356.5484915000852,357.53270620002877,357.54906090011355,0.899726300034672,None,,,,,,,,,,,,,,,,,,,,,,,,,,,,,,,,,,,,,,,,,,,,,,,,,,,,,,,,,,,,,,,,,,,,,,,,,,,,,,,,,,,,B_2,001,2024-11-27_12h08.48.067,untitled,2024.1.5,None,2024-11-27 12h09.03.004161 +0530,
triangle.png,stranger,1,M,,,,,,,,,25,0,100,1,,,,,,,,,357.54906090011355,,,,,,,,,,,,,,,,,,,,,,,,,,,,,,,,,,357.5330534001114,357.54906090011355,358.049379000091,358.0328657000791,358.0328657000791,358.0328657000791,358.0328657000791,358.3326713000424,358.3326713000424,358.3326713000424,,358.4001029001083,z,358.40058900008444,358.41622410004493,359.4002757000271,359.4165298000444,0.3654938000254333,None,,,,,,,,,,,,,,,,,,,,,,,,,,,,,,,,,,,,,,,,,,,,,,,,,,,,,,,,,,,,,,,,,,,,,,,,,,,,,,,,,,,,B_2,001,2024-11-27_12h08.48.067,untitled,2024.1.5,None,2024-11-27 12h09.03.004161 +0530,
square.png,you,1,M,,,,,,,,,25,1,101,0,,,,,,,,,359.4165298000444,,,,,,,,,,,,,,,,,,,,,,,,,,,,,,,,,,359.40062310011126,359.4165298000444,359.91676860000007,359.90040630009025,359.90040630009025,359.90040630009025,359.90040630009025,360.20038400008343,360.20038400008343,360.20038400008343,,360.33449400006793,m,360.33491460001096,360.35050860000774,361.33468160009943,361.35099630011246,0.41862020001281053,None,,,,,,,,,,,,,,,,,,,,,,,,,,,,,,,,,,,,,,,,,,,,,,,,,,,,,,,,,,,,,,,,,,,,,,,,,,,,,,,,,,,,B_2,001,2024-11-27_12h08.48.067,untitled,2024.1.5,None,2024-11-27 12h09.03.004161 +0530,
square.png,stranger,0,Z,,,,,,,,,25,2,102,2,,,,,,,,,361.35099630011246,,,,,,,,,,,,,,,,,,,,,,,,,,,,,,,,,,361.3350260000443,361.35099630011246,361.8512847000966,361.8347265000921,361.8347265000921,361.8347265000921,361.8347265000921,362.13457950006705,362.13457950006705,362.13457950006705,,362.33533640007954,z,362.3357650000835,362.3514081001049,363.3358720000833,363.35197530000005,0.49531579995527864,None,,,,,,,,,,,,,,,,,,,,,,,,,,,,,,,,,,,,,,,,,,,,,,,,,,,,,,,,,,,,,,,,,,,,,,,,,,,,,,,,,,,,B_2,001,2024-11-27_12h08.48.067,untitled,2024.1.5,None,2024-11-27 12h09.03.004161 +0530,
triangle.png,you,0,Z,,,,,,,,,25,3,103,3,,,,,,,,,363.35197530000005,,,,,,,,,,,,,,,,,,,,,,,,,,,,,,,,,,363.33628950000275,363.35197530000005,363.85216600005515,363.83577910007443,363.83577910007443,363.83577910007443,363.83577910007443,364.1355431000702,364.1355431000702,364.1355431000702,,364.15297110006213,m,364.15346290008165,364.16920870007016,365.15296660002787,365.16917480004486,0.3033461000304669,None,,,,,,,,,,,,,,,,,,,,,,,,,,,,,,,,,,,,,,,,,,,,,,,,,,,,,,,,,,,,,,,,,,,,,,,,,,,,,,,,,,,,B_2,001,2024-11-27_12h08.48.067,untitled,2024.1.5,None,2024-11-27 12h09.03.004161 +0530,
triangle.png,you,0,Z,,,,,,,,,26,0,104,3,,,,,,,,,365.16917480004486,,,,,,,,,,,,,,,,,,,,,,,,,,,,,,,,,,365.1533251000801,365.16917480004486,365.6701129000867,365.65311020007357,365.65311020007357,365.65311020007357,365.65311020007357,,,,,365.9044395000674,z,365.90485620009713,365.92000610008836,366.90433430008125,366.92054090008605,0.24911970004905015,None,,,,,,,,,,,,,,,,,,,,,,,,,,,,,,,,,,,,,,,,,,,,,,,,,,,,,,,,,,,,,,,,,,,,,,,,,,,,,,,,,,,,B_2,001,2024-11-27_12h08.48.067,untitled,2024.1.5,None,2024-11-27 12h09.03.004161 +0530,
square.png,stranger,0,Z,,,,,,,,,26,1,105,2,,,,,,,,,366.92054090008605,,,,,,,,,,,,,,,,,,,,,,,,,,,,,,,,,,366.9046811000444,366.92054090008605,367.42088760004845,367.4040896000806,367.4040896000806,367.4040896000806,367.4040896000806,367.70410310011357,367.70410310011357,367.70410310011357,,367.78822620003484,m,367.78865770006087,367.80429020000156,368.78865640005097,368.8049494000152,0.3716735999332741,None,,,,,,,,,,,,,,,,,,,,,,,,,,,,,,,,,,,,,,,,,,,,,,,,,,,,,,,,,,,,,,,,,,,,,,,,,,,,,,,,,,,,B_2,001,2024-11-27_12h08.48.067,untitled,2024.1.5,None,2024-11-27 12h09.03.004161 +0530,
square.png,you,1,M,,,,,,,,,26,2,106,0,,,,,,,,,368.8049494000152,,,,,,,,,,,,,,,,,,,,,,,,,,,,,,,,,,368.78900470002554,368.8049494000152,369.30496600002516,369.2885450000176,369.2885450000176,369.2885450000176,369.2885450000176,369.5885229000123,369.5885229000123,369.5885229000123,370.3889721001033,370.37274280004203,None,370.37293060007505,370.3889721001033,371.37331120006274,371.38924899999984,,,,,,,,,,,,,,,,,,,,,,,,,,,,,,,,,,,,,,,,,,,,,,,,,,,,,,,,,,,,,,,,,,,,,,,,,,,,,,,,,,,,,,B_2,001,2024-11-27_12h08.48.067,untitled,2024.1.5,None,2024-11-27 12h09.03.004161 +0530,
triangle.png,stranger,1,M,,,,,,,,,26,3,107,1,,,,,,,,,371.38924899999984,,,,,,,,,,,,,,,,,,,,,,,,,,,,,,,,,,371.3736569000175,371.38924899999984,371.88970980001613,371.88970980001613,371.88970980001613,371.88970980001613,371.88970980001613,372.18990290001966,372.18990290001966,372.18990290001966,372.9902494000271,372.97414510010276,None,372.9743338000262,372.9902494000271,373.9743377000559,373.99086300004274,,,,,,,,,,,,,,,,,,,,,,,,,,,,,,,,,,,,,,,,,,,,,,,,,,,,,,,,,,,,,,,,,,,,,,,,,,,,,,,,,,,,,,B_2,001,2024-11-27_12h08.48.067,untitled,2024.1.5,None,2024-11-27 12h09.03.004161 +0530,
triangle.png,stranger,1,M,,,,,,,,,27,0,108,1,,,,,,,,,373.99086300004274,,,,,,,,,,,,,,,,,,,,,,,,,,,,,,,,,,373.974683700013,373.99086300004274,374.49086010002065,374.49086010002065,374.49086010002065,374.49086010002065,374.49086010002065,374.7912477001082,374.7912477001082,374.7912477001082,375.5914525000844,375.57531900005415,None,375.57550680008717,375.5914525000844,376.5759333000751,376.592165100039,,,,,,,,,,,,,,,,,,,,,,,,,,,,,,,,,,,,,,,,,,,,,,,,,,,,,,,,,,,,,,,,,,,,,,,,,,,,,,,,,,,,,,B_2,001,2024-11-27_12h08.48.067,untitled,2024.1.5,None,2024-11-27 12h09.03.004161 +0530,
triangle.png,you,0,Z,,,,,,,,,27,1,109,3,,,,,,,,,376.592165100039,,,,,,,,,,,,,,,,,,,,,,,,,,,,,,,,,,376.57627860002685,376.592165100039,377.0926064000232,377.0926064000232,377.0926064000232,377.0926064000232,377.0926064000232,377.3925072000129,377.3925072000129,377.3925072000129,,377.4600297000725,m,377.4604519000277,377.47575930005405,378.46018370008096,378.47622290009167,0.3504947000183165,None,,,,,,,,,,,,,,,,,,,,,,,,,,,,,,,,,,,,,,,,,,,,,,,,,,,,,,,,,,,,,,,,,,,,,,,,,,,,,,,,,,,,B_2,001,2024-11-27_12h08.48.067,untitled,2024.1.5,None,2024-11-27 12h09.03.004161 +0530,
square.png,you,1,M,,,,,,,,,27,2,110,0,,,,,,,,,378.47622290009167,,,,,,,,,,,,,,,,,,,,,,,,,,,,,,,,,,378.46053850010503,378.47622290009167,378.97671170008834,378.96023990004323,378.96023990004323,378.96023990004323,378.96023990004323,379.26024130010046,379.26024130010046,379.26024130010046,,379.66110360005405,z,379.6615203000838,379.6767663001083,380.66140040010214,380.6776448000455,0.6906164999818429,None,,,,,,,,,,,,,,,,,,,,,,,,,,,,,,,,,,,,,,,,,,,,,,,,,,,,,,,,,,,,,,,,,,,,,,,,,,,,,,,,,,,,B_2,001,2024-11-27_12h08.48.067,untitled,2024.1.5,None,2024-11-27 12h09.03.004161 +0530,
square.png,stranger,0,Z,,,,,,,,,27,3,111,2,,,,,,,,,380.6776448000455,,,,,,,,,,,,,,,,,,,,,,,,,,,,,,,,,,380.66174000001047,380.6776448000455,381.17771870002616,381.1611201000633,381.1611201000633,381.1611201000633,381.1611201000633,381.46129080001265,381.46129080001265,381.46129080001265,,381.6787781000603,m,381.67919809999876,381.69472690008115,382.679013300105,382.69537370000035,0.513712799991481,None,,,,,,,,,,,,,,,,,,,,,,,,,,,,,,,,,,,,,,,,,,,,,,,,,,,,,,,,,,,,,,,,,,,,,,,,,,,,,,,,,,,,B_2,001,2024-11-27_12h08.48.067,untitled,2024.1.5,None,2024-11-27 12h09.03.004161 +0530,
square.png,you,1,M,,,,,,,,,28,0,112,0,,,,,,,,,382.69537370000035,,,,,,,,,,,,,,,,,,,,,,,,,,,,,,,,,,382.6793550000293,382.69537370000035,383.1953095000936,383.1787162000546,383.1787162000546,383.1787162000546,383.1787162000546,383.47898040001746,383.47898040001746,383.47898040001746,,383.4797808000585,z,383.4802015000023,383.4957797001116,384.48019570007455,384.4960956000723,0.29941790003795177,None,,,,,,,,,,,,,,,,,,,,,,,,,,,,,,,,,,,,,,,,,,,,,,,,,,,,,,,,,,,,,,,,,,,,,,,,,,,,,,,,,,,,B_2,001,2024-11-27_12h08.48.067,untitled,2024.1.5,None,2024-11-27 12h09.03.004161 +0530,
triangle.png,stranger,1,M,,,,,,,,,28,1,113,1,,,,,,,,,384.4960956000723,,,,,,,,,,,,,,,,,,,,,,,,,,,,,,,,,,384.48054730007425,384.4960956000723,384.99646620010026,384.97980530001223,384.97980530001223,384.97980530001223,384.97980530001223,385.2797212000005,385.2797212000005,385.2797212000005,386.08016310003586,386.06394250004087,None,386.06413400010206,386.08016310003586,387.06414130004123,387.0805177000584,,,,,,,,,,,,,,,,,,,,,,,,,,,,,,,,,,,,,,,,,,,,,,,,,,,,,,,,,,,,,,,,,,,,,,,,,,,,,,,,,,,,,,B_2,001,2024-11-27_12h08.48.067,untitled,2024.1.5,None,2024-11-27 12h09.03.004161 +0530,
square.png,stranger,0,Z,,,,,,,,,28,2,114,2,,,,,,,,,387.0805177000584,,,,,,,,,,,,,,,,,,,,,,,,,,,,,,,,,,387.0644764000317,387.0805177000584,387.58095400000457,387.58095400000457,387.58095400000457,387.58095400000457,387.58095400000457,387.881061400054,387.881061400054,387.881061400054,,388.4157204000512,z,388.4161388000939,388.4314399000723,389.4156234000111,389.4319247000385,0.8254726000595838,None,,,,,,,,,,,,,,,,,,,,,,,,,,,,,,,,,,,,,,,,,,,,,,,,,,,,,,,,,,,,,,,,,,,,,,,,,,,,,,,,,,,,B_2,001,2024-11-27_12h08.48.067,untitled,2024.1.5,None,2024-11-27 12h09.03.004161 +0530,
triangle.png,you,0,Z,,,,,,,,,28,3,115,3,,,,,,,,,389.4319247000385,,,,,,,,,,,,,,,,,,,,,,,,,,,,,,,,,,389.4159696000861,389.4319247000385,389.93222240009345,389.91590040002484,389.91590040002484,389.91590040002484,389.91590040002484,390.21577630005777,390.21577630005777,390.21577630005777,,390.29970770003274,m,390.30013510002755,390.31603430001996,391.3001070000464,391.31635700003244,0.3795912000350654,None,,,,,,,,,,,,,,,,,,,,,,,,,,,,,,,,,,,,,,,,,,,,,,,,,,,,,,,,,,,,,,,,,,,,,,,,,,,,,,,,,,,,B_2,001,2024-11-27_12h08.48.067,untitled,2024.1.5,None,2024-11-27 12h09.03.004161 +0530,
square.png,you,1,M,,,,,,,,,29,0,116,0,,,,,,,,,391.31635700003244,,,,,,,,,,,,,,,,,,,,,,,,,,,,,,,,,,391.300455300021,391.31635700003244,391.8166932000313,391.79991390008945,391.79991390008945,391.79991390008945,391.79991390008945,392.1000446000835,392.1000446000835,392.1000446000835,,392.1508996000048,z,392.1513241000939,392.16681270010304,393.1511360000586,393.1674774000421,0.33976429991889745,None,,,,,,,,,,,,,,,,,,,,,,,,,,,,,,,,,,,,,,,,,,,,,,,,,,,,,,,,,,,,,,,,,,,,,,,,,,,,,,,,,,,,B_2,001,2024-11-27_12h08.48.067,untitled,2024.1.5,None,2024-11-27 12h09.03.004161 +0530,
square.png,stranger,0,Z,,,,,,,,,29,1,117,2,,,,,,,,,393.1674774000421,,,,,,,,,,,,,,,,,,,,,,,,,,,,,,,,,,393.15154080011416,393.1674774000421,393.6676482000621,393.6510302000679,393.6510302000679,393.6510302000679,393.6510302000679,393.9510766000021,393.9510766000021,393.9510766000021,,394.5352215000894,z,394.5356411000248,394.5513380001066,395.5356923000654,395.5518904000055,0.8764398000203073,None,,,,,,,,,,,,,,,,,,,,,,,,,,,,,,,,,,,,,,,,,,,,,,,,,,,,,,,,,,,,,,,,,,,,,,,,,,,,,,,,,,,,B_2,001,2024-11-27_12h08.48.067,untitled,2024.1.5,None,2024-11-27 12h09.03.004161 +0530,
triangle.png,you,0,Z,,,,,,,,,29,2,118,3,,,,,,,,,395.5518904000055,,,,,,,,,,,,,,,,,,,,,,,,,,,,,,,,,,395.5360401000362,395.5518904000055,396.05223230004776,396.03566430008505,396.03566430008505,396.03566430008505,396.03566430008505,396.33562490006443,396.33562490006443,396.33562490006443,,396.5696413000114,z,396.5700603000587,396.5857820000965,397.56983090005815,397.5862630000338,0.5304040999617428,None,,,,,,,,,,,,,,,,,,,,,,,,,,,,,,,,,,,,,,,,,,,,,,,,,,,,,,,,,,,,,,,,,,,,,,,,,,,,,,,,,,,,B_2,001,2024-11-27_12h08.48.067,untitled,2024.1.5,None,2024-11-27 12h09.03.004161 +0530,
triangle.png,stranger,1,M,,,,,,,,,29,3,119,1,,,,,,,,,397.5862630000338,,,,,,,,,,,,,,,,,,,,,,,,,,,,,,,,,,397.5701821000548,397.5862630000338,398.08638340001926,398.0701779000228,398.0701779000228,398.0701779000228,398.0701779000228,398.37003910006024,398.37003910006024,398.37003910006024,,398.9041339000687,m,398.90456430008635,398.92032250005286,399.90446160000283,399.9207328000339,0.825262900092639,None,,,,,,,,,,,,,,,,,,,,,,,,,,,,,,,,,,,,,,,,,,,,,,,,,,,,,,,,,,,,,,,,,,,,,,,,,,,,,,,,,,,,B_2,001,2024-11-27_12h08.48.067,untitled,2024.1.5,None,2024-11-27 12h09.03.004161 +0530,
triangle.png,stranger,1,M,,,,,,,,,30,0,120,1,,,,,,,,,399.9207328000339,,,,,,,,,,,,,,,,,,,,,,,,,,,,,,,,,,399.90481390000787,399.9207328000339,400.4209337000502,400.4043460000539,400.4043460000539,400.4043460000539,400.4043460000539,400.7043369000312,400.7043369000312,400.7043369000312,,400.8887410000898,m,400.88916700007394,400.904800600023,401.8889695000835,401.90515370003413,0.46988900005817413,None,,,,,,,,,,,,,,,,,,,,,,,,,,,,,,,,,,,,,,,,,,,,,,,,,,,,,,,,,,,,,,,,,,,,,,,,,,,,,,,,,,,,B_2,001,2024-11-27_12h08.48.067,untitled,2024.1.5,None,2024-11-27 12h09.03.004161 +0530,
square.png,you,1,M,,,,,,,,,30,1,121,0,,,,,,,,,401.90515370003413,,,,,,,,,,,,,,,,,,,,,,,,,,,,,,,,,,401.88931360002607,401.90515370003413,402.4053465001052,402.38875530008227,402.38875530008227,402.38875530008227,402.38875530008227,402.68868590006605,402.68868590006605,402.68868590006605,,402.95621070009656,m,402.95664610003587,402.97226470010355,403.9564367000712,403.97288450005,0.5580376000143588,None,,,,,,,,,,,,,,,,,,,,,,,,,,,,,,,,,,,,,,,,,,,,,,,,,,,,,,,,,,,,,,,,,,,,,,,,,,,,,,,,,,,,B_2,001,2024-11-27_12h08.48.067,untitled,2024.1.5,None,2024-11-27 12h09.03.004161 +0530,
triangle.png,you,0,Z,,,,,,,,,30,2,122,3,,,,,,,,,403.97288450005,,,,,,,,,,,,,,,,,,,,,,,,,,,,,,,,,,403.95678510004655,403.97288450005,404.4732892001048,404.45670170011,404.45670170011,404.45670170011,404.45670170011,404.75657510000747,404.75657510000747,404.75657510000747,,405.1075502000749,m,405.107973300037,405.12340070004575,406.10763650003355,406.12413630005904,0.6463317999150604,None,,,,,,,,,,,,,,,,,,,,,,,,,,,,,,,,,,,,,,,,,,,,,,,,,,,,,,,,,,,,,,,,,,,,,,,,,,,,,,,,,,,,B_2,001,2024-11-27_12h08.48.067,untitled,2024.1.5,None,2024-11-27 12h09.03.004161 +0530,
square.png,stranger,0,Z,,,,,,,,,30,3,123,2,,,,,,,,,406.12413630005904,,,,,,,,,,,,,,,,,,,,,,,,,,,,,,,,,,406.1079877000302,406.12413630005904,406.6241377000697,406.60753510007635,406.60753510007635,406.60753510007635,406.60753510007635,406.90764550003223,406.90764550003223,406.90764550003223,,407.19182810001075,z,407.19224440003745,407.20787430007476,408.1921312001068,408.20841530000325,0.5796759999357164,None,,,,,,,,,,,,,,,,,,,,,,,,,,,,,,,,,,,,,,,,,,,,,,,,,,,,,,,,,,,,,,,,,,,,,,,,,,,,,,,,,,,,B_2,001,2024-11-27_12h08.48.067,untitled,2024.1.5,None,2024-11-27 12h09.03.004161 +0530,
triangle.png,you,0,Z,,,,,,,,,31,0,124,3,,,,,,,,,408.20841530000325,,,,,,,,,,,,,,,,,,,,,,,,,,,,,,,,,,408.19247880007606,408.20841530000325,408.7087448000675,408.69207600003574,408.69207600003574,408.69207600003574,408.69207600003574,408.9921562001109,408.9921562001109,408.9921562001109,,409.0762510000495,m,409.07667780003976,409.0919166000094,410.07635230000596,410.09260060009547,0.379549500066787,None,,,,,,,,,,,,,,,,,,,,,,,,,,,,,,,,,,,,,,,,,,,,,,,,,,,,,,,,,,,,,,,,,,,,,,,,,,,,,,,,,,,,B_2,001,2024-11-27_12h08.48.067,untitled,2024.1.5,None,2024-11-27 12h09.03.004161 +0530,
square.png,you,1,M,,,,,,,,,31,1,125,0,,,,,,,,,410.09260060009547,,,,,,,,,,,,,,,,,,,,,,,,,,,,,,,,,,410.07669780007564,410.09260060009547,410.59284850000404,410.57639729999937,410.57639729999937,410.57639729999937,410.57639729999937,,,,,410.79396550008096,z,410.7944536000723,410.8097852000501,411.7940311001148,411.81017810001504,0.21471369999926537,None,,,,,,,,,,,,,,,,,,,,,,,,,,,,,,,,,,,,,,,,,,,,,,,,,,,,,,,,,,,,,,,,,,,,,,,,,,,,,,,,,,,,B_2,001,2024-11-27_12h08.48.067,untitled,2024.1.5,None,2024-11-27 12h09.03.004161 +0530,
square.png,stranger,0,Z,,,,,,,,,31,2,126,2,,,,,,,,,411.81017810001504,,,,,,,,,,,,,,,,,,,,,,,,,,,,,,,,,,411.79438050009776,411.81017810001504,412.3103868000908,412.29381210007705,412.29381210007705,412.29381210007705,412.29381210007705,412.5938874001149,412.5938874001149,412.5938874001149,,413.0284662001068,m,413.0288892000681,413.04411950008944,414.02860800002236,414.0446337000467,0.7289682000409812,None,,,,,,,,,,,,,,,,,,,,,,,,,,,,,,,,,,,,,,,,,,,,,,,,,,,,,,,,,,,,,,,,,,,,,,,,,,,,,,,,,,,,B_2,001,2024-11-27_12h08.48.067,untitled,2024.1.5,None,2024-11-27 12h09.03.004161 +0530,
triangle.png,stranger,1,M,,,,,,,,,31,3,127,1,,,,,,,,,414.0446337000467,,,,,,,,,,,,,,,,,,,,,,,,,,,,,,,,,,414.02895600011107,414.0446337000467,414.54518750007264,414.52819280000404,414.52819280000404,414.52819280000404,414.52819280000404,,,,,414.79576390003785,m,414.7961904000258,414.8116907000076,415.7961288000224,415.81208600010723,0.26257510005962104,None,,,,,,,,,,,,,,,,,,,,,,,,,,,,,,,,,,,,,,,,,,,,,,,,,,,,,,,,,,,,,,,,,,,,,,,,,,,,,,,,,,,,B_2,001,2024-11-27_12h08.48.067,untitled,2024.1.5,None,2024-11-27 12h09.03.004161 +0530,
triangle.png,stranger,1,M,,,,,,,,,32,0,128,1,,,,,,,,,415.81208600010723,,,,,,,,,,,,,,,,,,,,,,,,,,,,,,,,,,415.7964809000259,415.81208600010723,416.3127171000233,416.2960553000448,416.2960553000448,416.2960553000448,416.2960553000448,416.5958877000958,416.5958877000958,416.5958877000958,,417.0802694000304,z,417.08070100005716,417.09606940008234,418.0803980000783,418.096512200078,0.7700421999907121,None,,,,,,,,,,,,,,,,,,,,,,,,,,,,,,,,,,,,,,,,,,,,,,,,,,,,,,,,,,,,,,,,,,,,,,,,,,,,,,,,,,,,B_2,001,2024-11-27_12h08.48.067,untitled,2024.1.5,None,2024-11-27 12h09.03.004161 +0530,
triangle.png,you,0,Z,,,,,,,,,32,1,129,3,,,,,,,,,418.096512200078,,,,,,,,,,,,,,,,,,,,,,,,,,,,,,,,,,418.08074940007646,418.096512200078,418.59714310010895,418.58033570006955,418.58033570006955,418.58033570006955,418.58033570006955,418.88031980011147,418.88031980011147,418.88031980011147,419.68100770004094,419.66451750008855,None,419.6647047000006,419.68100770004094,420.665254300111,420.6815284000477,,,,,,,,,,,,,,,,,,,,,,,,,,,,,,,,,,,,,,,,,,,,,,,,,,,,,,,,,,,,,,,,,,,,,,,,,,,,,,,,,,,,,,B_2,001,2024-11-27_12h08.48.067,untitled,2024.1.5,None,2024-11-27 12h09.03.004161 +0530,
square.png,stranger,0,Z,,,,,,,,,32,2,130,2,,,,,,,,,420.6815284000477,,,,,,,,,,,,,,,,,,,,,,,,,,,,,,,,,,420.66560130007565,420.6815284000477,421.1817423000466,421.1817423000466,421.1817423000466,421.1817423000466,421.1817423000466,421.4817986000562,421.4817986000562,421.4817986000562,,421.849403200089,z,421.84983010008,421.86544020008296,422.84968890005257,422.8660955000669,0.6659353000577539,None,,,,,,,,,,,,,,,,,,,,,,,,,,,,,,,,,,,,,,,,,,,,,,,,,,,,,,,,,,,,,,,,,,,,,,,,,,,,,,,,,,,,B_2,001,2024-11-27_12h08.48.067,untitled,2024.1.5,None,2024-11-27 12h09.03.004161 +0530,
square.png,you,1,M,,,,,,,,,32,3,131,0,,,,,,,,,422.8660955000669,,,,,,,,,,,,,,,,,,,,,,,,,,,,,,,,,,422.8500368000241,422.8660955000669,423.3662375001004,423.3497996000806,423.3497996000806,423.3497996000806,423.3497996000806,423.64952300000004,423.64952300000004,423.64952300000004,,423.65027230000123,m,423.6507029000204,423.66626650001854,424.6505839000456,424.6666655000299,0.2895612999564037,None,,,,,,,,,,,,,,,,,,,,,,,,,,,,,,,,,,,,,,,,,,,,,,,,,,,,,,,,,,,,,,,,,,,,,,,,,,,,,,,,,,,,B_2,001,2024-11-27_12h08.48.067,untitled,2024.1.5,None,2024-11-27 12h09.03.004161 +0530,
triangle.png,you,0,Z,,,,,,,,,33,0,132,3,,,,,,,,,424.6666655000299,,,,,,,,,,,,,,,,,,,,,,,,,,,,,,,,,,424.6509309000103,424.6666655000299,425.16692060010973,425.1505004001083,425.1505004001083,425.1505004001083,425.1505004001083,,,,,425.40121120004915,z,425.40163420001045,425.4172223000787,426.4015103999991,426.41783330007456,0.2491498999297619,None,,,,,,,,,,,,,,,,,,,,,,,,,,,,,,,,,,,,,,,,,,,,,,,,,,,,,,,,,,,,,,,,,,,,,,,,,,,,,,,,,,,,B_2,001,2024-11-27_12h08.48.067,untitled,2024.1.5,None,2024-11-27 12h09.03.004161 +0530,
square.png,you,1,M,,,,,,,,,33,1,133,0,,,,,,,,,426.41783330007456,,,,,,,,,,,,,,,,,,,,,,,,,,,,,,,,,,426.40185470005963,426.41783330007456,426.91791840002406,426.9013448000187,426.9013448000187,426.9013448000187,426.9013448000187,427.20143490005285,427.20143490005285,427.20143490005285,,427.35218910011463,m,427.35260840004776,427.3682542000897,428.35237710003275,428.36860550008714,0.4495044000213966,None,,,,,,,,,,,,,,,,,,,,,,,,,,,,,,,,,,,,,,,,,,,,,,,,,,,,,,,,,,,,,,,,,,,,,,,,,,,,,,,,,,,,B_2,001,2024-11-27_12h08.48.067,untitled,2024.1.5,None,2024-11-27 12h09.03.004161 +0530,
square.png,stranger,0,Z,,,,,,,,,33,2,134,2,,,,,,,,,428.36860550008714,,,,,,,,,,,,,,,,,,,,,,,,,,,,,,,,,,428.3527227001032,428.36860550008714,428.86899640003685,428.8523550000973,428.8523550000973,428.8523550000973,428.8523550000973,429.15230920002796,429.15230920002796,429.15230920002796,,429.3366216000868,m,429.3370464000618,429.3525674000848,430.3367755000945,430.3529315000633,0.47003500000573695,None,,,,,,,,,,,,,,,,,,,,,,,,,,,,,,,,,,,,,,,,,,,,,,,,,,,,,,,,,,,,,,,,,,,,,,,,,,,,,,,,,,,,B_2,001,2024-11-27_12h08.48.067,untitled,2024.1.5,None,2024-11-27 12h09.03.004161 +0530,
triangle.png,stranger,1,M,,,,,,,,,33,3,135,1,,,,,,,,,430.3529315000633,,,,,,,,,,,,,,,,,,,,,,,,,,,,,,,,,,430.33712080004625,430.3529315000633,430.85327020008117,430.8369046000298,430.8369046000298,430.8369046000298,430.8369046000298,431.1367661000695,431.1367661000695,431.1367661000695,,431.15411620005034,m,431.1545337000862,431.1701485000085,432.1544822000433,432.1708482000977,0.3065966999856755,None,,,,,,,,,,,,,,,,,,,,,,,,,,,,,,,,,,,,,,,,,,,,,,,,,,,,,,,,,,,,,,,,,,,,,,,,,,,,,,,,,,,,B_2,001,2024-11-27_12h08.48.067,untitled,2024.1.5,None,2024-11-27 12h09.03.004161 +0530,
triangle.png,stranger,1,M,,,,,,,,,34,0,136,1,,,,,,,,,432.1708482000977,,,,,,,,,,,,,,,,,,,,,,,,,,,,,,,,,,432.15483780007344,432.1708482000977,432.67101070005447,432.6542441000929,432.6542441000929,432.6542441000929,432.6542441000929,432.954285700107,432.954285700107,432.954285700107,,433.25520240003243,m,433.2556203000713,433.27112670009956,434.2553484000964,434.2715429000091,0.5934867999749258,None,,,,,,,,,,,,,,,,,,,,,,,,,,,,,,,,,,,,,,,,,,,,,,,,,,,,,,,,,,,,,,,,,,,,,,,,,,,,,,,,,,,,B_2,001,2024-11-27_12h08.48.067,untitled,2024.1.5,None,2024-11-27 12h09.03.004161 +0530,
square.png,you,1,M,,,,,,,,,34,1,137,0,,,,,,,,,434.2715429000091,,,,,,,,,,,,,,,,,,,,,,,,,,,,,,,,,,434.25569370004814,434.2715429000091,434.77212540002074,434.75525320007,434.75525320007,434.75525320007,434.75525320007,435.0555243000854,435.0555243000854,435.0555243000854,,435.33953600004315,m,435.339959600009,435.35550020006485,436.3397820000537,436.3560253001051,0.5798066999996081,None,,,,,,,,,,,,,,,,,,,,,,,,,,,,,,,,,,,,,,,,,,,,,,,,,,,,,,,,,,,,,,,,,,,,,,,,,,,,,,,,,,,,B_2,001,2024-11-27_12h08.48.067,untitled,2024.1.5,None,2024-11-27 12h09.03.004161 +0530,
square.png,stranger,0,Z,,,,,,,,,34,2,138,2,,,,,,,,,436.3560253001051,,,,,,,,,,,,,,,,,,,,,,,,,,,,,,,,,,436.34012930002064,436.3560253001051,436.85637580009643,436.83975260006264,436.83975260006264,436.83975260006264,436.83975260006264,437.1397518001031,437.1397518001031,437.1397518001031,,437.2240099000046,m,437.22442690003663,437.2397876000032,438.22428300010506,438.24028190004174,0.370361499954015,None,,,,,,,,,,,,,,,,,,,,,,,,,,,,,,,,,,,,,,,,,,,,,,,,,,,,,,,,,,,,,,,,,,,,,,,,,,,,,,,,,,,,B_2,001,2024-11-27_12h08.48.067,untitled,2024.1.5,None,2024-11-27 12h09.03.004161 +0530,
triangle.png,you,0,Z,,,,,,,,,34,3,139,3,,,,,,,,,438.24028190004174,,,,,,,,,,,,,,,,,,,,,,,,,,,,,,,,,,438.22463230008725,438.24028190004174,438.7408409001073,438.7241866000695,438.7241866000695,438.7241866000695,438.7241866000695,439.0239707001019,439.0239707001019,439.0239707001019,,439.1916772000259,m,439.1920903000282,439.20753460004926,440.19199110008776,440.2081736000255,0.45931669999845326,None,,,,,,,,,,,,,,,,,,,,,,,,,,,,,,,,,,,,,,,,,,,,,,,,,,,,,,,,,,,,,,,,,,,,,,,,,,,,,,,,,,,,B_2,001,2024-11-27_12h08.48.067,untitled,2024.1.5,None,2024-11-27 12h09.03.004161 +0530,
square.png,stranger,0,Z,,,,,,,,,35,0,140,2,,,,,,,,,440.2081736000255,,,,,,,,,,,,,,,,,,,,,,,,,,,,,,,,,,440.1923369000433,440.2081736000255,440.7085073000053,440.6919206000166,440.6919206000166,440.6919206000166,440.6919206000166,440.99180760001764,440.99180760001764,440.99180760001764,,441.45954260008875,z,441.4599614000181,441.4754021000117,442.45986680011265,442.475908900029,0.7662230000132695,None,,,,,,,,,,,,,,,,,,,,,,,,,,,,,,,,,,,,,,,,,,,,,,,,,,,,,,,,,,,,,,,,,,,,,,,,,,,,,,,,,,,,B_2,001,2024-11-27_12h08.48.067,untitled,2024.1.5,None,2024-11-27 12h09.03.004161 +0530,
triangle.png,stranger,1,M,,,,,,,,,35,1,141,1,,,,,,,,,442.475908900029,,,,,,,,,,,,,,,,,,,,,,,,,,,,,,,,,,442.4602381000295,442.475908900029,442.976427000016,442.95975580008235,442.95975580008235,442.95975580008235,442.95975580008235,443.25983220001217,443.25983220001217,443.25983220001217,,443.5436800000025,z,443.54410550009925,443.5599466001149,444.5441858000122,444.56021920009516,0.5758170000044629,None,,,,,,,,,,,,,,,,,,,,,,,,,,,,,,,,,,,,,,,,,,,,,,,,,,,,,,,,,,,,,,,,,,,,,,,,,,,,,,,,,,,,B_2,001,2024-11-27_12h08.48.067,untitled,2024.1.5,None,2024-11-27 12h09.03.004161 +0530,
square.png,you,1,M,,,,,,,,,35,2,142,0,,,,,,,,,444.56021920009516,,,,,,,,,,,,,,,,,,,,,,,,,,,,,,,,,,444.54453530011233,444.56021920009516,445.0608250000514,445.0440097000683,445.0440097000683,445.0440097000683,445.0440097000683,445.3440864000004,445.3440864000004,445.3440864000004,,445.52834800002165,m,445.5287714001024,445.5442168000154,446.5283934000181,446.544747200096,0.4787955000065267,None,,,,,,,,,,,,,,,,,,,,,,,,,,,,,,,,,,,,,,,,,,,,,,,,,,,,,,,,,,,,,,,,,,,,,,,,,,,,,,,,,,,,B_2,001,2024-11-27_12h08.48.067,untitled,2024.1.5,None,2024-11-27 12h09.03.004161 +0530,
triangle.png,you,0,Z,,,,,,,,,35,3,143,3,,,,,,,,,446.544747200096,,,,,,,,,,,,,,,,,,,,,,,,,,,,,,,,,,446.5287469000323,446.544747200096,447.04510880005546,447.02849340008106,447.02849340008106,447.02849340008106,447.02849340008106,447.3284629000118,447.3284629000118,447.3284629000118,,447.8291785001056,m,447.82960400008596,447.84541590011213,448.8296261000214,448.8459044001065,0.7974533999804407,None,,,,,,,,,,,,,,,,,,,,,,,,,,,,,,,,,,,,,,,,,,,,,,,,,,,,,,,,,,,,,,,,,,,,,,,,,,,,,,,,,,,,B_2,001,2024-11-27_12h08.48.067,untitled,2024.1.5,None,2024-11-27 12h09.03.004161 +0530,
square.png,you,1,M,,,,,,,,,36,0,144,0,,,,,,,,,448.8459044001065,,,,,,,,,,,,,,,,,,,,,,,,,,,,,,,,,,448.82998770009726,448.8459044001065,449.3459459000733,449.32940460008103,449.32940460008103,449.32940460008103,449.32940460008103,449.6295430000173,449.6295430000173,449.6295430000173,,449.7138733000029,m,449.7142924000509,449.7296758000739,450.7138314000331,450.7303668000968,0.38180169998668134,None,,,,,,,,,,,,,,,,,,,,,,,,,,,,,,,,,,,,,,,,,,,,,,,,,,,,,,,,,,,,,,,,,,,,,,,,,,,,,,,,,,,,B_2,001,2024-11-27_12h08.48.067,untitled,2024.1.5,None,2024-11-27 12h09.03.004161 +0530,
triangle.png,stranger,1,M,,,,,,,,,36,1,145,1,,,,,,,,,450.7303668000968,,,,,,,,,,,,,,,,,,,,,,,,,,,,,,,,,,450.7141784001142,450.7303668000968,451.2303810000885,451.2139825000195,451.2139825000195,451.2139825000195,451.2139825000195,451.5139871001011,451.5139871001011,451.5139871001011,,451.5311991000781,m,451.5316444000928,451.5473322001053,452.5316255000653,452.54787100001704,0.313032100093551,None,,,,,,,,,,,,,,,,,,,,,,,,,,,,,,,,,,,,,,,,,,,,,,,,,,,,,,,,,,,,,,,,,,,,,,,,,,,,,,,,,,,,B_2,001,2024-11-27_12h08.48.067,untitled,2024.1.5,None,2024-11-27 12h09.03.004161 +0530,
