stimulus_b,label_b,is_match_b,shouldpress_b,stimulus_2b,label_2b,is_match_2b,shouldpress_2b,p_trials.thisRepN,p_trials.thisTrialN,p_trials.thisN,p_trials.thisIndex,trials.thisRepN,trials.thisTrialN,trials.thisN,trials.thisIndex,p_trials_2.thisRepN,p_trials_2.thisTrialN,p_trials_2.thisN,p_trials_2.thisIndex,trials_2.thisRepN,trials_2.thisTrialN,trials_2.thisN,trials_2.thisIndex,thisRow.t,notes,Intruduction.started,text_3.started,key_resp_2.started,Intruduction.stopped,key_resp_2.keys,key_resp_2.rt,key_resp_2.duration,self_other_instructions.started,text_4.started,key_resp_3.started,self_other_instructions.stopped,key_resp_3.keys,key_resp_3.rt,key_resp_3.duration,self_other_info.started,square_image.started,triangle_image.started,self_label.started,other_label.started,key_resp_4.started,text_5.started,self_other_info.stopped,key_resp_4.keys,key_resp_4.rt,key_resp_4.duration,self_other_starting_2.started,text_6.started,key_resp_5.started,self_other_starting_2.stopped,key_resp_5.keys,key_resp_5.rt,key_resp_5.duration,b1.started,p_fication.started,p_fixation_3.started,p_text.started,key_resp_p.started,p_image.started,p_fication.stopped,p_fixation_3.stopped,p_text.stopped,p_image.stopped,key_resp_p.stopped,b1.stopped,key_resp_p.keys,b_feedback.started,text_15.started,text_15.stopped,b_feedback.stopped,key_resp_p.rt,key_resp_p.duration,start2.started,start_2.started,key_resp_11.started,start2.stopped,key_resp_11.keys,key_resp_11.rt,key_resp_11.duration,break_3.started,text_13.started,text_14.started,key_resp_10.started,text_13.stopped,break_3.stopped,key_resp_10.keys,key_resp_10.rt,key_resp_10.duration,self_instructions_2.started,text_10.started,key_resp_7.started,self_instructions_2.stopped,key_resp_7.keys,key_resp_7.rt,key_resp_7.duration,self_intro_2.started,circle_image.started,diamond_image.started,Disgusting_self_lable.started,Desirable_self_lable.started,key_resp_8.started,text_11.started,self_intro_2.stopped,key_resp_8.keys,key_resp_8.rt,key_resp_8.duration,self_starting_3.started,text_12.started,key_resp_9.started,self_starting_3.stopped,key_resp_9.keys,key_resp_9.rt,key_resp_9.duration,practice2.started,p_fixation_2.started,p_fixation_4.started,p_text_8.started,key_resp_6_p.started,p_image_2.started,p_fixation_2.stopped,p_fixation_4.stopped,p_text_8.stopped,p_image_2.stopped,key_resp_6_p.stopped,practice2.stopped,key_resp_6_p.keys,feedback_2_p.started,text_16.started,text_16.stopped,feedback_2_p.stopped,key_resp_6_p.rt,key_resp_6_p.duration,trial_2.started,fixation_2.started,fixation_4.started,text_8.started,key_resp_6.started,image_2.started,fixation_2.stopped,fixation_4.stopped,text_8.stopped,image_2.stopped,trial_2.stopped,key_resp_6.keys,key_resp_6.rt,key_resp_6.duration,feedback_2.started,text_9.started,text_9.stopped,feedback_2.stopped,key_resp_6.stopped,Thank_you.started,text_7.started,Thank_you.stopped,participant,session,date,expName,psychopyVersion,frameRate,expStart,
,,,,,,,,,,,,,,,,,,,,,,,,,,0.0025381000014021993,0.006284500006586313,0.006284500006586313,4.7358803999377415,space,4.7261757999658585,None,,,,,,,,,,,,,,,,,,,,,,,,,,,,,,,,,,,,,,,,,,,,,,,,,,,,,,,,,,,,,,,,,,,,,,,,,,,,,,,,,,,,,,,,,,,,,,,,,,,,,,,,,,,,,,,,,,,,,,,,,,,,,,,B_3,001,2024-11-27_13h10.14.819,untitled,2024.1.5,None,2024-11-27 13h10.26.482132 +0530,
,,,,,,,,,,,,,,,,,,,,,,,,,,,,,,,,,4.7359206000110134,4.749903599964455,4.749903599964455,45.40474429994356,space,40.65009499993175,None,,,,,,,,,,,,,,,,,,,,,,,,,,,,,,,,,,,,,,,,,,,,,,,,,,,,,,,,,,,,,,,,,,,,,,,,,,,,,,,,,,,,,,,,,,,,,,,,,,,,,,,,,,,,,,,,,,,,,,,,B_3,001,2024-11-27_13h10.14.819,untitled,2024.1.5,None,2024-11-27 13h10.26.482132 +0530,
,,,,,,,,,,,,,,,,,,,,,,,,,,,,,,,,,,,,,,,,45.404774399939924,45.438275899970904,45.438275899970904,45.438275899970904,45.438275899970904,45.438275899970904,45.438275899970904,84.17421720002312,space,38.72283280000556,None,,,,,,,,,,,,,,,,,,,,,,,,,,,,,,,,,,,,,,,,,,,,,,,,,,,,,,,,,,,,,,,,,,,,,,,,,,,,,,,,,,,,,,,,,,,,,,,,,,,,,,,,,,,,,B_3,001,2024-11-27_13h10.14.819,untitled,2024.1.5,None,2024-11-27 13h10.26.482132 +0530,
,,,,,,,,,,,,,,,,,,,,,,,,,,,,,,,,,,,,,,,,,,,,,,,,,,,84.17424540000502,84.19019270001445,84.19019270001445,89.02640019997489,space,4.82247420004569,None,,,,,,,,,,,,,,,,,,,,,,,,,,,,,,,,,,,,,,,,,,,,,,,,,,,,,,,,,,,,,,,,,,,,,,,,,,,,,,,,,,,,,,,,,,,,,,,,,,,,,,B_3,001,2024-11-27_13h10.14.819,untitled,2024.1.5,None,2024-11-27 13h10.26.482132 +0530,
square.png,you,1,M,,,,,0,0,0,0,,,,,,,,,,,,,89.04215450002812,,,,,,,,,,,,,,,,,,,,,,,,,,,,,,,,,,89.03296890005004,89.04215450002812,89.5258403000189,89.5258403000189,89.5258403000189,89.5258403000189,89.54273690003902,89.8259856000077,89.8259856000077,89.8259856000077,90.62622069998179,90.60980900004506,None,90.61001269996632,90.62622069998179,91.62713100004476,91.61041459999979,,,,,,,,,,,,,,,,,,,,,,,,,,,,,,,,,,,,,,,,,,,,,,,,,,,,,,,,,,,,,,,,,,,,,,,,,,,,,,,,,,,,,B_3,001,2024-11-27_13h10.14.819,untitled,2024.1.5,None,2024-11-27 13h10.26.482132 +0530,
triangle.png,stranger,1,M,,,,,0,1,1,1,,,,,,,,,,,,,91.62713100004476,,,,,,,,,,,,,,,,,,,,,,,,,,,,,,,,,,91.61067500000354,91.62713100004476,92.1271688999841,92.1271688999841,92.1271688999841,92.1271688999841,92.1271688999841,92.42735619994346,92.42735619994346,92.42735619994346,93.22754790005274,93.21124610002153,None,93.21139249997213,93.22754790005274,94.22804029996041,94.21187070000451,,,,,,,,,,,,,,,,,,,,,,,,,,,,,,,,,,,,,,,,,,,,,,,,,,,,,,,,,,,,,,,,,,,,,,,,,,,,,,,,,,,,,B_3,001,2024-11-27_13h10.14.819,untitled,2024.1.5,None,2024-11-27 13h10.26.482132 +0530,
square.png,stranger,0,Z,,,,,0,2,2,2,,,,,,,,,,,,,94.22804029996041,,,,,,,,,,,,,,,,,,,,,,,,,,,,,,,,,,94.21209229994565,94.22804029996041,94.72842269996181,94.72842269996181,94.72842269996181,94.72842269996181,94.72842269996181,95.02844000002369,95.02844000002369,95.02844000002369,95.8288290000055,95.81256250001024,None,95.81270560005214,95.8288290000055,96.82972849998623,96.81346199999098,,,,,,,,,,,,,,,,,,,,,,,,,,,,,,,,,,,,,,,,,,,,,,,,,,,,,,,,,,,,,,,,,,,,,,,,,,,,,,,,,,,,,B_3,001,2024-11-27_13h10.14.819,untitled,2024.1.5,None,2024-11-27 13h10.26.482132 +0530,
triangle.png,you,0,Z,,,,,0,3,3,3,,,,,,,,,,,,,96.82972849998623,,,,,,,,,,,,,,,,,,,,,,,,,,,,,,,,,,96.81370589998551,96.82972849998623,97.32979939994402,97.32979939994402,97.32979939994402,97.32979939994402,97.32979939994402,97.63003180001397,97.63003180001397,97.63003180001397,,97.69708129996434,m,97.69741270004306,97.71330099995248,98.7136372999521,98.697249299963,0.35178879997693,None,,,,,,,,,,,,,,,,,,,,,,,,,,,,,,,,,,,,,,,,,,,,,,,,,,,,,,,,,,,,,,,,,,,,,,,,,,,,,,,,,,,B_3,001,2024-11-27_13h10.14.819,untitled,2024.1.5,None,2024-11-27 13h10.26.482132 +0530,
square.png,stranger,0,Z,,,,,1,0,4,2,,,,,,,,,,,,,98.7136372999521,,,,,,,,,,,,,,,,,,,,,,,,,,,,,,,,,,98.69747939996887,98.7136372999521,99.19760029995814,99.19760029995814,99.19760029995814,99.19760029995814,99.21405119996052,99.4976826000493,99.4976826000493,99.4976826000493,100.29785980004817,100.28173239994794,None,100.2818685999373,100.29785980004817,101.29840319999494,101.28195249999408,,,,,,,,,,,,,,,,,,,,,,,,,,,,,,,,,,,,,,,,,,,,,,,,,,,,,,,,,,,,,,,,,,,,,,,,,,,,,,,,,,,,,B_3,001,2024-11-27_13h10.14.819,untitled,2024.1.5,None,2024-11-27 13h10.26.482132 +0530,
square.png,you,1,M,,,,,1,1,5,0,,,,,,,,,,,,,101.29840319999494,,,,,,,,,,,,,,,,,,,,,,,,,,,,,,,,,,101.28217050002422,101.29840319999494,101.79882919997908,101.79882919997908,101.79882919997908,101.79882919997908,101.79882919997908,102.09867910004687,102.09867910004687,102.09867910004687,,102.26599360001273,m,102.26624609995633,102.28211559995543,103.28265429998282,103.26644030003808,0.46168710000347346,None,,,,,,,,,,,,,,,,,,,,,,,,,,,,,,,,,,,,,,,,,,,,,,,,,,,,,,,,,,,,,,,,,,,,,,,,,,,,,,,,,,,B_3,001,2024-11-27_13h10.14.819,untitled,2024.1.5,None,2024-11-27 13h10.26.482132 +0530,
triangle.png,stranger,1,M,,,,,1,2,6,1,,,,,,,,,,,,,103.28265429998282,,,,,,,,,,,,,,,,,,,,,,,,,,,,,,,,,,103.26666009996552,103.28265429998282,103.76632850000169,103.76632850000169,103.76632850000169,103.76632850000169,103.78298260003794,,,,,104.0337104999926,z,104.033948999946,104.0497294999659,105.05022079998162,105.03395119996276,0.2661671999376267,None,,,,,,,,,,,,,,,,,,,,,,,,,,,,,,,,,,,,,,,,,,,,,,,,,,,,,,,,,,,,,,,,,,,,,,,,,,,,,,,,,,,B_3,001,2024-11-27_13h10.14.819,untitled,2024.1.5,None,2024-11-27 13h10.26.482132 +0530,
triangle.png,you,0,Z,,,,,1,3,7,3,,,,,,,,,,,,,105.05022079998162,,,,,,,,,,,,,,,,,,,,,,,,,,,,,,,,,,105.03417370002717,105.05022079998162,105.5341078999918,105.5341078999918,105.5341078999918,105.5341078999918,105.55094300000928,105.83422520000022,105.83422520000022,105.83422520000022,,105.96845929999836,m,105.96871249994729,105.98454099998344,106.98490819998551,106.96876209997572,0.4182243999093771,None,,,,,,,,,,,,,,,,,,,,,,,,,,,,,,,,,,,,,,,,,,,,,,,,,,,,,,,,,,,,,,,,,,,,,,,,,,,,,,,,,,,B_3,001,2024-11-27_13h10.14.819,untitled,2024.1.5,None,2024-11-27 13h10.26.482132 +0530,
square.png,you,1,M,,,,,2,0,8,0,,,,,,,,,,,,,106.98490819998551,,,,,,,,,,,,,,,,,,,,,,,,,,,,,,,,,,106.96899770002346,106.98490819998551,107.46858039998915,107.46858039998915,107.46858039998915,107.46858039998915,107.48515890003182,107.76869369996712,107.76869369996712,107.76869369996712,,107.86952319997363,m,107.8697732000146,107.88525229995139,108.88582970004063,108.86926359997597,0.3919954999582842,None,,,,,,,,,,,,,,,,,,,,,,,,,,,,,,,,,,,,,,,,,,,,,,,,,,,,,,,,,,,,,,,,,,,,,,,,,,,,,,,,,,,B_3,001,2024-11-27_13h10.14.819,untitled,2024.1.5,None,2024-11-27 13h10.26.482132 +0530,
triangle.png,you,0,Z,,,,,2,1,9,3,,,,,,,,,,,,,108.88582970004063,,,,,,,,,,,,,,,,,,,,,,,,,,,,,,,,,,108.86948029999621,108.88582970004063,109.36973789997865,109.36973789997865,109.36973789997865,109.36973789997865,109.38618230004795,109.66942829999607,109.66942829999607,109.66942829999607,,109.7198571000481,z,109.72011240001302,109.73627090000082,,110.72015870001633,0.3343208000296727,None,,,,,,,,,,,,,,,,,,,,,,,,,,,,,,,,,,,,,,,,,,,,,,,,,,,,,,,,,,,,,,,,,,,,,,,,,,,,,,,,,,,B_3,001,2024-11-27_13h10.14.819,untitled,2024.1.5,None,2024-11-27 13h10.26.482132 +0530,
square.png,stranger,0,Z,,,,,2,2,10,2,,,,,,,,,,,,,110.73692419996951,,,,,,,,,,,,,,,,,,,,,,,,,,,,,,,,,,110.72041029995307,110.73692419996951,111.2202787999995,111.2202787999995,111.2202787999995,111.2202787999995,111.23707379994448,111.52064530004282,111.52064530004282,111.52064530004282,,111.72138460003771,m,111.72163489996456,111.7372197000077,112.73781179997604,112.72146699996665,0.49315170000772923,None,,,,,,,,,,,,,,,,,,,,,,,,,,,,,,,,,,,,,,,,,,,,,,,,,,,,,,,,,,,,,,,,,,,,,,,,,,,,,,,,,,,B_3,001,2024-11-27_13h10.14.819,untitled,2024.1.5,None,2024-11-27 13h10.26.482132 +0530,
triangle.png,stranger,1,M,,,,,2,3,11,1,,,,,,,,,,,,,112.73781179997604,,,,,,,,,,,,,,,,,,,,,,,,,,,,,,,,,,112.72170859994367,112.73781179997604,113.22152410005219,113.22152410005219,113.22152410005219,113.22152410005219,113.23835290002171,113.52156100003049,113.52156100003049,113.52156100003049,114.3219950000057,114.30579110002145,None,114.3059254999971,114.3219950000057,115.32238040002994,115.30580770003144,,,,,,,,,,,,,,,,,,,,,,,,,,,,,,,,,,,,,,,,,,,,,,,,,,,,,,,,,,,,,,,,,,,,,,,,,,,,,,,,,,,,,B_3,001,2024-11-27_13h10.14.819,untitled,2024.1.5,None,2024-11-27 13h10.26.482132 +0530,
triangle.png,stranger,1,M,,,,,3,0,12,1,,,,,,,,,,,,,115.32238040002994,,,,,,,,,,,,,,,,,,,,,,,,,,,,,,,,,,115.30602989997715,115.32238040002994,115.82296609994955,115.82296609994955,115.82296609994955,115.82296609994955,115.82296609994955,116.12298260000534,116.12298260000534,116.12298260000534,,116.24037040001713,z,116.2406213999493,116.26526350004133,,117.25682629994117,0.41431160003412515,None,,,,,,,,,,,,,,,,,,,,,,,,,,,,,,,,,,,,,,,,,,,,,,,,,,,,,,,,,,,,,,,,,,,,,,,,,,,,,,,,,,,B_3,001,2024-11-27_13h10.14.819,untitled,2024.1.5,None,2024-11-27 13h10.26.482132 +0530,
square.png,stranger,0,Z,,,,,3,1,13,2,,,,,,,,,,,,,117.27346209995449,,,,,,,,,,,,,,,,,,,,,,,,,,,,,,,,,,117.25707359996159,117.27346209995449,117.7405323999701,117.7405323999701,117.7405323999701,117.7405323999701,117.77375089994166,118.04056049999781,118.04056049999781,118.04056049999781,,118.49152219993994,z,118.49177870003041,118.5073556000134,119.50807710003573,119.49184429994784,0.7404793000314385,None,,,,,,,,,,,,,,,,,,,,,,,,,,,,,,,,,,,,,,,,,,,,,,,,,,,,,,,,,,,,,,,,,,,,,,,,,,,,,,,,,,,B_3,001,2024-11-27_13h10.14.819,untitled,2024.1.5,None,2024-11-27 13h10.26.482132 +0530,
triangle.png,you,0,Z,,,,,3,2,14,3,,,,,,,,,,,,,119.50807710003573,,,,,,,,,,,,,,,,,,,,,,,,,,,,,,,,,,119.49209269997664,119.50807710003573,119.99191280000377,119.99191280000377,119.99191280000377,119.99191280000377,120.00839680002537,120.29176559997723,120.29176559997723,120.29176559997723,,120.27574189996812,m,120.27599849994294,120.29176559997723,121.29230440000538,121.27598729997408,0.27345830004196614,None,,,,,,,,,,,,,,,,,,,,,,,,,,,,,,,,,,,,,,,,,,,,,,,,,,,,,,,,,,,,,,,,,,,,,,,,,,,,,,,,,,,B_3,001,2024-11-27_13h10.14.819,untitled,2024.1.5,None,2024-11-27 13h10.26.482132 +0530,
square.png,you,1,M,,,,,3,3,15,0,,,,,,,,,,,,,121.29230440000538,,,,,,,,,,,,,,,,,,,,,,,,,,,,,,,,,,121.27622630004771,121.29230440000538,121.77580369997304,121.77580369997304,121.77580369997304,121.77580369997304,121.79268650000449,,,,,122.01015290000942,m,122.01040230004583,122.02591900003608,123.02643179998267,123.010228500003,0.22569700004532933,None,,,,,,,,,,,,,,,,,,,,,,,,,,,,,,,,,,,,,,,,,,,,,,,,,,,,,,,,,,,,,,,,,,,,,,,,,,,,,,,,,,,B_3,001,2024-11-27_13h10.14.819,untitled,2024.1.5,None,2024-11-27 13h10.26.482132 +0530,
triangle.png,you,0,Z,,,,,4,0,16,3,,,,,,,,,,,,,123.02643179998267,,,,,,,,,,,,,,,,,,,,,,,,,,,,,,,,,,123.01046789996326,123.02643179998267,123.5101258000359,123.5101258000359,123.5101258000359,123.5101258000359,123.52694619994145,123.81024769996293,123.81024769996293,123.81024769996293,,123.81104940001387,z,123.81129910005257,123.82679469999857,124.82735479995608,124.8110443999758,0.29459820000920445,None,,,,,,,,,,,,,,,,,,,,,,,,,,,,,,,,,,,,,,,,,,,,,,,,,,,,,,,,,,,,,,,,,,,,,,,,,,,,,,,,,,,B_3,001,2024-11-27_13h10.14.819,untitled,2024.1.5,None,2024-11-27 13h10.26.482132 +0530,
square.png,you,1,M,,,,,4,1,17,0,,,,,,,,,,,,,124.82735479995608,,,,,,,,,,,,,,,,,,,,,,,,,,,,,,,,,,124.81127900001593,124.82735479995608,125.31116199993994,125.31116199993994,125.31116199993994,125.31116199993994,125.32786710001528,,,,,125.5288079000311,m,125.52905949996784,125.54432019998785,126.54499289998785,126.52868250000756,0.21454020007513463,None,,,,,,,,,,,,,,,,,,,,,,,,,,,,,,,,,,,,,,,,,,,,,,,,,,,,,,,,,,,,,,,,,,,,,,,,,,,,,,,,,,,B_3,001,2024-11-27_13h10.14.819,untitled,2024.1.5,None,2024-11-27 13h10.26.482132 +0530,
triangle.png,stranger,1,M,,,,,4,2,18,1,,,,,,,,,,,,,126.54499289998785,,,,,,,,,,,,,,,,,,,,,,,,,,,,,,,,,,126.52891879994422,126.54499289998785,127.0287242999766,127.0287242999766,127.0287242999766,127.0287242999766,127.045196400024,,,,,127.29606399999466,z,127.2963168999413,127.31212090002373,128.3124110000208,128.29614879994188,0.2641118000028655,None,,,,,,,,,,,,,,,,,,,,,,,,,,,,,,,,,,,,,,,,,,,,,,,,,,,,,,,,,,,,,,,,,,,,,,,,,,,,,,,,,,,B_3,001,2024-11-27_13h10.14.819,untitled,2024.1.5,None,2024-11-27 13h10.26.482132 +0530,
square.png,stranger,0,Z,,,,,4,3,19,2,,,,,,,,,,,,,128.3124110000208,,,,,,,,,,,,,,,,,,,,,,,,,,,,,,,,,,128.29638740001246,128.3124110000208,128.7962988000363,128.7962988000363,128.7962988000363,128.7962988000363,128.81286770000588,129.09613720001653,129.09613720001653,129.09613720001653,,129.08049059996847,z,129.08073879999574,129.09613720001653,130.09689129993785,130.08042400004342,0.2676685999613255,None,,,,,,,,,,,,,,,,,,,,,,,,,,,,,,,,,,,,,,,,,,,,,,,,,,,,,,,,,,,,,,,,,,,,,,,,,,,,,,,,,,,B_3,001,2024-11-27_13h10.14.819,untitled,2024.1.5,None,2024-11-27 13h10.26.482132 +0530,
,,,,,,,,,,,,,,,,,,,,,,,,,,,,,,,,,,,,,,,,,,,,,,,,,,,,,,,,,,,,,,,,,,,,,,,,,,,,,130.0804726999486,130.09689129993785,130.09689129993785,135.6171990999719,space,5.516724899993278,None,,,,,,,,,,,,,,,,,,,,,,,,,,,,,,,,,,,,,,,,,,,,,,,,,,,,,,,,,,,,,,,,,,,,,,,,,,,,B_3,001,2024-11-27_13h10.14.819,untitled,2024.1.5,None,2024-11-27 13h10.26.482132 +0530,
square.png,you,1,M,,,,,,,,,0,0,0,0,,,,,,,,,135.6329495999962,,,,,,,,,,,,,,,,,,,,,,,,,,,,,,,,,,135.62261680001393,135.6329495999962,136.11668760003522,136.11668760003522,136.11668760003522,136.11668760003522,136.1333094999427,136.41687179997098,136.41687179997098,136.41687179997098,137.21728320000693,137.2008190000197,None,137.2011332999682,137.21728320000693,138.21758019994013,138.20154170005117,,,,,,,,,,,,,,,,,,,,,,,,,,,,,,,,,,,,,,,,,,,,,,,,,,,,,,,,,,,,,,,,,,,,,,,,,,,,,,,,,,,,,B_3,001,2024-11-27_13h10.14.819,untitled,2024.1.5,None,2024-11-27 13h10.26.482132 +0530,
triangle.png,stranger,1,M,,,,,,,,,0,1,1,1,,,,,,,,,138.21758019994013,,,,,,,,,,,,,,,,,,,,,,,,,,,,,,,,,,138.20190039998852,138.21758019994013,138.71799200004898,138.71799200004898,138.71799200004898,138.71799200004898,138.71799200004898,139.01807340001687,139.01807340001687,139.01807340001687,,139.3356519000372,z,139.33623340004124,139.3517903999891,140.35212199995294,140.3359693000093,0.6114829001016915,None,,,,,,,,,,,,,,,,,,,,,,,,,,,,,,,,,,,,,,,,,,,,,,,,,,,,,,,,,,,,,,,,,,,,,,,,,,,,,,,,,,,B_3,001,2024-11-27_13h10.14.819,untitled,2024.1.5,None,2024-11-27 13h10.26.482132 +0530,
triangle.png,you,0,Z,,,,,,,,,0,2,2,3,,,,,,,,,140.35212199995294,,,,,,,,,,,,,,,,,,,,,,,,,,,,,,,,,,140.33632100000978,140.35212199995294,140.8356898999773,140.8356898999773,140.8356898999773,140.8356898999773,140.85231290000957,,,,,141.05348819994833,m,141.05391230003443,141.06904670002405,142.0697564999573,142.05357270000968,0.21232209994923323,None,,,,,,,,,,,,,,,,,,,,,,,,,,,,,,,,,,,,,,,,,,,,,,,,,,,,,,,,,,,,,,,,,,,,,,,,,,,,,,,,,,,B_3,001,2024-11-27_13h10.14.819,untitled,2024.1.5,None,2024-11-27 13h10.26.482132 +0530,
square.png,stranger,0,Z,,,,,,,,,0,3,3,2,,,,,,,,,142.0697564999573,,,,,,,,,,,,,,,,,,,,,,,,,,,,,,,,,,142.05392259999644,142.0697564999573,142.55333449994214,142.55333449994214,142.55333449994214,142.55333449994214,142.5701027000323,,,,,142.78738019999582,m,142.7878171999473,142.80347990000155,143.8040611000033,143.78760719997808,0.22677290008869022,None,,,,,,,,,,,,,,,,,,,,,,,,,,,,,,,,,,,,,,,,,,,,,,,,,,,,,,,,,,,,,,,,,,,,,,,,,,,,,,,,,,,B_3,001,2024-11-27_13h10.14.819,untitled,2024.1.5,None,2024-11-27 13h10.26.482132 +0530,
square.png,stranger,0,Z,,,,,,,,,1,0,4,2,,,,,,,,,143.8040611000033,,,,,,,,,,,,,,,,,,,,,,,,,,,,,,,,,,143.78796790004708,143.8040611000033,144.28740040003322,144.28740040003322,144.28740040003322,144.28740040003322,144.30404149997048,144.58753010001965,144.58753010001965,144.58753010001965,145.388202299946,145.37164929998107,None,145.3718402000377,145.388202299946,146.3888069000095,146.37220620003063,,,,,,,,,,,,,,,,,,,,,,,,,,,,,,,,,,,,,,,,,,,,,,,,,,,,,,,,,,,,,,,,,,,,,,,,,,,,,,,,,,,,,B_3,001,2024-11-27_13h10.14.819,untitled,2024.1.5,None,2024-11-27 13h10.26.482132 +0530,
triangle.png,you,0,Z,,,,,,,,,1,1,5,3,,,,,,,,,146.3888069000095,,,,,,,,,,,,,,,,,,,,,,,,,,,,,,,,,,146.37255940004252,146.3888069000095,146.88902380003128,146.88902380003128,146.88902380003128,146.88902380003128,146.88902380003128,147.18894819996785,147.18894819996785,147.18894819996785,,147.2231590000447,m,147.22358180000447,147.23902550002094,148.23938589997124,148.22323420003522,0.32707010000012815,None,,,,,,,,,,,,,,,,,,,,,,,,,,,,,,,,,,,,,,,,,,,,,,,,,,,,,,,,,,,,,,,,,,,,,,,,,,,,,,,,,,,B_3,001,2024-11-27_13h10.14.819,untitled,2024.1.5,None,2024-11-27 13h10.26.482132 +0530,
square.png,you,1,M,,,,,,,,,1,2,6,0,,,,,,,,,148.23938589997124,,,,,,,,,,,,,,,,,,,,,,,,,,,,,,,,,,148.22359059995506,148.23938589997124,148.72310079995077,148.72310079995077,148.72310079995077,148.72310079995077,148.73992299998645,149.02332889998797,149.02332889998797,149.02332889998797,,149.0240920999786,m,149.02451310004108,149.03995959996246,150.04049599997234,150.02414600003976,0.2902657000813633,None,,,,,,,,,,,,,,,,,,,,,,,,,,,,,,,,,,,,,,,,,,,,,,,,,,,,,,,,,,,,,,,,,,,,,,,,,,,,,,,,,,,B_3,001,2024-11-27_13h10.14.819,untitled,2024.1.5,None,2024-11-27 13h10.26.482132 +0530,
triangle.png,stranger,1,M,,,,,,,,,1,3,7,1,,,,,,,,,150.04049599997234,,,,,,,,,,,,,,,,,,,,,,,,,,,,,,,,,,150.0245010999497,150.04049599997234,150.52427099994384,150.52427099994384,150.52427099994384,150.52427099994384,150.54087779996917,150.82401400001254,150.82401400001254,150.82401400001254,,150.80848180002067,z,150.80890589999035,150.82401400001254,151.82466409995686,151.80833020003047,0.2757883000886068,None,,,,,,,,,,,,,,,,,,,,,,,,,,,,,,,,,,,,,,,,,,,,,,,,,,,,,,,,,,,,,,,,,,,,,,,,,,,,,,,,,,,B_3,001,2024-11-27_13h10.14.819,untitled,2024.1.5,None,2024-11-27 13h10.26.482132 +0530,
triangle.png,you,0,Z,,,,,,,,,2,0,8,3,,,,,,,,,151.82466409995686,,,,,,,,,,,,,,,,,,,,,,,,,,,,,,,,,,151.80868450005073,151.82466409995686,152.30827180005144,152.30827180005144,152.30827180005144,152.30827180005144,152.3248586000409,152.60821940004826,152.60821940004826,152.60821940004826,,152.62562079995405,m,152.62605850002728,152.64172569999937,153.6421180999605,153.62577739998233,0.31268770003225654,None,,,,,,,,,,,,,,,,,,,,,,,,,,,,,,,,,,,,,,,,,,,,,,,,,,,,,,,,,,,,,,,,,,,,,,,,,,,,,,,,,,,B_3,001,2024-11-27_13h10.14.819,untitled,2024.1.5,None,2024-11-27 13h10.26.482132 +0530,
triangle.png,stranger,1,M,,,,,,,,,2,1,9,1,,,,,,,,,153.6421180999605,,,,,,,,,,,,,,,,,,,,,,,,,,,,,,,,,,153.62613160000183,153.6421180999605,154.1258419000078,154.1258419000078,154.1258419000078,154.1258419000078,154.1425217000069,154.42601339996327,154.42601339996327,154.42601339996327,,154.44349450001027,m,154.4439216000028,154.45948850002605,155.45993090001866,155.44368190004025,0.3062848999397829,None,,,,,,,,,,,,,,,,,,,,,,,,,,,,,,,,,,,,,,,,,,,,,,,,,,,,,,,,,,,,,,,,,,,,,,,,,,,,,,,,,,,B_3,001,2024-11-27_13h10.14.819,untitled,2024.1.5,None,2024-11-27 13h10.26.482132 +0530,
square.png,you,1,M,,,,,,,,,2,2,10,0,,,,,,,,,155.45993090001866,,,,,,,,,,,,,,,,,,,,,,,,,,,,,,,,,,155.444037499954,155.45993090001866,155.9437141000526,155.9437141000526,155.9437141000526,155.9437141000526,155.96030120004434,156.2435881999554,156.2435881999554,156.2435881999554,,156.24433100002352,z,156.24475499999244,156.2602174000349,157.2609043000266,157.2445708999876,0.2843009000644088,None,,,,,,,,,,,,,,,,,,,,,,,,,,,,,,,,,,,,,,,,,,,,,,,,,,,,,,,,,,,,,,,,,,,,,,,,,,,,,,,,,,,B_3,001,2024-11-27_13h10.14.819,untitled,2024.1.5,None,2024-11-27 13h10.26.482132 +0530,
square.png,stranger,0,Z,,,,,,,,,2,3,11,2,,,,,,,,,157.2609043000266,,,,,,,,,,,,,,,,,,,,,,,,,,,,,,,,,,157.24492530000862,157.2609043000266,157.74475469999015,157.74475469999015,157.74475469999015,157.74475469999015,157.7608893000288,,,,,157.99522609997075,m,157.99566440004855,158.0111775000114,159.01163860002998,158.99545919999946,0.23518720001447946,None,,,,,,,,,,,,,,,,,,,,,,,,,,,,,,,,,,,,,,,,,,,,,,,,,,,,,,,,,,,,,,,,,,,,,,,,,,,,,,,,,,,B_3,001,2024-11-27_13h10.14.819,untitled,2024.1.5,None,2024-11-27 13h10.26.482132 +0530,
triangle.png,you,0,Z,,,,,,,,,3,0,12,3,,,,,,,,,159.01163860002998,,,,,,,,,,,,,,,,,,,,,,,,,,,,,,,,,,158.99581809993833,159.01163860002998,159.4953475999646,159.4953475999646,159.4953475999646,159.4953475999646,159.51197550003417,159.79521030001342,159.79521030001342,159.79521030001342,160.5957712000236,160.5794911000412,None,160.57968289998826,160.5957712000236,161.59643279993907,161.58012689999305,,,,,,,,,,,,,,,,,,,,,,,,,,,,,,,,,,,,,,,,,,,,,,,,,,,,,,,,,,,,,,,,,,,,,,,,,,,,,,,,,,,,,B_3,001,2024-11-27_13h10.14.819,untitled,2024.1.5,None,2024-11-27 13h10.26.482132 +0530,
square.png,you,1,M,,,,,,,,,3,1,13,0,,,,,,,,,161.59643279993907,,,,,,,,,,,,,,,,,,,,,,,,,,,,,,,,,,161.5804797000019,161.59643279993907,162.09659139998257,162.09659139998257,162.09659139998257,162.09659139998257,162.09659139998257,162.3968660000246,162.3968660000246,162.3968660000246,,162.44740279996768,m,162.4478319999762,162.4633721000282,163.46414980001282,163.44757289998233,0.34880539996083826,None,,,,,,,,,,,,,,,,,,,,,,,,,,,,,,,,,,,,,,,,,,,,,,,,,,,,,,,,,,,,,,,,,,,,,,,,,,,,,,,,,,,B_3,001,2024-11-27_13h10.14.819,untitled,2024.1.5,None,2024-11-27 13h10.26.482132 +0530,
square.png,stranger,0,Z,,,,,,,,,3,2,14,2,,,,,,,,,163.46414980001282,,,,,,,,,,,,,,,,,,,,,,,,,,,,,,,,,,163.44792870001402,163.46414980001282,163.94778070005123,163.94778070005123,163.94778070005123,163.94778070005123,163.9643385000527,164.24783040001057,164.24783040001057,164.24783040001057,,164.381922999979,m,164.38234170002397,164.39791870000772,165.39843549998477,165.38195750000887,0.4297371000284329,None,,,,,,,,,,,,,,,,,,,,,,,,,,,,,,,,,,,,,,,,,,,,,,,,,,,,,,,,,,,,,,,,,,,,,,,,,,,,,,,,,,,B_3,001,2024-11-27_13h10.14.819,untitled,2024.1.5,None,2024-11-27 13h10.26.482132 +0530,
triangle.png,stranger,1,M,,,,,,,,,3,3,15,1,,,,,,,,,165.39843549998477,,,,,,,,,,,,,,,,,,,,,,,,,,,,,,,,,,165.38231100002304,165.39843549998477,165.8818644999992,165.8818644999992,165.8818644999992,165.8818644999992,165.89863790001255,166.1821761999745,166.1821761999745,166.1821761999745,,166.63283020001836,z,166.633260600036,166.649004100007,167.6494407999562,167.63319970003795,0.7382340999320149,None,,,,,,,,,,,,,,,,,,,,,,,,,,,,,,,,,,,,,,,,,,,,,,,,,,,,,,,,,,,,,,,,,,,,,,,,,,,,,,,,,,,B_3,001,2024-11-27_13h10.14.819,untitled,2024.1.5,None,2024-11-27 13h10.26.482132 +0530,
triangle.png,you,0,Z,,,,,,,,,4,0,16,3,,,,,,,,,167.6494407999562,,,,,,,,,,,,,,,,,,,,,,,,,,,,,,,,,,167.6335633000126,167.6494407999562,168.13325640000403,168.13325640000403,168.13325640000403,168.13325640000403,168.14996860001702,168.43342779995874,168.43342779995874,168.43342779995874,,168.43434010003693,m,168.43476079998072,168.4500010999618,169.4502242000308,169.43397270003334,0.2961906000273302,None,,,,,,,,,,,,,,,,,,,,,,,,,,,,,,,,,,,,,,,,,,,,,,,,,,,,,,,,,,,,,,,,,,,,,,,,,,,,,,,,,,,B_3,001,2024-11-27_13h10.14.819,untitled,2024.1.5,None,2024-11-27 13h10.26.482132 +0530,
triangle.png,stranger,1,M,,,,,,,,,4,1,17,1,,,,,,,,,169.4502242000308,,,,,,,,,,,,,,,,,,,,,,,,,,,,,,,,,,169.4343336999882,169.4502242000308,169.9342844999628,169.9342844999628,169.9342844999628,169.9342844999628,169.9505521999672,,,,,170.13484950002749,m,170.13527630001772,170.15071720001288,171.15148210001644,171.13509300001897,0.1990419999929145,None,,,,,,,,,,,,,,,,,,,,,,,,,,,,,,,,,,,,,,,,,,,,,,,,,,,,,,,,,,,,,,,,,,,,,,,,,,,,,,,,,,,B_3,001,2024-11-27_13h10.14.819,untitled,2024.1.5,None,2024-11-27 13h10.26.482132 +0530,
square.png,you,1,M,,,,,,,,,4,2,18,0,,,,,,,,,171.15148210001644,,,,,,,,,,,,,,,,,,,,,,,,,,,,,,,,,,171.135445300024,171.15148210001644,171.6349229000043,171.6349229000043,171.6349229000043,171.6349229000043,171.65168130001985,171.9349147999892,171.9349147999892,171.9349147999892,,171.9191405000165,z,171.9195637999801,171.9349147999892,172.9353792000329,172.91929889994208,0.2748488000361249,None,,,,,,,,,,,,,,,,,,,,,,,,,,,,,,,,,,,,,,,,,,,,,,,,,,,,,,,,,,,,,,,,,,,,,,,,,,,,,,,,,,,B_3,001,2024-11-27_13h10.14.819,untitled,2024.1.5,None,2024-11-27 13h10.26.482132 +0530,
square.png,stranger,0,Z,,,,,,,,,4,3,19,2,,,,,,,,,172.9353792000329,,,,,,,,,,,,,,,,,,,,,,,,,,,,,,,,,,172.9196576999966,172.9353792000329,173.4191242000088,173.4191242000088,173.4191242000088,173.4191242000088,173.43587279994972,173.719295399962,173.719295399962,173.719295399962,,173.87016579997726,m,173.87059269996826,173.88592200004496,174.88663379999343,174.87034310004674,0.4424300999380648,None,,,,,,,,,,,,,,,,,,,,,,,,,,,,,,,,,,,,,,,,,,,,,,,,,,,,,,,,,,,,,,,,,,,,,,,,,,,,,,,,,,,B_3,001,2024-11-27_13h10.14.819,untitled,2024.1.5,None,2024-11-27 13h10.26.482132 +0530,
triangle.png,you,0,Z,,,,,,,,,5,0,20,3,,,,,,,,,174.88663379999343,,,,,,,,,,,,,,,,,,,,,,,,,,,,,,,,,,174.87070109997876,174.88663379999343,175.3703516999958,175.3703516999958,175.3703516999958,175.3703516999958,175.38668740005232,175.67018080002163,175.67018080002163,175.67018080002163,,175.6874123000307,m,175.68784749996848,175.70373019995168,176.70401560002938,176.6878031999804,0.30695330002345145,None,,,,,,,,,,,,,,,,,,,,,,,,,,,,,,,,,,,,,,,,,,,,,,,,,,,,,,,,,,,,,,,,,,,,,,,,,,,,,,,,,,,B_3,001,2024-11-27_13h10.14.819,untitled,2024.1.5,None,2024-11-27 13h10.26.482132 +0530,
square.png,you,1,M,,,,,,,,,5,1,21,0,,,,,,,,,176.70401560002938,,,,,,,,,,,,,,,,,,,,,,,,,,,,,,,,,,176.68816350004636,176.70401560002938,177.18775919999462,177.18775919999462,177.18775919999462,177.18775919999462,177.20431599998847,177.48777859995607,177.48777859995607,177.48777859995607,,178.12219869997352,m,178.12262399995234,178.1382198999636,179.13879560003988,179.1222781999968,0.9283016000408679,None,,,,,,,,,,,,,,,,,,,,,,,,,,,,,,,,,,,,,,,,,,,,,,,,,,,,,,,,,,,,,,,,,,,,,,,,,,,,,,,,,,,B_3,001,2024-11-27_13h10.14.819,untitled,2024.1.5,None,2024-11-27 13h10.26.482132 +0530,
triangle.png,stranger,1,M,,,,,,,,,5,2,22,1,,,,,,,,,179.13879560003988,,,,,,,,,,,,,,,,,,,,,,,,,,,,,,,,,,179.12262939999346,179.13879560003988,179.62226089998148,179.62226089998148,179.62226089998148,179.62226089998148,179.63912459998392,179.92251659999602,179.92251659999602,179.92251659999602,,179.97315620002337,z,179.9735838000197,179.98909299995285,180.9898230000399,180.9735754999565,0.33469739998690784,None,,,,,,,,,,,,,,,,,,,,,,,,,,,,,,,,,,,,,,,,,,,,,,,,,,,,,,,,,,,,,,,,,,,,,,,,,,,,,,,,,,,B_3,001,2024-11-27_13h10.14.819,untitled,2024.1.5,None,2024-11-27 13h10.26.482132 +0530,
square.png,stranger,0,Z,,,,,,,,,5,3,23,2,,,,,,,,,180.9898230000399,,,,,,,,,,,,,,,,,,,,,,,,,,,,,,,,,,180.97392749995925,180.9898230000399,181.47334180003963,181.47334180003963,181.47334180003963,181.47334180003963,181.4899528999813,181.7733303999994,181.7733303999994,181.7733303999994,,181.9409795999527,m,181.9414039000403,181.9568847999908,182.95749169995543,182.94107229996007,0.4512564999749884,None,,,,,,,,,,,,,,,,,,,,,,,,,,,,,,,,,,,,,,,,,,,,,,,,,,,,,,,,,,,,,,,,,,,,,,,,,,,,,,,,,,,B_3,001,2024-11-27_13h10.14.819,untitled,2024.1.5,None,2024-11-27 13h10.26.482132 +0530,
square.png,stranger,0,Z,,,,,,,,,6,0,24,2,,,,,,,,,182.95749169995543,,,,,,,,,,,,,,,,,,,,,,,,,,,,,,,,,,182.94142239994835,182.95749169995543,183.440909500001,183.440909500001,183.440909500001,183.440909500001,183.4578380000312,,,,,183.674961599987,m,183.67539899994154,183.6910197000252,184.69149360002484,184.67518609995022,0.22826889995485544,None,,,,,,,,,,,,,,,,,,,,,,,,,,,,,,,,,,,,,,,,,,,,,,,,,,,,,,,,,,,,,,,,,,,,,,,,,,,,,,,,,,,B_3,001,2024-11-27_13h10.14.819,untitled,2024.1.5,None,2024-11-27 13h10.26.482132 +0530,
square.png,you,1,M,,,,,,,,,6,1,25,0,,,,,,,,,184.69149360002484,,,,,,,,,,,,,,,,,,,,,,,,,,,,,,,,,,184.6755461000139,184.69149360002484,185.17521220003255,185.17521220003255,185.17521220003255,185.17521220003255,185.1919580999529,,,,,185.42624519998208,m,185.42667559999973,185.44178230001125,186.4425012000138,186.4262135999743,0.24159589991904795,None,,,,,,,,,,,,,,,,,,,,,,,,,,,,,,,,,,,,,,,,,,,,,,,,,,,,,,,,,,,,,,,,,,,,,,,,,,,,,,,,,,,B_3,001,2024-11-27_13h10.14.819,untitled,2024.1.5,None,2024-11-27 13h10.26.482132 +0530,
triangle.png,stranger,1,M,,,,,,,,,6,2,26,1,,,,,,,,,186.4425012000138,,,,,,,,,,,,,,,,,,,,,,,,,,,,,,,,,,186.42657030001283,186.4425012000138,186.92627599998377,186.92627599998377,186.92627599998377,186.92627599998377,186.94290639995597,187.22623719996773,187.22623719996773,187.22623719996773,,187.22696320002433,m,187.2273912000237,187.2430025000358,188.24340259993915,188.2270902999444,0.291081800009124,None,,,,,,,,,,,,,,,,,,,,,,,,,,,,,,,,,,,,,,,,,,,,,,,,,,,,,,,,,,,,,,,,,,,,,,,,,,,,,,,,,,,B_3,001,2024-11-27_13h10.14.819,untitled,2024.1.5,None,2024-11-27 13h10.26.482132 +0530,
triangle.png,you,0,Z,,,,,,,,,6,3,27,3,,,,,,,,,188.24340259993915,,,,,,,,,,,,,,,,,,,,,,,,,,,,,,,,,,188.22744129993953,188.24340259993915,188.7269633000251,188.7269633000251,188.7269633000251,188.7269633000251,188.74368620000314,189.02696980000474,189.02696980000474,189.02696980000474,,189.04462860000785,z,189.04505570000038,189.06036180001684,190.06099509994965,190.04471299995203,0.3130179999861866,None,,,,,,,,,,,,,,,,,,,,,,,,,,,,,,,,,,,,,,,,,,,,,,,,,,,,,,,,,,,,,,,,,,,,,,,,,,,,,,,,,,,B_3,001,2024-11-27_13h10.14.819,untitled,2024.1.5,None,2024-11-27 13h10.26.482132 +0530,
square.png,you,1,M,,,,,,,,,7,0,28,0,,,,,,,,,190.06099509994965,,,,,,,,,,,,,,,,,,,,,,,,,,,,,,,,,,190.04506529995706,190.06099509994965,190.54470990004484,190.54470990004484,190.54470990004484,190.54470990004484,190.56130639999174,190.84466940001585,190.84466940001585,190.84466940001585,,190.86190959997475,z,190.86233759997413,190.87813480000477,191.87868069997057,191.86243300000206,0.3159792999504134,None,,,,,,,,,,,,,,,,,,,,,,,,,,,,,,,,,,,,,,,,,,,,,,,,,,,,,,,,,,,,,,,,,,,,,,,,,,,,,,,,,,,B_3,001,2024-11-27_13h10.14.819,untitled,2024.1.5,None,2024-11-27 13h10.26.482132 +0530,
square.png,stranger,0,Z,,,,,,,,,7,1,29,2,,,,,,,,,191.87868069997057,,,,,,,,,,,,,,,,,,,,,,,,,,,,,,,,,,191.86278950003907,191.87868069997057,192.36225809995085,192.36225809995085,192.36225809995085,192.36225809995085,192.3788332999684,192.6621076000156,192.6621076000156,192.6621076000156,,192.6628455000464,m,192.66328570002224,192.6789379999973,193.6795583999483,193.66340910003055,0.2910476999823004,None,,,,,,,,,,,,,,,,,,,,,,,,,,,,,,,,,,,,,,,,,,,,,,,,,,,,,,,,,,,,,,,,,,,,,,,,,,,,,,,,,,,B_3,001,2024-11-27_13h10.14.819,untitled,2024.1.5,None,2024-11-27 13h10.26.482132 +0530,
triangle.png,you,0,Z,,,,,,,,,7,2,30,3,,,,,,,,,193.6795583999483,,,,,,,,,,,,,,,,,,,,,,,,,,,,,,,,,,193.66376140003558,193.6795583999483,194.16314229997806,194.16314229997806,194.16314229997806,194.16314229997806,194.17997229995672,194.46333229995798,194.46333229995798,194.46333229995798,,195.06427319999784,m,195.06470250000712,195.08016979997046,196.08063720003702,196.06442990002688,0.8849992000032216,None,,,,,,,,,,,,,,,,,,,,,,,,,,,,,,,,,,,,,,,,,,,,,,,,,,,,,,,,,,,,,,,,,,,,,,,,,,,,,,,,,,,B_3,001,2024-11-27_13h10.14.819,untitled,2024.1.5,None,2024-11-27 13h10.26.482132 +0530,
triangle.png,stranger,1,M,,,,,,,,,7,3,31,1,,,,,,,,,196.08063720003702,,,,,,,,,,,,,,,,,,,,,,,,,,,,,,,,,,196.06478989997413,196.08063720003702,196.5646346999565,196.5646346999565,196.5646346999565,196.5646346999565,196.58132190001197,196.86452349997126,196.86452349997126,196.86452349997126,,196.9653713000007,m,196.96580200002063,196.98144370003138,197.98161989997607,197.96543630002998,0.39274440007284284,None,,,,,,,,,,,,,,,,,,,,,,,,,,,,,,,,,,,,,,,,,,,,,,,,,,,,,,,,,,,,,,,,,,,,,,,,,,,,,,,,,,,B_3,001,2024-11-27_13h10.14.819,untitled,2024.1.5,None,2024-11-27 13h10.26.482132 +0530,
square.png,you,1,M,,,,,,,,,8,0,32,0,,,,,,,,,197.98161989997607,,,,,,,,,,,,,,,,,,,,,,,,,,,,,,,,,,197.96578740002587,197.98161989997607,198.4653691999847,198.4653691999847,198.4653691999847,198.4653691999847,198.481917600031,,,,,198.6830080000218,z,198.68345520005096,198.69862100004684,199.69916610000655,199.68287390004843,0.2122543000150472,None,,,,,,,,,,,,,,,,,,,,,,,,,,,,,,,,,,,,,,,,,,,,,,,,,,,,,,,,,,,,,,,,,,,,,,,,,,,,,,,,,,,B_3,001,2024-11-27_13h10.14.819,untitled,2024.1.5,None,2024-11-27 13h10.26.482132 +0530,
triangle.png,stranger,1,M,,,,,,,,,8,1,33,1,,,,,,,,,199.69916610000655,,,,,,,,,,,,,,,,,,,,,,,,,,,,,,,,,,199.6832322999835,199.69916610000655,200.18309850001242,200.18309850001242,200.18309850001242,200.18309850001242,200.19977569999173,200.48287479998544,200.48287479998544,200.48287479998544,,200.48366569995414,m,200.48408970003948,200.49978219997138,201.50015650002751,201.48386279994156,0.29440629994496703,None,,,,,,,,,,,,,,,,,,,,,,,,,,,,,,,,,,,,,,,,,,,,,,,,,,,,,,,,,,,,,,,,,,,,,,,,,,,,,,,,,,,B_3,001,2024-11-27_13h10.14.819,untitled,2024.1.5,None,2024-11-27 13h10.26.482132 +0530,
square.png,stranger,0,Z,,,,,,,,,8,2,34,2,,,,,,,,,201.50015650002751,,,,,,,,,,,,,,,,,,,,,,,,,,,,,,,,,,201.4842150999466,201.50015650002751,201.98382880003192,201.98382880003192,201.98382880003192,201.98382880003192,202.0003339999821,202.28382799995597,202.28382799995597,202.28382799995597,,202.8016146000009,z,202.80203649995383,202.817561200005,203.8182889999589,203.8018119999906,0.8097260999493301,None,,,,,,,,,,,,,,,,,,,,,,,,,,,,,,,,,,,,,,,,,,,,,,,,,,,,,,,,,,,,,,,,,,,,,,,,,,,,,,,,,,,B_3,001,2024-11-27_13h10.14.819,untitled,2024.1.5,None,2024-11-27 13h10.26.482132 +0530,
triangle.png,you,0,Z,,,,,,,,,8,3,35,3,,,,,,,,,203.8182889999589,,,,,,,,,,,,,,,,,,,,,,,,,,,,,,,,,,203.80216329998802,203.8182889999589,204.3020325000398,204.3020325000398,204.3020325000398,204.3020325000398,204.31838880002033,204.6014269000152,204.6014269000152,204.6014269000152,,204.63573450001422,m,204.63616620004177,204.6518244999461,205.6521580000408,205.63600349996705,0.31908909999765456,None,,,,,,,,,,,,,,,,,,,,,,,,,,,,,,,,,,,,,,,,,,,,,,,,,,,,,,,,,,,,,,,,,,,,,,,,,,,,,,,,,,,B_3,001,2024-11-27_13h10.14.819,untitled,2024.1.5,None,2024-11-27 13h10.26.482132 +0530,
square.png,you,1,M,,,,,,,,,9,0,36,0,,,,,,,,,205.6521580000408,,,,,,,,,,,,,,,,,,,,,,,,,,,,,,,,,,205.6363643000368,205.6521580000408,206.13604250003118,206.13604250003118,206.13604250003118,206.13604250003118,206.15240310004447,206.4360954000149,206.4360954000149,206.4360954000149,,206.47016070003156,m,206.47058610001113,206.48597539996263,207.4867430999875,207.47030319995247,0.3321933998959139,None,,,,,,,,,,,,,,,,,,,,,,,,,,,,,,,,,,,,,,,,,,,,,,,,,,,,,,,,,,,,,,,,,,,,,,,,,,,,,,,,,,,B_3,001,2024-11-27_13h10.14.819,untitled,2024.1.5,None,2024-11-27 13h10.26.482132 +0530,
triangle.png,you,0,Z,,,,,,,,,9,1,37,3,,,,,,,,,207.4867430999875,,,,,,,,,,,,,,,,,,,,,,,,,,,,,,,,,,207.4706567999674,207.4867430999875,207.97032870003022,207.97032870003022,207.97032870003022,207.97032870003022,207.98697950004134,208.27042389998678,208.27042389998678,208.27042389998678,,208.50426740001421,m,208.50468929996714,208.52054529997986,209.52094289998058,209.50457009999081,0.5188596999505535,None,,,,,,,,,,,,,,,,,,,,,,,,,,,,,,,,,,,,,,,,,,,,,,,,,,,,,,,,,,,,,,,,,,,,,,,,,,,,,,,,,,,B_3,001,2024-11-27_13h10.14.819,untitled,2024.1.5,None,2024-11-27 13h10.26.482132 +0530,
square.png,stranger,0,Z,,,,,,,,,9,2,38,2,,,,,,,,,209.52094289998058,,,,,,,,,,,,,,,,,,,,,,,,,,,,,,,,,,209.50492960005067,209.52094289998058,210.004347100039,210.004347100039,210.004347100039,210.004347100039,210.0212752999505,210.3047090000473,210.3047090000473,210.3047090000473,,210.4053291999735,m,210.40578290005215,210.42141429998446,211.4218455000082,211.40611760003958,0.3893969999626279,None,,,,,,,,,,,,,,,,,,,,,,,,,,,,,,,,,,,,,,,,,,,,,,,,,,,,,,,,,,,,,,,,,,,,,,,,,,,,,,,,,,,B_3,001,2024-11-27_13h10.14.819,untitled,2024.1.5,None,2024-11-27 13h10.26.482132 +0530,
triangle.png,stranger,1,M,,,,,,,,,9,3,39,1,,,,,,,,,211.4218455000082,,,,,,,,,,,,,,,,,,,,,,,,,,,,,,,,,,211.40652830002364,211.4218455000082,211.90555160003714,211.90555160003714,211.90555160003714,211.90555160003714,211.92240779998247,212.20550060004462,212.20550060004462,212.20550060004462,,212.37296890001744,z,212.37339550000615,212.38923209998757,213.38962609996088,213.37355999997817,0.4545054999180138,None,,,,,,,,,,,,,,,,,,,,,,,,,,,,,,,,,,,,,,,,,,,,,,,,,,,,,,,,,,,,,,,,,,,,,,,,,,,,,,,,,,,B_3,001,2024-11-27_13h10.14.819,untitled,2024.1.5,None,2024-11-27 13h10.26.482132 +0530,
square.png,you,1,M,,,,,,,,,10,0,40,0,,,,,,,,,213.38962609996088,,,,,,,,,,,,,,,,,,,,,,,,,,,,,,,,,,213.37391169997863,213.38962609996088,213.87317739997525,213.87317739997525,213.87317739997525,213.87317739997525,213.88995610002894,214.17335479997564,214.17335479997564,214.17335479997564,,214.35771340003703,m,214.35814389993902,214.37335290003102,215.3739470000146,215.35799139994197,0.48325569997541606,None,,,,,,,,,,,,,,,,,,,,,,,,,,,,,,,,,,,,,,,,,,,,,,,,,,,,,,,,,,,,,,,,,,,,,,,,,,,,,,,,,,,B_3,001,2024-11-27_13h10.14.819,untitled,2024.1.5,None,2024-11-27 13h10.26.482132 +0530,
triangle.png,you,0,Z,,,,,,,,,10,1,41,3,,,,,,,,,215.3739470000146,,,,,,,,,,,,,,,,,,,,,,,,,,,,,,,,,,215.35842820000835,215.3739470000146,215.85757360002026,215.85757360002026,215.85757360002026,215.85757360002026,215.874429199961,216.15768509998452,216.15768509998452,216.15768509998452,,216.44187239999883,m,216.44229379994795,216.45781719998922,217.45822250004858,217.44202179997228,0.5751241999678314,None,,,,,,,,,,,,,,,,,,,,,,,,,,,,,,,,,,,,,,,,,,,,,,,,,,,,,,,,,,,,,,,,,,,,,,,,,,,,,,,,,,,B_3,001,2024-11-27_13h10.14.819,untitled,2024.1.5,None,2024-11-27 13h10.26.482132 +0530,
triangle.png,stranger,1,M,,,,,,,,,10,2,42,1,,,,,,,,,217.45822250004858,,,,,,,,,,,,,,,,,,,,,,,,,,,,,,,,,,217.4423751999857,217.45822250004858,217.9422038999619,217.9422038999619,217.9422038999619,217.9422038999619,217.95888229995035,218.24223309999797,218.24223309999797,218.24223309999797,,218.24301610002294,m,218.2434439000208,218.25885900005233,219.2592104000505,219.2432865999872,0.28577600000426173,None,,,,,,,,,,,,,,,,,,,,,,,,,,,,,,,,,,,,,,,,,,,,,,,,,,,,,,,,,,,,,,,,,,,,,,,,,,,,,,,,,,,B_3,001,2024-11-27_13h10.14.819,untitled,2024.1.5,None,2024-11-27 13h10.26.482132 +0530,
square.png,stranger,0,Z,,,,,,,,,10,3,43,2,,,,,,,,,219.2592104000505,,,,,,,,,,,,,,,,,,,,,,,,,,,,,,,,,,219.2436423000181,219.2592104000505,219.7428628000198,219.7428628000198,219.7428628000198,219.7428628000198,219.7596174000064,220.0431060999399,220.0431060999399,220.0431060999399,,220.12704449996818,z,220.12747399997897,220.14314489997923,221.143530500005,221.12732590001542,0.3827901999466121,None,,,,,,,,,,,,,,,,,,,,,,,,,,,,,,,,,,,,,,,,,,,,,,,,,,,,,,,,,,,,,,,,,,,,,,,,,,,,,,,,,,,B_3,001,2024-11-27_13h10.14.819,untitled,2024.1.5,None,2024-11-27 13h10.26.482132 +0530,
square.png,stranger,0,Z,,,,,,,,,11,0,44,2,,,,,,,,,221.143530500005,,,,,,,,,,,,,,,,,,,,,,,,,,,,,,,,,,221.12767950003035,221.143530500005,221.6272565999534,221.6272565999534,221.6272565999534,221.6272565999534,221.64371970004868,,,,,221.87824899994303,m,221.87867440003902,221.8939397999784,222.8943887000205,222.87829380005132,0.24644740007352084,None,,,,,,,,,,,,,,,,,,,,,,,,,,,,,,,,,,,,,,,,,,,,,,,,,,,,,,,,,,,,,,,,,,,,,,,,,,,,,,,,,,,B_3,001,2024-11-27_13h10.14.819,untitled,2024.1.5,None,2024-11-27 13h10.26.482132 +0530,
triangle.png,you,0,Z,,,,,,,,,11,1,45,3,,,,,,,,,222.8943887000205,,,,,,,,,,,,,,,,,,,,,,,,,,,,,,,,,,222.87864709994756,222.8943887000205,223.3783500000136,223.3783500000136,223.3783500000136,223.3783500000136,223.39488429995254,223.67820179997943,223.67820179997943,223.67820179997943,,224.0459212999558,z,224.0463449000381,224.06167419999838,225.0621533000376,225.04603069997393,0.6632940999697894,None,,,,,,,,,,,,,,,,,,,,,,,,,,,,,,,,,,,,,,,,,,,,,,,,,,,,,,,,,,,,,,,,,,,,,,,,,,,,,,,,,,,B_3,001,2024-11-27_13h10.14.819,untitled,2024.1.5,None,2024-11-27 13h10.26.482132 +0530,
triangle.png,stranger,1,M,,,,,,,,,11,2,46,1,,,,,,,,,225.0621533000376,,,,,,,,,,,,,,,,,,,,,,,,,,,,,,,,,,225.0463807999622,225.0621533000376,225.54627589997835,225.54627589997835,225.54627589997835,225.54627589997835,225.56275060004555,225.846051099943,225.846051099943,225.846051099943,,225.88006730005145,m,225.88050530001055,225.89619939995464,226.8964218000183,226.88022099994123,0.3269858999410644,None,,,,,,,,,,,,,,,,,,,,,,,,,,,,,,,,,,,,,,,,,,,,,,,,,,,,,,,,,,,,,,,,,,,,,,,,,,,,,,,,,,,B_3,001,2024-11-27_13h10.14.819,untitled,2024.1.5,None,2024-11-27 13h10.26.482132 +0530,
square.png,you,1,M,,,,,,,,,11,3,47,0,,,,,,,,,226.8964218000183,,,,,,,,,,,,,,,,,,,,,,,,,,,,,,,,,,226.88057379995007,226.8964218000183,227.3803670000052,227.3803670000052,227.3803670000052,227.3803670000052,227.39674809994176,227.68031510000583,227.68031510000583,227.68031510000583,,227.74784329999238,z,227.74826589995064,227.76373120001517,228.76407489995472,228.74791100004222,0.36086779995821416,None,,,,,,,,,,,,,,,,,,,,,,,,,,,,,,,,,,,,,,,,,,,,,,,,,,,,,,,,,,,,,,,,,,,,,,,,,,,,,,,,,,,B_3,001,2024-11-27_13h10.14.819,untitled,2024.1.5,None,2024-11-27 13h10.26.482132 +0530,
square.png,stranger,0,Z,,,,,,,,,12,0,48,2,,,,,,,,,228.76407489995472,,,,,,,,,,,,,,,,,,,,,,,,,,,,,,,,,,228.74827029998414,228.76407489995472,229.24782950000372,229.24782950000372,229.24782950000372,229.24782950000372,229.26440240000375,229.54795809998177,229.54795809998177,229.54795809998177,,229.84881009999663,m,229.84924130002037,229.86498199997004,230.86511579994112,230.8489949000068,0.589834799990058,None,,,,,,,,,,,,,,,,,,,,,,,,,,,,,,,,,,,,,,,,,,,,,,,,,,,,,,,,,,,,,,,,,,,,,,,,,,,,,,,,,,,B_3,001,2024-11-27_13h10.14.819,untitled,2024.1.5,None,2024-11-27 13h10.26.482132 +0530,
triangle.png,stranger,1,M,,,,,,,,,12,1,49,1,,,,,,,,,230.86511579994112,,,,,,,,,,,,,,,,,,,,,,,,,,,,,,,,,,230.84935060003772,230.86511579994112,231.3488454000326,231.3488454000326,231.3488454000326,231.3488454000326,231.36567530001048,231.6488101000432,231.6488101000432,231.6488101000432,,232.24988569994457,m,232.2503079000162,232.26613949995954,233.26637770002708,233.25013489997946,0.887895799940452,None,,,,,,,,,,,,,,,,,,,,,,,,,,,,,,,,,,,,,,,,,,,,,,,,,,,,,,,,,,,,,,,,,,,,,,,,,,,,,,,,,,,B_3,001,2024-11-27_13h10.14.819,untitled,2024.1.5,None,2024-11-27 13h10.26.482132 +0530,
triangle.png,you,0,Z,,,,,,,,,12,2,50,3,,,,,,,,,233.26637770002708,,,,,,,,,,,,,,,,,,,,,,,,,,,,,,,,,,233.25048779998906,233.26637770002708,233.7502379999496,233.7502379999496,233.7502379999496,233.7502379999496,233.76679839997087,234.0500716000097,234.0500716000097,234.0500716000097,,234.03443949995562,z,234.03487520001363,234.0500716000097,235.05089720000979,235.0344049000414,0.2699629000853747,None,,,,,,,,,,,,,,,,,,,,,,,,,,,,,,,,,,,,,,,,,,,,,,,,,,,,,,,,,,,,,,,,,,,,,,,,,,,,,,,,,,,B_3,001,2024-11-27_13h10.14.819,untitled,2024.1.5,None,2024-11-27 13h10.26.482132 +0530,
square.png,you,1,M,,,,,,,,,12,3,51,0,,,,,,,,,235.05089720000979,,,,,,,,,,,,,,,,,,,,,,,,,,,,,,,,,,235.03475140000228,235.05089720000979,235.53443630004767,235.53443630004767,235.53443630004767,235.53443630004767,235.55119359993841,235.8342686999822,235.8342686999822,235.8342686999822,,235.85201150004286,m,235.85243790003005,235.8678178000264,236.86825589998625,236.8522498999955,0.30641569988802075,None,,,,,,,,,,,,,,,,,,,,,,,,,,,,,,,,,,,,,,,,,,,,,,,,,,,,,,,,,,,,,,,,,,,,,,,,,,,,,,,,,,,B_3,001,2024-11-27_13h10.14.819,untitled,2024.1.5,None,2024-11-27 13h10.26.482132 +0530,
square.png,you,1,M,,,,,,,,,13,0,52,0,,,,,,,,,236.86825589998625,,,,,,,,,,,,,,,,,,,,,,,,,,,,,,,,,,236.85260600002948,236.86825589998625,237.3521027000388,237.3521027000388,237.3521027000388,237.3521027000388,237.36868439998943,237.6520420999732,237.6520420999732,237.6520420999732,,237.6528144000331,z,237.65323619998526,237.66877400001977,238.66937769996002,238.65294029994402,0.29766609997022897,None,,,,,,,,,,,,,,,,,,,,,,,,,,,,,,,,,,,,,,,,,,,,,,,,,,,,,,,,,,,,,,,,,,,,,,,,,,,,,,,,,,,B_3,001,2024-11-27_13h10.14.819,untitled,2024.1.5,None,2024-11-27 13h10.26.482132 +0530,
triangle.png,you,0,Z,,,,,,,,,13,1,53,3,,,,,,,,,238.66937769996002,,,,,,,,,,,,,,,,,,,,,,,,,,,,,,,,,,238.65329569997266,238.66937769996002,239.1530723000178,239.1530723000178,239.1530723000178,239.1530723000178,239.1694279999938,239.45289459999185,239.45289459999185,239.45289459999185,,239.5873816999374,z,239.58780460001435,239.60309059999418,240.603587300051,240.58729279995896,0.42379199992865324,None,,,,,,,,,,,,,,,,,,,,,,,,,,,,,,,,,,,,,,,,,,,,,,,,,,,,,,,,,,,,,,,,,,,,,,,,,,,,,,,,,,,B_3,001,2024-11-27_13h10.14.819,untitled,2024.1.5,None,2024-11-27 13h10.26.482132 +0530,
triangle.png,stranger,1,M,,,,,,,,,13,2,54,1,,,,,,,,,240.603587300051,,,,,,,,,,,,,,,,,,,,,,,,,,,,,,,,,,240.587653900031,240.603587300051,241.08755229995586,241.08755229995586,241.08755229995586,241.08755229995586,241.1038913000375,,,,,241.35493000003044,m,241.35535630001687,241.3707238000352,242.37130430003162,242.35481669998262,0.26066150004044175,None,,,,,,,,,,,,,,,,,,,,,,,,,,,,,,,,,,,,,,,,,,,,,,,,,,,,,,,,,,,,,,,,,,,,,,,,,,,,,,,,,,,B_3,001,2024-11-27_13h10.14.819,untitled,2024.1.5,None,2024-11-27 13h10.26.482132 +0530,
square.png,stranger,0,Z,,,,,,,,,13,3,55,2,,,,,,,,,242.37130430003162,,,,,,,,,,,,,,,,,,,,,,,,,,,,,,,,,,242.35516619996633,242.37130430003162,242.85490639996715,242.85490639996715,242.85490639996715,242.85490639996715,242.87143069994636,243.15484430000652,243.15484430000652,243.15484430000652,,243.28945459995884,z,243.2898836999666,243.30517659999896,244.3055747000035,244.2893527999986,0.4337611000519246,None,,,,,,,,,,,,,,,,,,,,,,,,,,,,,,,,,,,,,,,,,,,,,,,,,,,,,,,,,,,,,,,,,,,,,,,,,,,,,,,,,,,B_3,001,2024-11-27_13h10.14.819,untitled,2024.1.5,None,2024-11-27 13h10.26.482132 +0530,
triangle.png,stranger,1,M,,,,,,,,,14,0,56,1,,,,,,,,,244.3055747000035,,,,,,,,,,,,,,,,,,,,,,,,,,,,,,,,,,244.28970720001962,244.3055747000035,244.78912680002395,244.78912680002395,244.78912680002395,244.78912680002395,244.80569750000723,245.08917379996274,245.08917379996274,245.08917379996274,,245.15677570004482,m,245.1572024000343,245.1726737000281,246.1733019000385,246.15674070001114,0.35908460000064224,None,,,,,,,,,,,,,,,,,,,,,,,,,,,,,,,,,,,,,,,,,,,,,,,,,,,,,,,,,,,,,,,,,,,,,,,,,,,,,,,,,,,B_3,001,2024-11-27_13h10.14.819,untitled,2024.1.5,None,2024-11-27 13h10.26.482132 +0530,
square.png,stranger,0,Z,,,,,,,,,14,1,57,2,,,,,,,,,246.1733019000385,,,,,,,,,,,,,,,,,,,,,,,,,,,,,,,,,,246.15709340001922,246.1733019000385,246.65686800004914,246.65686800004914,246.65686800004914,246.65686800004914,246.6733809999423,246.95673079998232,246.95673079998232,246.95673079998232,,247.02432289998978,z,247.02474549994804,247.04030019999482,248.04086199996527,248.02441569999792,0.35519979998935014,None,,,,,,,,,,,,,,,,,,,,,,,,,,,,,,,,,,,,,,,,,,,,,,,,,,,,,,,,,,,,,,,,,,,,,,,,,,,,,,,,,,,B_3,001,2024-11-27_13h10.14.819,untitled,2024.1.5,None,2024-11-27 13h10.26.482132 +0530,
triangle.png,you,0,Z,,,,,,,,,14,2,58,3,,,,,,,,,248.04086199996527,,,,,,,,,,,,,,,,,,,,,,,,,,,,,,,,,,248.02476479997858,248.04086199996527,248.5243173999479,248.5243173999479,248.5243173999479,248.5243173999479,248.54119380004704,248.82469409995247,248.82469409995247,248.82469409995247,,248.82541960000526,m,248.82584359997418,248.8411145999562,249.841546199983,249.82556250004563,0.2925576000707224,None,,,,,,,,,,,,,,,,,,,,,,,,,,,,,,,,,,,,,,,,,,,,,,,,,,,,,,,,,,,,,,,,,,,,,,,,,,,,,,,,,,,B_3,001,2024-11-27_13h10.14.819,untitled,2024.1.5,None,2024-11-27 13h10.26.482132 +0530,
square.png,you,1,M,,,,,,,,,14,3,59,0,,,,,,,,,249.841546199983,,,,,,,,,,,,,,,,,,,,,,,,,,,,,,,,,,249.82592019997537,249.841546199983,250.32527469994966,250.32527469994966,250.32527469994966,250.32527469994966,250.34216979995836,,,,,250.5594689999707,z,250.55989309994038,250.57533659995534,251.57579889998306,251.5596437000204,0.23236690007615834,None,,,,,,,,,,,,,,,,,,,,,,,,,,,,,,,,,,,,,,,,,,,,,,,,,,,,,,,,,,,,,,,,,,,,,,,,,,,,,,,,,,,B_3,001,2024-11-27_13h10.14.819,untitled,2024.1.5,None,2024-11-27 13h10.26.482132 +0530,
triangle.png,stranger,1,M,,,,,,,,,15,0,60,1,,,,,,,,,251.57579889998306,,,,,,,,,,,,,,,,,,,,,,,,,,,,,,,,,,251.55999430001248,251.57579889998306,252.05977930000518,252.05977930000518,252.05977930000518,252.05977930000518,252.07612340000924,252.35954009997658,252.35954009997658,252.35954009997658,,252.42702109995298,m,252.42744630004745,252.4430859000422,253.44368040002882,253.42714349995367,0.3525902000255883,None,,,,,,,,,,,,,,,,,,,,,,,,,,,,,,,,,,,,,,,,,,,,,,,,,,,,,,,,,,,,,,,,,,,,,,,,,,,,,,,,,,,B_3,001,2024-11-27_13h10.14.819,untitled,2024.1.5,None,2024-11-27 13h10.26.482132 +0530,
square.png,you,1,M,,,,,,,,,15,1,61,0,,,,,,,,,253.44368040002882,,,,,,,,,,,,,,,,,,,,,,,,,,,,,,,,,,253.42749719996937,253.44368040002882,253.92752140003722,253.92752140003722,253.92752140003722,253.92752140003722,253.94371449993923,254.22704479994718,254.22704479994718,254.22704479994718,,254.34470440004952,z,254.3451267000055,254.3605579000432,255.36108740000054,255.34486479999032,0.40165729995351285,None,,,,,,,,,,,,,,,,,,,,,,,,,,,,,,,,,,,,,,,,,,,,,,,,,,,,,,,,,,,,,,,,,,,,,,,,,,,,,,,,,,,B_3,001,2024-11-27_13h10.14.819,untitled,2024.1.5,None,2024-11-27 13h10.26.482132 +0530,
triangle.png,you,0,Z,,,,,,,,,15,2,62,3,,,,,,,,,255.36108740000054,,,,,,,,,,,,,,,,,,,,,,,,,,,,,,,,,,255.34521629998926,255.36108740000054,255.84495820000302,255.84495820000302,255.84495820000302,255.84495820000302,255.86134449997917,,,,,256.0457933000289,m,256.0462159999879,256.0614028000273,257.0618378999643,257.04558899998665,0.18452500004786998,None,,,,,,,,,,,,,,,,,,,,,,,,,,,,,,,,,,,,,,,,,,,,,,,,,,,,,,,,,,,,,,,,,,,,,,,,,,,,,,,,,,,B_3,001,2024-11-27_13h10.14.819,untitled,2024.1.5,None,2024-11-27 13h10.26.482132 +0530,
square.png,stranger,0,Z,,,,,,,,,15,3,63,2,,,,,,,,,257.0618378999643,,,,,,,,,,,,,,,,,,,,,,,,,,,,,,,,,,257.04594680003356,257.0618378999643,257.5456209999975,257.5456209999975,257.5456209999975,257.5456209999975,257.5625487000216,,,,,257.7132571999682,z,257.7136911000125,257.7290409000125,258.7294899999397,258.71301800000947,0.15135139995254576,None,,,,,,,,,,,,,,,,,,,,,,,,,,,,,,,,,,,,,,,,,,,,,,,,,,,,,,,,,,,,,,,,,,,,,,,,,,,,,,,,,,,B_3,001,2024-11-27_13h10.14.819,untitled,2024.1.5,None,2024-11-27 13h10.26.482132 +0530,
triangle.png,stranger,1,M,,,,,,,,,16,0,64,1,,,,,,,,,258.7294899999397,,,,,,,,,,,,,,,,,,,,,,,,,,,,,,,,,,258.7133805999765,258.7294899999397,259.2134629000211,259.2134629000211,259.2134629000211,259.2134629000211,259.23002849996556,259.51324230001774,259.51324230001774,259.51324230001774,,259.564080900047,m,259.5645096000517,259.5800046999939,260.58073149994016,260.5642902000109,0.34416460001375526,None,,,,,,,,,,,,,,,,,,,,,,,,,,,,,,,,,,,,,,,,,,,,,,,,,,,,,,,,,,,,,,,,,,,,,,,,,,,,,,,,,,,B_3,001,2024-11-27_13h10.14.819,untitled,2024.1.5,None,2024-11-27 13h10.26.482132 +0530,
triangle.png,you,0,Z,,,,,,,,,16,1,65,3,,,,,,,,,260.58073149994016,,,,,,,,,,,,,,,,,,,,,,,,,,,,,,,,,,260.5646391999908,260.58073149994016,261.0641322999727,261.0641322999727,261.0641322999727,261.0641322999727,261.08086610003375,261.3641522999387,261.3641522999387,261.3641522999387,,261.3485201000003,z,261.3489470999921,261.3641522999387,262.36491729994304,262.34844730002806,0.2687052000546828,None,,,,,,,,,,,,,,,,,,,,,,,,,,,,,,,,,,,,,,,,,,,,,,,,,,,,,,,,,,,,,,,,,,,,,,,,,,,,,,,,,,,B_3,001,2024-11-27_13h10.14.819,untitled,2024.1.5,None,2024-11-27 13h10.26.482132 +0530,
square.png,stranger,0,Z,,,,,,,,,16,2,66,2,,,,,,,,,262.36491729994304,,,,,,,,,,,,,,,,,,,,,,,,,,,,,,,,,,262.34879429999273,262.36491729994304,262.8481185999699,262.8481185999699,262.8481185999699,262.8481185999699,262.86476909997873,,,,,263.11551619996317,m,263.1159426999511,263.1315273999935,264.13214050000533,264.11603469995316,0.26038280001375824,None,,,,,,,,,,,,,,,,,,,,,,,,,,,,,,,,,,,,,,,,,,,,,,,,,,,,,,,,,,,,,,,,,,,,,,,,,,,,,,,,,,,B_3,001,2024-11-27_13h10.14.819,untitled,2024.1.5,None,2024-11-27 13h10.26.482132 +0530,
square.png,you,1,M,,,,,,,,,16,3,67,0,,,,,,,,,264.13214050000533,,,,,,,,,,,,,,,,,,,,,,,,,,,,,,,,,,264.11640189995524,264.13214050000533,264.61604039999656,264.61604039999656,264.61604039999656,264.61604039999656,264.6327638999792,,,,,264.85049360000994,z,264.8509248000337,264.8659305999754,265.8666553000221,265.85032460000366,0.23285030003171414,None,,,,,,,,,,,,,,,,,,,,,,,,,,,,,,,,,,,,,,,,,,,,,,,,,,,,,,,,,,,,,,,,,,,,,,,,,,,,,,,,,,,B_3,001,2024-11-27_13h10.14.819,untitled,2024.1.5,None,2024-11-27 13h10.26.482132 +0530,
triangle.png,you,0,Z,,,,,,,,,17,0,68,3,,,,,,,,,265.8666553000221,,,,,,,,,,,,,,,,,,,,,,,,,,,,,,,,,,265.85067600000184,265.8666553000221,266.3666988000041,266.3666988000041,266.3666988000041,266.3666988000041,266.3666988000041,266.66692310001235,266.66692310001235,266.66692310001235,,267.11766029999126,m,267.1180956000462,267.133891299949,268.1345203999663,268.11827169999015,0.7497032999526709,None,,,,,,,,,,,,,,,,,,,,,,,,,,,,,,,,,,,,,,,,,,,,,,,,,,,,,,,,,,,,,,,,,,,,,,,,,,,,,,,,,,,B_3,001,2024-11-27_13h10.14.819,untitled,2024.1.5,None,2024-11-27 13h10.26.482132 +0530,
triangle.png,stranger,1,M,,,,,,,,,17,1,69,1,,,,,,,,,268.1345203999663,,,,,,,,,,,,,,,,,,,,,,,,,,,,,,,,,,268.118620299967,268.1345203999663,268.61815630004276,268.61815630004276,268.61815630004276,268.61815630004276,268.6348490000237,268.91832850000355,268.91832850000355,268.91832850000355,,268.9689091000473,z,268.9693355000345,268.98476140003186,269.9853153999429,269.96918120002374,0.3431570999091491,None,,,,,,,,,,,,,,,,,,,,,,,,,,,,,,,,,,,,,,,,,,,,,,,,,,,,,,,,,,,,,,,,,,,,,,,,,,,,,,,,,,,B_3,001,2024-11-27_13h10.14.819,untitled,2024.1.5,None,2024-11-27 13h10.26.482132 +0530,
square.png,stranger,0,Z,,,,,,,,,17,2,70,2,,,,,,,,,269.9853153999429,,,,,,,,,,,,,,,,,,,,,,,,,,,,,,,,,,269.96953410003334,269.9853153999429,270.46893279999495,270.46893279999495,270.46893279999495,270.46893279999495,270.48578290001024,270.7692821000237,270.7692821000237,270.7692821000237,271.5696121000219,271.5531897000037,None,271.5533823999576,271.5696121000219,272.57020239997655,272.5539538000012,,,,,,,,,,,,,,,,,,,,,,,,,,,,,,,,,,,,,,,,,,,,,,,,,,,,,,,,,,,,,,,,,,,,,,,,,,,,,,,,,,,,,B_3,001,2024-11-27_13h10.14.819,untitled,2024.1.5,None,2024-11-27 13h10.26.482132 +0530,
square.png,you,1,M,,,,,,,,,17,3,71,0,,,,,,,,,272.57020239997655,,,,,,,,,,,,,,,,,,,,,,,,,,,,,,,,,,272.554310800042,272.57020239997655,273.070599699975,273.070599699975,273.070599699975,273.070599699975,273.070599699975,273.3704496000428,273.3704496000428,273.3704496000428,,273.60455499996897,z,273.60499589995015,273.6203727000393,274.62100879999343,274.6050014999928,0.5188723000464961,None,,,,,,,,,,,,,,,,,,,,,,,,,,,,,,,,,,,,,,,,,,,,,,,,,,,,,,,,,,,,,,,,,,,,,,,,,,,,,,,,,,,B_3,001,2024-11-27_13h10.14.819,untitled,2024.1.5,None,2024-11-27 13h10.26.482132 +0530,
square.png,you,1,M,,,,,,,,,18,0,72,0,,,,,,,,,274.62100879999343,,,,,,,,,,,,,,,,,,,,,,,,,,,,,,,,,,274.6053620999446,274.62100879999343,275.104673899943,275.104673899943,275.104673899943,275.104673899943,275.1212973999791,275.4048643000424,275.4048643000424,275.4048643000424,,275.6391169000417,m,275.63954390003346,275.6548399999738,276.6556351999752,276.63904559996445,0.5248310000170022,None,,,,,,,,,,,,,,,,,,,,,,,,,,,,,,,,,,,,,,,,,,,,,,,,,,,,,,,,,,,,,,,,,,,,,,,,,,,,,,,,,,,B_3,001,2024-11-27_13h10.14.819,untitled,2024.1.5,None,2024-11-27 13h10.26.482132 +0530,
triangle.png,stranger,1,M,,,,,,,,,18,1,73,1,,,,,,,,,276.6556351999752,,,,,,,,,,,,,,,,,,,,,,,,,,,,,,,,,,276.63939999998547,276.6556351999752,277.13919280003756,277.13919280003756,277.13919280003756,277.13919280003756,277.15605820005294,277.43930550001096,277.43930550001096,277.43930550001096,,277.5567587999394,z,277.55718899995554,277.57264330005273,278.5731255999999,278.55693229997996,0.40624399995431304,None,,,,,,,,,,,,,,,,,,,,,,,,,,,,,,,,,,,,,,,,,,,,,,,,,,,,,,,,,,,,,,,,,,,,,,,,,,,,,,,,,,,B_3,001,2024-11-27_13h10.14.819,untitled,2024.1.5,None,2024-11-27 13h10.26.482132 +0530,
square.png,stranger,0,Z,,,,,,,,,18,2,74,2,,,,,,,,,278.5731255999999,,,,,,,,,,,,,,,,,,,,,,,,,,,,,,,,,,278.55729100003373,278.5731255999999,279.05697369994596,279.05697369994596,279.05697369994596,279.05697369994596,279.073572000023,279.3569530999521,279.3569530999521,279.3569530999521,280.15720899996813,280.14113590004854,None,280.14132729999255,280.15720899996813,281.1576705999905,281.14170269994065,,,,,,,,,,,,,,,,,,,,,,,,,,,,,,,,,,,,,,,,,,,,,,,,,,,,,,,,,,,,,,,,,,,,,,,,,,,,,,,,,,,,,B_3,001,2024-11-27_13h10.14.819,untitled,2024.1.5,None,2024-11-27 13h10.26.482132 +0530,
triangle.png,you,0,Z,,,,,,,,,18,3,75,3,,,,,,,,,281.1576705999905,,,,,,,,,,,,,,,,,,,,,,,,,,,,,,,,,,281.1420532000484,281.1576705999905,281.6583151000086,281.6583151000086,281.6583151000086,281.6583151000086,281.6583151000086,281.958373600035,281.958373600035,281.958373600035,,282.4259390999796,m,282.42636020004284,282.44180529995356,283.4423420999665,283.4261684999801,0.7590342999901623,None,,,,,,,,,,,,,,,,,,,,,,,,,,,,,,,,,,,,,,,,,,,,,,,,,,,,,,,,,,,,,,,,,,,,,,,,,,,,,,,,,,,B_3,001,2024-11-27_13h10.14.819,untitled,2024.1.5,None,2024-11-27 13h10.26.482132 +0530,
square.png,you,1,M,,,,,,,,,19,0,76,0,,,,,,,,,283.4423420999665,,,,,,,,,,,,,,,,,,,,,,,,,,,,,,,,,,283.42652049998287,283.4423420999665,283.92586099996697,283.92586099996697,283.92586099996697,283.92586099996697,283.9427515999414,284.22609170002397,284.22609170002397,284.22609170002397,,284.2769320999505,z,284.27735350001603,284.29294509999454,285.29332799999975,285.27697979996447,0.3345746999839321,None,,,,,,,,,,,,,,,,,,,,,,,,,,,,,,,,,,,,,,,,,,,,,,,,,,,,,,,,,,,,,,,,,,,,,,,,,,,,,,,,,,,B_3,001,2024-11-27_13h10.14.819,untitled,2024.1.5,None,2024-11-27 13h10.26.482132 +0530,
square.png,stranger,0,Z,,,,,,,,,19,1,77,2,,,,,,,,,285.29332799999975,,,,,,,,,,,,,,,,,,,,,,,,,,,,,,,,,,285.2773281999398,285.29332799999975,285.77698810002767,285.77698810002767,285.77698810002767,285.77698810002767,285.79362450004555,286.0768415000057,286.0768415000057,286.0768415000057,,286.16101559996605,m,286.16144409996923,286.17715550004505,287.17719580000266,287.1609727999894,0.3763582999818027,None,,,,,,,,,,,,,,,,,,,,,,,,,,,,,,,,,,,,,,,,,,,,,,,,,,,,,,,,,,,,,,,,,,,,,,,,,,,,,,,,,,,B_3,001,2024-11-27_13h10.14.819,untitled,2024.1.5,None,2024-11-27 13h10.26.482132 +0530,
triangle.png,you,0,Z,,,,,,,,,19,2,78,3,,,,,,,,,287.17719580000266,,,,,,,,,,,,,,,,,,,,,,,,,,,,,,,,,,287.1613349999534,287.17719580000266,287.6612085000379,287.6612085000379,287.6612085000379,287.6612085000379,287.67774640000425,287.96116249996703,287.96116249996703,287.96116249996703,,288.12885570002254,z,288.1292853000341,288.1448753000004,289.14529130002484,289.1289245999651,0.45900159992743284,None,,,,,,,,,,,,,,,,,,,,,,,,,,,,,,,,,,,,,,,,,,,,,,,,,,,,,,,,,,,,,,,,,,,,,,,,,,,,,,,,,,,B_3,001,2024-11-27_13h10.14.819,untitled,2024.1.5,None,2024-11-27 13h10.26.482132 +0530,
triangle.png,stranger,1,M,,,,,,,,,19,3,79,1,,,,,,,,,289.14529130002484,,,,,,,,,,,,,,,,,,,,,,,,,,,,,,,,,,289.1292811000021,289.14529130002484,289.62891910003964,289.62891910003964,289.62891910003964,289.62891910003964,289.64563149993774,289.9289948999649,289.9289948999649,289.9289948999649,,290.21324419998564,m,290.21368040004745,290.2290532999905,291.22961919999216,291.2135180999758,0.5718796999426559,None,,,,,,,,,,,,,,,,,,,,,,,,,,,,,,,,,,,,,,,,,,,,,,,,,,,,,,,,,,,,,,,,,,,,,,,,,,,,,,,,,,,B_3,001,2024-11-27_13h10.14.819,untitled,2024.1.5,None,2024-11-27 13h10.26.482132 +0530,
square.png,stranger,0,Z,,,,,,,,,20,0,80,2,,,,,,,,,291.22961919999216,,,,,,,,,,,,,,,,,,,,,,,,,,,,,,,,,,291.21387259999756,291.22961919999216,291.713199299993,291.713199299993,291.713199299993,291.713199299993,291.7301123000216,292.013332100003,292.013332100003,292.013332100003,292.8137727000285,292.79738150001504,None,292.79757599998266,292.8137727000285,293.814270199975,293.79803369997535,,,,,,,,,,,,,,,,,,,,,,,,,,,,,,,,,,,,,,,,,,,,,,,,,,,,,,,,,,,,,,,,,,,,,,,,,,,,,,,,,,,,,B_3,001,2024-11-27_13h10.14.819,untitled,2024.1.5,None,2024-11-27 13h10.26.482132 +0530,
triangle.png,stranger,1,M,,,,,,,,,20,1,81,1,,,,,,,,,293.814270199975,,,,,,,,,,,,,,,,,,,,,,,,,,,,,,,,,,293.79839260003064,293.814270199975,294.3145548000466,294.3145548000466,294.3145548000466,294.3145548000466,294.3145548000466,294.6145922000287,294.6145922000287,294.6145922000287,,294.81547909998335,z,294.81590829999186,294.8314355999464,295.8321144999936,295.81564539996907,0.4944077000254765,None,,,,,,,,,,,,,,,,,,,,,,,,,,,,,,,,,,,,,,,,,,,,,,,,,,,,,,,,,,,,,,,,,,,,,,,,,,,,,,,,,,,B_3,001,2024-11-27_13h10.14.819,untitled,2024.1.5,None,2024-11-27 13h10.26.482132 +0530,
square.png,you,1,M,,,,,,,,,20,2,82,0,,,,,,,,,295.8321144999936,,,,,,,,,,,,,,,,,,,,,,,,,,,,,,,,,,295.8160060000373,295.8321144999936,296.3156753999647,296.3156753999647,296.3156753999647,296.3156753999647,296.3321653000312,296.6155686000129,296.6155686000129,296.6155686000129,,297.0167264000047,m,297.01715780002996,297.0326490999432,298.0331177000189,298.0167717000004,0.6894741000141948,None,,,,,,,,,,,,,,,,,,,,,,,,,,,,,,,,,,,,,,,,,,,,,,,,,,,,,,,,,,,,,,,,,,,,,,,,,,,,,,,,,,,B_3,001,2024-11-27_13h10.14.819,untitled,2024.1.5,None,2024-11-27 13h10.26.482132 +0530,
triangle.png,you,0,Z,,,,,,,,,20,3,83,3,,,,,,,,,298.0331177000189,,,,,,,,,,,,,,,,,,,,,,,,,,,,,,,,,,298.01712990005035,298.0331177000189,298.5166464999784,298.5166464999784,298.5166464999784,298.5166464999784,298.5335269999923,298.8168408999918,298.8168408999918,298.8168408999918,,298.9511858000187,z,298.95161370001733,298.9669961000327,299.96735769999214,299.9511154999491,0.4325416999636218,None,,,,,,,,,,,,,,,,,,,,,,,,,,,,,,,,,,,,,,,,,,,,,,,,,,,,,,,,,,,,,,,,,,,,,,,,,,,,,,,,,,,B_3,001,2024-11-27_13h10.14.819,untitled,2024.1.5,None,2024-11-27 13h10.26.482132 +0530,
square.png,stranger,0,Z,,,,,,,,,21,0,84,2,,,,,,,,,299.96735769999214,,,,,,,,,,,,,,,,,,,,,,,,,,,,,,,,,,299.95147239998914,299.96735769999214,300.45131739997305,300.45131739997305,300.45131739997305,300.45131739997305,300.46794140001293,300.7512778999517,300.7512778999517,300.7512778999517,,301.0188247000333,m,301.01924629998393,301.0345163999591,302.03525259997696,302.01876350003295,0.5582897000713274,None,,,,,,,,,,,,,,,,,,,,,,,,,,,,,,,,,,,,,,,,,,,,,,,,,,,,,,,,,,,,,,,,,,,,,,,,,,,,,,,,,,,B_3,001,2024-11-27_13h10.14.819,untitled,2024.1.5,None,2024-11-27 13h10.26.482132 +0530,
triangle.png,stranger,1,M,,,,,,,,,21,1,85,1,,,,,,,,,302.03525259997696,,,,,,,,,,,,,,,,,,,,,,,,,,,,,,,,,,302.0191176000517,302.03525259997696,302.5188236000249,302.5188236000249,302.5188236000249,302.5188236000249,302.53535899997223,302.8190857999725,302.8190857999725,302.8190857999725,,302.81979310000315,z,302.82021100004204,302.83550399995875,303.8359706000192,303.82002159999683,0.2947479001013562,None,,,,,,,,,,,,,,,,,,,,,,,,,,,,,,,,,,,,,,,,,,,,,,,,,,,,,,,,,,,,,,,,,,,,,,,,,,,,,,,,,,,B_3,001,2024-11-27_13h10.14.819,untitled,2024.1.5,None,2024-11-27 13h10.26.482132 +0530,
triangle.png,you,0,Z,,,,,,,,,21,2,86,3,,,,,,,,,303.8359706000192,,,,,,,,,,,,,,,,,,,,,,,,,,,,,,,,,,303.82037289999425,303.8359706000192,304.32004330004565,304.32004330004565,304.32004330004565,304.32004330004565,304.3365849000402,,,,,304.5542581999907,m,304.5546861999901,304.5698455000529,305.57023940002546,305.5543843000196,0.23300199990626425,None,,,,,,,,,,,,,,,,,,,,,,,,,,,,,,,,,,,,,,,,,,,,,,,,,,,,,,,,,,,,,,,,,,,,,,,,,,,,,,,,,,,B_3,001,2024-11-27_13h10.14.819,untitled,2024.1.5,None,2024-11-27 13h10.26.482132 +0530,
square.png,you,1,M,,,,,,,,,21,3,87,0,,,,,,,,,305.57023940002546,,,,,,,,,,,,,,,,,,,,,,,,,,,,,,,,,,305.5547388000414,305.57023940002546,306.0540810000384,306.0540810000384,306.0540810000384,306.0540810000384,306.07065829995554,306.35417129995767,306.35417129995767,306.35417129995767,307.154346199939,307.1381727999542,None,307.1383643000154,307.154346199939,308.15507320000324,308.1387511000503,,,,,,,,,,,,,,,,,,,,,,,,,,,,,,,,,,,,,,,,,,,,,,,,,,,,,,,,,,,,,,,,,,,,,,,,,,,,,,,,,,,,,B_3,001,2024-11-27_13h10.14.819,untitled,2024.1.5,None,2024-11-27 13h10.26.482132 +0530,
triangle.png,you,0,Z,,,,,,,,,22,0,88,3,,,,,,,,,308.15507320000324,,,,,,,,,,,,,,,,,,,,,,,,,,,,,,,,,,308.13910459994804,308.15507320000324,308.65520080004353,308.65520080004353,308.65520080004353,308.65520080004353,308.65520080004353,308.95549640001263,308.95549640001263,308.95549640001263,309.75569989997894,309.7396228000289,None,309.73981359996833,309.75569989997894,310.75645590003114,310.73990749998484,,,,,,,,,,,,,,,,,,,,,,,,,,,,,,,,,,,,,,,,,,,,,,,,,,,,,,,,,,,,,,,,,,,,,,,,,,,,,,,,,,,,,B_3,001,2024-11-27_13h10.14.819,untitled,2024.1.5,None,2024-11-27 13h10.26.482132 +0530,
triangle.png,stranger,1,M,,,,,,,,,22,1,89,1,,,,,,,,,310.75645590003114,,,,,,,,,,,,,,,,,,,,,,,,,,,,,,,,,,310.74025929998606,310.75645590003114,311.256702600047,311.256702600047,311.256702600047,311.256702600047,311.256702600047,311.55676149996,311.55676149996,311.55676149996,312.35725570004433,312.34060640004463,None,312.34080200002063,312.35725570004433,313.3575927000493,313.3412328000413,,,,,,,,,,,,,,,,,,,,,,,,,,,,,,,,,,,,,,,,,,,,,,,,,,,,,,,,,,,,,,,,,,,,,,,,,,,,,,,,,,,,,B_3,001,2024-11-27_13h10.14.819,untitled,2024.1.5,None,2024-11-27 13h10.26.482132 +0530,
square.png,you,1,M,,,,,,,,,22,2,90,0,,,,,,,,,313.3575927000493,,,,,,,,,,,,,,,,,,,,,,,,,,,,,,,,,,313.3415845000418,313.3575927000493,313.8579751000507,313.8579751000507,313.8579751000507,313.8579751000507,313.8579751000507,314.1580457999371,314.1580457999371,314.1580457999371,,314.2253397000022,m,314.2257655999856,314.2413246999495,315.2421176000498,315.2257563000312,0.36376869992818683,None,,,,,,,,,,,,,,,,,,,,,,,,,,,,,,,,,,,,,,,,,,,,,,,,,,,,,,,,,,,,,,,,,,,,,,,,,,,,,,,,,,,B_3,001,2024-11-27_13h10.14.819,untitled,2024.1.5,None,2024-11-27 13h10.26.482132 +0530,
square.png,stranger,0,Z,,,,,,,,,22,3,91,2,,,,,,,,,315.2421176000498,,,,,,,,,,,,,,,,,,,,,,,,,,,,,,,,,,315.22611759998836,315.2421176000498,315.72580070002005,315.72580070002005,315.72580070002005,315.72580070002005,315.74211600003764,316.02570380002726,316.02570380002726,316.02570380002726,,316.27653379994445,m,316.27695630001836,316.2926352999639,317.2929376999382,317.2768051000312,0.5394001000095159,None,,,,,,,,,,,,,,,,,,,,,,,,,,,,,,,,,,,,,,,,,,,,,,,,,,,,,,,,,,,,,,,,,,,,,,,,,,,,,,,,,,,B_3,001,2024-11-27_13h10.14.819,untitled,2024.1.5,None,2024-11-27 13h10.26.482132 +0530,
triangle.png,stranger,1,M,,,,,,,,,23,0,92,1,,,,,,,,,317.2929376999382,,,,,,,,,,,,,,,,,,,,,,,,,,,,,,,,,,317.27716019994114,317.2929376999382,317.776748699951,317.776748699951,317.776748699951,317.776748699951,317.79344409995247,318.07682610000484,318.07682610000484,318.07682610000484,,318.2944860999705,z,318.2949104999425,318.31016560003627,319.3106177999871,319.29463739995845,0.503479800070636,None,,,,,,,,,,,,,,,,,,,,,,,,,,,,,,,,,,,,,,,,,,,,,,,,,,,,,,,,,,,,,,,,,,,,,,,,,,,,,,,,,,,B_3,001,2024-11-27_13h10.14.819,untitled,2024.1.5,None,2024-11-27 13h10.26.482132 +0530,
triangle.png,you,0,Z,,,,,,,,,23,1,93,3,,,,,,,,,319.3106177999871,,,,,,,,,,,,,,,,,,,,,,,,,,,,,,,,,,319.2949909999734,319.3106177999871,319.7945311999647,319.7945311999647,319.7945311999647,319.7945311999647,319.8111537999939,320.09453280002344,320.09453280002344,320.09453280002344,320.89490389998537,320.8785895999754,None,320.8787838999415,320.89490389998537,321.8955848000478,321.8790525000077,,,,,,,,,,,,,,,,,,,,,,,,,,,,,,,,,,,,,,,,,,,,,,,,,,,,,,,,,,,,,,,,,,,,,,,,,,,,,,,,,,,,,B_3,001,2024-11-27_13h10.14.819,untitled,2024.1.5,None,2024-11-27 13h10.26.482132 +0530,
square.png,stranger,0,Z,,,,,,,,,23,2,94,2,,,,,,,,,321.8955848000478,,,,,,,,,,,,,,,,,,,,,,,,,,,,,,,,,,321.87940500001423,321.8955848000478,322.39587500004563,322.39587500004563,322.39587500004563,322.39587500004563,322.39587500004563,322.6958980000345,322.6958980000345,322.6958980000345,,322.9134879000485,m,322.91390919999685,322.92910860001575,323.9296993999742,323.9136031999951,0.5166489001130685,None,,,,,,,,,,,,,,,,,,,,,,,,,,,,,,,,,,,,,,,,,,,,,,,,,,,,,,,,,,,,,,,,,,,,,,,,,,,,,,,,,,,B_3,001,2024-11-27_13h10.14.819,untitled,2024.1.5,None,2024-11-27 13h10.26.482132 +0530,
square.png,you,1,M,,,,,,,,,23,3,95,0,,,,,,,,,323.9296993999742,,,,,,,,,,,,,,,,,,,,,,,,,,,,,,,,,,323.91395710001234,323.9296993999742,324.4137385999784,324.4137385999784,324.4137385999784,324.4137385999784,324.42993520002346,324.71334709995426,324.71334709995426,324.71334709995426,,324.9812139000278,m,324.9816408000188,324.99684519995935,325.99740999995265,325.9812792999437,0.5630141999572515,None,,,,,,,,,,,,,,,,,,,,,,,,,,,,,,,,,,,,,,,,,,,,,,,,,,,,,,,,,,,,,,,,,,,,,,,,,,,,,,,,,,,B_3,001,2024-11-27_13h10.14.819,untitled,2024.1.5,None,2024-11-27 13h10.26.482132 +0530,
square.png,stranger,0,Z,,,,,,,,,24,0,96,2,,,,,,,,,325.99740999995265,,,,,,,,,,,,,,,,,,,,,,,,,,,,,,,,,,325.98163489997387,325.99740999995265,326.4813263999531,326.4813263999531,326.4813263999531,326.4813263999531,326.49792490003165,326.7810739999404,326.7810739999404,326.7810739999404,,327.0487672999734,m,327.049195199972,327.06460559996776,328.06520610000007,328.04885879997164,0.5512830000370741,None,,,,,,,,,,,,,,,,,,,,,,,,,,,,,,,,,,,,,,,,,,,,,,,,,,,,,,,,,,,,,,,,,,,,,,,,,,,,,,,,,,,B_3,001,2024-11-27_13h10.14.819,untitled,2024.1.5,None,2024-11-27 13h10.26.482132 +0530,
triangle.png,stranger,1,M,,,,,,,,,24,1,97,1,,,,,,,,,328.06520610000007,,,,,,,,,,,,,,,,,,,,,,,,,,,,,,,,,,328.0492213999387,328.06520610000007,328.54878039995674,328.54878039995674,328.54878039995674,328.54878039995674,328.56556939997245,328.84888509998564,328.84888509998564,328.84888509998564,,328.9499262999743,z,328.9503473000368,328.9655810999684,329.9663642999949,329.94977489998564,0.3995872000232339,None,,,,,,,,,,,,,,,,,,,,,,,,,,,,,,,,,,,,,,,,,,,,,,,,,,,,,,,,,,,,,,,,,,,,,,,,,,,,,,,,,,,B_3,001,2024-11-27_13h10.14.819,untitled,2024.1.5,None,2024-11-27 13h10.26.482132 +0530,
square.png,you,1,M,,,,,,,,,24,2,98,0,,,,,,,,,329.9663642999949,,,,,,,,,,,,,,,,,,,,,,,,,,,,,,,,,,329.950130000012,329.9663642999949,330.45004030002747,330.45004030002747,330.45004030002747,330.45004030002747,330.4666218999773,330.74982030002866,330.74982030002866,330.74982030002866,,330.98418469994795,m,330.984611999942,330.9999799999641,332.00075230002403,331.98439839994535,0.5276090999832377,None,,,,,,,,,,,,,,,,,,,,,,,,,,,,,,,,,,,,,,,,,,,,,,,,,,,,,,,,,,,,,,,,,,,,,,,,,,,,,,,,,,,B_3,001,2024-11-27_13h10.14.819,untitled,2024.1.5,None,2024-11-27 13h10.26.482132 +0530,
triangle.png,you,0,Z,,,,,,,,,24,3,99,3,,,,,,,,,332.00075230002403,,,,,,,,,,,,,,,,,,,,,,,,,,,,,,,,,,331.984753799974,332.00075230002403,332.4844413000392,332.4844413000392,332.4844413000392,332.4844413000392,332.50069559994154,332.7842033000197,332.7842033000197,332.7842033000197,,332.90168669994455,z,332.9021130000474,332.91775709996,333.91826379997656,333.9021605999442,0.4091393999988213,None,,,,,,,,,,,,,,,,,,,,,,,,,,,,,,,,,,,,,,,,,,,,,,,,,,,,,,,,,,,,,,,,,,,,,,,,,,,,,,,,,,,B_3,001,2024-11-27_13h10.14.819,untitled,2024.1.5,None,2024-11-27 13h10.26.482132 +0530,
triangle.png,stranger,1,M,,,,,,,,,25,0,100,1,,,,,,,,,333.91826379997656,,,,,,,,,,,,,,,,,,,,,,,,,,,,,,,,,,333.9025136999553,333.91826379997656,334.4018982000416,334.4018982000416,334.4018982000416,334.4018982000416,334.4186573999468,334.7018797999481,334.7018797999481,334.7018797999481,,334.86955159995705,z,334.86998139997013,334.8854374999646,335.8856624000473,335.8694834000198,0.4636623999103904,None,,,,,,,,,,,,,,,,,,,,,,,,,,,,,,,,,,,,,,,,,,,,,,,,,,,,,,,,,,,,,,,,,,,,,,,,,,,,,,,,,,,B_3,001,2024-11-27_13h10.14.819,untitled,2024.1.5,None,2024-11-27 13h10.26.482132 +0530,
square.png,you,1,M,,,,,,,,,25,1,101,0,,,,,,,,,335.8856624000473,,,,,,,,,,,,,,,,,,,,,,,,,,,,,,,,,,335.86983959993813,335.8856624000473,336.369540899992,336.369540899992,336.369540899992,336.369540899992,336.38615120004397,336.6696751000127,336.6696751000127,336.6696751000127,,336.820524699986,m,336.82094809995033,336.8364249999868,337.8370003999444,337.8204519000137,0.43449080002028495,None,,,,,,,,,,,,,,,,,,,,,,,,,,,,,,,,,,,,,,,,,,,,,,,,,,,,,,,,,,,,,,,,,,,,,,,,,,,,,,,,,,,B_3,001,2024-11-27_13h10.14.819,untitled,2024.1.5,None,2024-11-27 13h10.26.482132 +0530,
square.png,stranger,0,Z,,,,,,,,,25,2,102,2,,,,,,,,,337.8370003999444,,,,,,,,,,,,,,,,,,,,,,,,,,,,,,,,,,337.8208092999412,337.8370003999444,338.3206533000339,338.3206533000339,338.3206533000339,338.3206533000339,338.33737820002716,338.620519899996,338.620519899996,338.620519899996,,339.038117100019,z,339.0385574999964,339.0541048999876,340.0546298000263,340.03836540004704,0.708757899934426,None,,,,,,,,,,,,,,,,,,,,,,,,,,,,,,,,,,,,,,,,,,,,,,,,,,,,,,,,,,,,,,,,,,,,,,,,,,,,,,,,,,,B_3,001,2024-11-27_13h10.14.819,untitled,2024.1.5,None,2024-11-27 13h10.26.482132 +0530,
triangle.png,you,0,Z,,,,,,,,,25,3,103,3,,,,,,,,,340.0546298000263,,,,,,,,,,,,,,,,,,,,,,,,,,,,,,,,,,340.03871899994556,340.0546298000263,340.5384195999941,340.5384195999941,340.5384195999941,340.5384195999941,340.55506479996257,340.8383895000443,340.8383895000443,340.8383895000443,,340.9894024999812,m,340.9898312999867,341.0053938999772,342.0057034000056,341.98939699993934,0.44237489998340607,None,,,,,,,,,,,,,,,,,,,,,,,,,,,,,,,,,,,,,,,,,,,,,,,,,,,,,,,,,,,,,,,,,,,,,,,,,,,,,,,,,,,B_3,001,2024-11-27_13h10.14.819,untitled,2024.1.5,None,2024-11-27 13h10.26.482132 +0530,
triangle.png,stranger,1,M,,,,,,,,,26,0,104,1,,,,,,,,,342.0057034000056,,,,,,,,,,,,,,,,,,,,,,,,,,,,,,,,,,341.98975199996494,342.0057034000056,342.4895637000445,342.4895637000445,342.4895637000445,342.4895637000445,342.50613090000115,342.7894204000477,342.7894204000477,342.7894204000477,,343.0735138000455,z,343.07400899997447,343.08955329994205,344.0900418999372,344.073957500048,0.5796326999552548,None,,,,,,,,,,,,,,,,,,,,,,,,,,,,,,,,,,,,,,,,,,,,,,,,,,,,,,,,,,,,,,,,,,,,,,,,,,,,,,,,,,,B_3,001,2024-11-27_13h10.14.819,untitled,2024.1.5,None,2024-11-27 13h10.26.482132 +0530,
square.png,stranger,0,Z,,,,,,,,,26,1,105,2,,,,,,,,,344.0900418999372,,,,,,,,,,,,,,,,,,,,,,,,,,,,,,,,,,344.0743130999617,344.0900418999372,344.5740889000008,344.5740889000008,344.5740889000008,344.5740889000008,344.5903541999869,344.8739984999411,344.8739984999411,344.8739984999411,345.67407299997285,345.6579399999464,None,345.65814039995894,345.67407299997285,346.6747357000131,346.65854370000307,,,,,,,,,,,,,,,,,,,,,,,,,,,,,,,,,,,,,,,,,,,,,,,,,,,,,,,,,,,,,,,,,,,,,,,,,,,,,,,,,,,,,B_3,001,2024-11-27_13h10.14.819,untitled,2024.1.5,None,2024-11-27 13h10.26.482132 +0530,
triangle.png,you,0,Z,,,,,,,,,26,2,106,3,,,,,,,,,346.6747357000131,,,,,,,,,,,,,,,,,,,,,,,,,,,,,,,,,,346.6589012000477,346.6747357000131,347.17541989998426,347.17541989998426,347.17541989998426,347.17541989998426,347.17541989998426,347.4749841999728,347.4749841999728,347.4749841999728,,347.8093031999888,m,347.80973440001253,347.82548380002845,348.82599120005034,348.809626000002,0.6183684000279754,None,,,,,,,,,,,,,,,,,,,,,,,,,,,,,,,,,,,,,,,,,,,,,,,,,,,,,,,,,,,,,,,,,,,,,,,,,,,,,,,,,,,B_3,001,2024-11-27_13h10.14.819,untitled,2024.1.5,None,2024-11-27 13h10.26.482132 +0530,
square.png,you,1,M,,,,,,,,,26,3,107,0,,,,,,,,,348.82599120005034,,,,,,,,,,,,,,,,,,,,,,,,,,,,,,,,,,348.8099782000063,348.82599120005034,349.30950560001656,349.30950560001656,349.30950560001656,349.30950560001656,349.3261301999446,349.6095491000451,349.6095491000451,349.6095491000451,,349.67699319997337,z,349.67742590000853,349.69299450004473,350.6934054000303,350.6771367000183,0.3561350000090897,None,,,,,,,,,,,,,,,,,,,,,,,,,,,,,,,,,,,,,,,,,,,,,,,,,,,,,,,,,,,,,,,,,,,,,,,,,,,,,,,,,,,B_3,001,2024-11-27_13h10.14.819,untitled,2024.1.5,None,2024-11-27 13h10.26.482132 +0530,
triangle.png,stranger,1,M,,,,,,,,,27,0,108,1,,,,,,,,,350.6934054000303,,,,,,,,,,,,,,,,,,,,,,,,,,,,,,,,,,350.6774881000165,350.6934054000303,351.17720100004226,351.17720100004226,351.17720100004226,351.17720100004226,351.1938218999421,351.47723690001294,351.47723690001294,351.47723690001294,352.2775186999934,352.2614722000435,None,352.26166509999894,352.2775186999934,353.27811279997695,353.26187489996664,,,,,,,,,,,,,,,,,,,,,,,,,,,,,,,,,,,,,,,,,,,,,,,,,,,,,,,,,,,,,,,,,,,,,,,,,,,,,,,,,,,,,B_3,001,2024-11-27_13h10.14.819,untitled,2024.1.5,None,2024-11-27 13h10.26.482132 +0530,
triangle.png,you,0,Z,,,,,,,,,27,1,109,3,,,,,,,,,353.27811279997695,,,,,,,,,,,,,,,,,,,,,,,,,,,,,,,,,,353.2622372000478,353.27811279997695,353.7785652000457,353.7785652000457,353.7785652000457,353.7785652000457,353.7785652000457,354.0784202000359,354.0784202000359,354.0784202000359,354.8789945000317,354.86282259994186,None,354.8630153000122,354.8789945000317,355.87937260000035,355.8632737000007,,,,,,,,,,,,,,,,,,,,,,,,,,,,,,,,,,,,,,,,,,,,,,,,,,,,,,,,,,,,,,,,,,,,,,,,,,,,,,,,,,,,,B_3,001,2024-11-27_13h10.14.819,untitled,2024.1.5,None,2024-11-27 13h10.26.482132 +0530,
square.png,you,1,M,,,,,,,,,27,2,110,0,,,,,,,,,355.87937260000035,,,,,,,,,,,,,,,,,,,,,,,,,,,,,,,,,,355.86362369998824,355.87937260000035,356.37988639995456,356.37988639995456,356.37988639995456,356.37988639995456,356.37988639995456,356.67996580002364,356.67996580002364,356.67996580002364,,356.8140540999593,m,356.81447810004465,356.8300414000405,357.83059519995004,357.81436890002806,0.41698490001726896,None,,,,,,,,,,,,,,,,,,,,,,,,,,,,,,,,,,,,,,,,,,,,,,,,,,,,,,,,,,,,,,,,,,,,,,,,,,,,,,,,,,,B_3,001,2024-11-27_13h10.14.819,untitled,2024.1.5,None,2024-11-27 13h10.26.482132 +0530,
square.png,stranger,0,Z,,,,,,,,,27,3,111,2,,,,,,,,,357.83059519995004,,,,,,,,,,,,,,,,,,,,,,,,,,,,,,,,,,357.81472360005137,357.83059519995004,358.3142046999419,358.3142046999419,358.3142046999419,358.3142046999419,358.3309003999457,358.61402029998135,358.61402029998135,358.61402029998135,,358.6484540000092,z,358.64887509995606,358.6641567000188,359.66480409994256,359.6488699000329,0.3258534000487998,None,,,,,,,,,,,,,,,,,,,,,,,,,,,,,,,,,,,,,,,,,,,,,,,,,,,,,,,,,,,,,,,,,,,,,,,,,,,,,,,,,,,B_3,001,2024-11-27_13h10.14.819,untitled,2024.1.5,None,2024-11-27 13h10.26.482132 +0530,
triangle.png,stranger,1,M,,,,,,,,,28,0,112,1,,,,,,,,,359.66480409994256,,,,,,,,,,,,,,,,,,,,,,,,,,,,,,,,,,359.6492238000501,359.66480409994256,360.1484598000534,360.1484598000534,360.1484598000534,360.1484598000534,360.16517950000707,360.44855530001223,360.44855530001223,360.44855530001223,,360.64945130003616,z,360.6498733999906,360.66517030005343,361.6658405000344,361.6493588000303,0.49159200000576675,None,,,,,,,,,,,,,,,,,,,,,,,,,,,,,,,,,,,,,,,,,,,,,,,,,,,,,,,,,,,,,,,,,,,,,,,,,,,,,,,,,,,B_3,001,2024-11-27_13h10.14.819,untitled,2024.1.5,None,2024-11-27 13h10.26.482132 +0530,
triangle.png,you,0,Z,,,,,,,,,28,1,113,3,,,,,,,,,361.6658405000344,,,,,,,,,,,,,,,,,,,,,,,,,,,,,,,,,,361.64972300000954,361.6658405000344,362.1497499999823,362.1497499999823,362.1497499999823,362.1497499999823,362.1660007999744,362.44949000002816,362.44949000002816,362.44949000002816,,363.1339562999783,z,363.1343877000036,363.14979779999703,364.15043829998467,364.13415719999466,0.9744628999615088,None,,,,,,,,,,,,,,,,,,,,,,,,,,,,,,,,,,,,,,,,,,,,,,,,,,,,,,,,,,,,,,,,,,,,,,,,,,,,,,,,,,,B_3,001,2024-11-27_13h10.14.819,untitled,2024.1.5,None,2024-11-27 13h10.26.482132 +0530,
square.png,stranger,0,Z,,,,,,,,,28,2,114,2,,,,,,,,,364.15043829998467,,,,,,,,,,,,,,,,,,,,,,,,,,,,,,,,,,364.1345128000248,364.15043829998467,364.63424649997614,364.63424649997614,364.63424649997614,364.63424649997614,364.6508869000245,364.9340002000099,364.9340002000099,364.9340002000099,,365.08499640005175,m,365.08542230003513,365.1007705000229,366.10145600000396,366.0851058999542,0.43451330007519573,None,,,,,,,,,,,,,,,,,,,,,,,,,,,,,,,,,,,,,,,,,,,,,,,,,,,,,,,,,,,,,,,,,,,,,,,,,,,,,,,,,,,B_3,001,2024-11-27_13h10.14.819,untitled,2024.1.5,None,2024-11-27 13h10.26.482132 +0530,
square.png,you,1,M,,,,,,,,,28,3,115,0,,,,,,,,,366.10145600000396,,,,,,,,,,,,,,,,,,,,,,,,,,,,,,,,,,366.08546229999047,366.10145600000396,366.58504190004896,366.58504190004896,366.58504190004896,366.58504190004896,366.6016164999455,366.8848441999871,366.8848441999871,366.8848441999871,,367.0859832999995,z,367.0864080999745,367.10176420002244,368.1023439000128,368.08626000001095,0.49226810003165156,None,,,,,,,,,,,,,,,,,,,,,,,,,,,,,,,,,,,,,,,,,,,,,,,,,,,,,,,,,,,,,,,,,,,,,,,,,,,,,,,,,,,B_3,001,2024-11-27_13h10.14.819,untitled,2024.1.5,None,2024-11-27 13h10.26.482132 +0530,
triangle.png,you,0,Z,,,,,,,,,29,0,116,3,,,,,,,,,368.1023439000128,,,,,,,,,,,,,,,,,,,,,,,,,,,,,,,,,,368.0866130000213,368.1023439000128,368.5863033999922,368.5863033999922,368.5863033999922,368.5863033999922,368.6027154000476,368.88600499997847,368.88600499997847,368.88600499997847,,369.003441000008,m,369.0038688000059,369.01966640003957,370.02000949997455,370.0037258999655,0.4146752000087872,None,,,,,,,,,,,,,,,,,,,,,,,,,,,,,,,,,,,,,,,,,,,,,,,,,,,,,,,,,,,,,,,,,,,,,,,,,,,,,,,,,,,B_3,001,2024-11-27_13h10.14.819,untitled,2024.1.5,None,2024-11-27 13h10.26.482132 +0530,
square.png,stranger,0,Z,,,,,,,,,29,1,117,2,,,,,,,,,370.02000949997455,,,,,,,,,,,,,,,,,,,,,,,,,,,,,,,,,,370.00410449993797,370.02000949997455,370.504007200012,370.504007200012,370.504007200012,370.504007200012,370.5203440999612,370.80390209995676,370.80390209995676,370.80390209995676,,370.8046551999869,z,370.80507979996037,370.82063059997745,371.8212317000143,371.8049291999778,0.28920310002285987,None,,,,,,,,,,,,,,,,,,,,,,,,,,,,,,,,,,,,,,,,,,,,,,,,,,,,,,,,,,,,,,,,,,,,,,,,,,,,,,,,,,,B_3,001,2024-11-27_13h10.14.819,untitled,2024.1.5,None,2024-11-27 13h10.26.482132 +0530,
triangle.png,stranger,1,M,,,,,,,,,29,2,118,1,,,,,,,,,371.8212317000143,,,,,,,,,,,,,,,,,,,,,,,,,,,,,,,,,,371.80528189998586,371.8212317000143,372.3047764999792,372.3047764999792,372.3047764999792,372.3047764999792,372.3213139999425,372.60466109996196,372.60466109996196,372.60466109996196,,372.72211900004186,m,372.72254180000164,372.7382102999836,373.7387684000423,373.72230090002995,0.4159250999800861,None,,,,,,,,,,,,,,,,,,,,,,,,,,,,,,,,,,,,,,,,,,,,,,,,,,,,,,,,,,,,,,,,,,,,,,,,,,,,,,,,,,,B_3,001,2024-11-27_13h10.14.819,untitled,2024.1.5,None,2024-11-27 13h10.26.482132 +0530,
square.png,you,1,M,,,,,,,,,29,3,119,0,,,,,,,,,373.7387684000423,,,,,,,,,,,,,,,,,,,,,,,,,,,,,,,,,,373.72265120001975,373.7387684000423,374.2225501999492,374.2225501999492,374.2225501999492,374.2225501999492,374.2388803999638,374.522311000037,374.522311000037,374.522311000037,,374.5899310000241,z,374.59035379998386,374.6056959000416,375.6063063000329,375.5900305999676,0.3547577999997884,None,,,,,,,,,,,,,,,,,,,,,,,,,,,,,,,,,,,,,,,,,,,,,,,,,,,,,,,,,,,,,,,,,,,,,,,,,,,,,,,,,,,B_3,001,2024-11-27_13h10.14.819,untitled,2024.1.5,None,2024-11-27 13h10.26.482132 +0530,
triangle.png,stranger,1,M,,,,,,,,,30,0,120,1,,,,,,,,,375.6063063000329,,,,,,,,,,,,,,,,,,,,,,,,,,,,,,,,,,375.5903838999802,375.6063063000329,376.09010569995735,376.09010569995735,376.09010569995735,376.09010569995735,376.1064220999833,376.3900829999475,376.3900829999475,376.3900829999475,,376.5408099000342,m,376.5412409999408,376.5569608999649,377.55735040002037,377.54121809999924,0.4460147999925539,None,,,,,,,,,,,,,,,,,,,,,,,,,,,,,,,,,,,,,,,,,,,,,,,,,,,,,,,,,,,,,,,,,,,,,,,,,,,,,,,,,,,B_3,001,2024-11-27_13h10.14.819,untitled,2024.1.5,None,2024-11-27 13h10.26.482132 +0530,
square.png,you,1,M,,,,,,,,,30,1,121,0,,,,,,,,,377.55735040002037,,,,,,,,,,,,,,,,,,,,,,,,,,,,,,,,,,377.5415689999936,377.55735040002037,378.0409415999893,378.0409415999893,378.0409415999893,378.0409415999893,378.0577040000353,378.341119299992,378.341119299992,378.341119299992,,378.4086205000058,z,378.4090504000196,378.4245226000203,379.4251250999514,379.40882909996435,0.3631806999910623,None,,,,,,,,,,,,,,,,,,,,,,,,,,,,,,,,,,,,,,,,,,,,,,,,,,,,,,,,,,,,,,,,,,,,,,,,,,,,,,,,,,,B_3,001,2024-11-27_13h10.14.819,untitled,2024.1.5,None,2024-11-27 13h10.26.482132 +0530,
square.png,stranger,0,Z,,,,,,,,,30,2,122,2,,,,,,,,,379.4251250999514,,,,,,,,,,,,,,,,,,,,,,,,,,,,,,,,,,379.4091836999869,379.4251250999514,379.90863039996475,379.90863039996475,379.90863039996475,379.90863039996475,379.9250794999534,380.2087564000394,380.2087564000394,380.2087564000394,,380.29283639998175,m,380.2932587999385,380.30883110000286,381.30935710004997,381.29301240004133,0.37680620001628995,None,,,,,,,,,,,,,,,,,,,,,,,,,,,,,,,,,,,,,,,,,,,,,,,,,,,,,,,,,,,,,,,,,,,,,,,,,,,,,,,,,,,B_3,001,2024-11-27_13h10.14.819,untitled,2024.1.5,None,2024-11-27 13h10.26.482132 +0530,
triangle.png,you,0,Z,,,,,,,,,30,3,123,3,,,,,,,,,381.30935710004997,,,,,,,,,,,,,,,,,,,,,,,,,,,,,,,,,,381.2933631000342,381.30935710004997,381.7929181000218,381.7929181000218,381.7929181000218,381.7929181000218,381.80947930004913,,,,,382.0271572000347,m,382.0275799999945,382.0428784999531,383.0435389999766,383.0271096000215,0.2320785999763757,None,,,,,,,,,,,,,,,,,,,,,,,,,,,,,,,,,,,,,,,,,,,,,,,,,,,,,,,,,,,,,,,,,,,,,,,,,,,,,,,,,,,B_3,001,2024-11-27_13h10.14.819,untitled,2024.1.5,None,2024-11-27 13h10.26.482132 +0530,
triangle.png,stranger,1,M,,,,,,,,,31,0,124,1,,,,,,,,,383.0435389999766,,,,,,,,,,,,,,,,,,,,,,,,,,,,,,,,,,383.0274630000349,383.0435389999766,383.52704640000593,383.52704640000593,383.52704640000593,383.52704640000593,383.5438963000197,,,,,383.74474180000834,z,383.7451685999986,383.7603344999952,384.76107490004506,384.74487419996876,0.21025420003570616,None,,,,,,,,,,,,,,,,,,,,,,,,,,,,,,,,,,,,,,,,,,,,,,,,,,,,,,,,,,,,,,,,,,,,,,,,,,,,,,,,,,,B_3,001,2024-11-27_13h10.14.819,untitled,2024.1.5,None,2024-11-27 13h10.26.482132 +0530,
triangle.png,you,0,Z,,,,,,,,,31,1,125,3,,,,,,,,,384.76107490004506,,,,,,,,,,,,,,,,,,,,,,,,,,,,,,,,,,384.7452274999814,384.76107490004506,385.24480590003077,385.24480590003077,385.24480590003077,385.24480590003077,385.26150849997066,385.544746199972,385.544746199972,385.544746199972,386.3452656000154,386.3287984000053,None,386.3289906999562,386.3452656000154,387.3457849000115,387.3293945000041,,,,,,,,,,,,,,,,,,,,,,,,,,,,,,,,,,,,,,,,,,,,,,,,,,,,,,,,,,,,,,,,,,,,,,,,,,,,,,,,,,,,,B_3,001,2024-11-27_13h10.14.819,untitled,2024.1.5,None,2024-11-27 13h10.26.482132 +0530,
square.png,you,1,M,,,,,,,,,31,2,126,0,,,,,,,,,387.3457849000115,,,,,,,,,,,,,,,,,,,,,,,,,,,,,,,,,,387.3297429999802,387.3457849000115,387.84596980002243,387.84596980002243,387.84596980002243,387.84596980002243,387.84596980002243,388.14626149996184,388.14626149996184,388.14626149996184,,388.7638993000146,m,388.7643238999881,388.7796907000011,389.78007320000324,389.7639722999884,0.9154783999547362,None,,,,,,,,,,,,,,,,,,,,,,,,,,,,,,,,,,,,,,,,,,,,,,,,,,,,,,,,,,,,,,,,,,,,,,,,,,,,,,,,,,,B_3,001,2024-11-27_13h10.14.819,untitled,2024.1.5,None,2024-11-27 13h10.26.482132 +0530,
square.png,stranger,0,Z,,,,,,,,,31,3,127,2,,,,,,,,,389.78007320000324,,,,,,,,,,,,,,,,,,,,,,,,,,,,,,,,,,389.76433869998436,389.78007320000324,390.2639456000179,390.2639456000179,390.2639456000179,390.2639456000179,390.2803843000438,390.56387810001615,390.56387810001615,390.56387810001615,,390.88161289994605,m,390.8820544000482,390.89759810001124,391.8980153000448,391.8818598999642,0.6167741999961436,None,,,,,,,,,,,,,,,,,,,,,,,,,,,,,,,,,,,,,,,,,,,,,,,,,,,,,,,,,,,,,,,,,,,,,,,,,,,,,,,,,,,B_3,001,2024-11-27_13h10.14.819,untitled,2024.1.5,None,2024-11-27 13h10.26.482132 +0530,
triangle.png,stranger,1,M,,,,,,,,,32,0,128,1,,,,,,,,,391.8980153000448,,,,,,,,,,,,,,,,,,,,,,,,,,,,,,,,,,391.8822198000271,391.8980153000448,392.38197310001124,392.38197310001124,392.38197310001124,392.38197310001124,392.3985920000123,392.6816197000444,392.6816197000444,392.6816197000444,,393.4160549000371,z,393.4164994000457,393.4320163000375,394.4325358000351,394.4163015000522,1.0221048999810591,None,,,,,,,,,,,,,,,,,,,,,,,,,,,,,,,,,,,,,,,,,,,,,,,,,,,,,,,,,,,,,,,,,,,,,,,,,,,,,,,,,,,B_3,001,2024-11-27_13h10.14.819,untitled,2024.1.5,None,2024-11-27 13h10.26.482132 +0530,
triangle.png,you,0,Z,,,,,,,,,32,1,129,3,,,,,,,,,394.4325358000351,,,,,,,,,,,,,,,,,,,,,,,,,,,,,,,,,,394.4166540999431,394.4325358000351,394.9165038999636,394.9165038999636,394.9165038999636,394.9165038999636,394.9329483000329,395.21628129994497,395.21628129994497,395.21628129994497,,395.36707839998417,m,395.3675075999927,395.38300509995315,396.38381290005054,396.3674532000441,0.44077510002534837,None,,,,,,,,,,,,,,,,,,,,,,,,,,,,,,,,,,,,,,,,,,,,,,,,,,,,,,,,,,,,,,,,,,,,,,,,,,,,,,,,,,,B_3,001,2024-11-27_13h10.14.819,untitled,2024.1.5,None,2024-11-27 13h10.26.482132 +0530,
square.png,stranger,0,Z,,,,,,,,,32,2,130,2,,,,,,,,,396.38381290005054,,,,,,,,,,,,,,,,,,,,,,,,,,,,,,,,,,396.36780370003544,396.38381290005054,396.86744790000375,396.86744790000375,396.86744790000375,396.86744790000375,396.88413759996183,397.1673625999829,397.1673625999829,397.1673625999829,,397.41836629994214,z,397.4188039000146,397.434140700032,398.43472549994476,398.41836809995584,0.541795099969022,None,,,,,,,,,,,,,,,,,,,,,,,,,,,,,,,,,,,,,,,,,,,,,,,,,,,,,,,,,,,,,,,,,,,,,,,,,,,,,,,,,,,B_3,001,2024-11-27_13h10.14.819,untitled,2024.1.5,None,2024-11-27 13h10.26.482132 +0530,
square.png,you,1,M,,,,,,,,,32,3,131,0,,,,,,,,,398.43472549994476,,,,,,,,,,,,,,,,,,,,,,,,,,,,,,,,,,398.41872459999286,398.43472549994476,398.91836110001896,398.91836110001896,398.91836110001896,398.91836110001896,398.9351174000185,399.21832660003565,399.21832660003565,399.21832660003565,,399.6861133000348,m,399.6865394000197,399.70210939995013,400.7024999000132,400.6862322000088,0.7584581999108195,None,,,,,,,,,,,,,,,,,,,,,,,,,,,,,,,,,,,,,,,,,,,,,,,,,,,,,,,,,,,,,,,,,,,,,,,,,,,,,,,,,,,B_3,001,2024-11-27_13h10.14.819,untitled,2024.1.5,None,2024-11-27 13h10.26.482132 +0530,
triangle.png,stranger,1,M,,,,,,,,,33,0,132,1,,,,,,,,,400.7024999000132,,,,,,,,,,,,,,,,,,,,,,,,,,,,,,,,,,400.68658710003365,400.7024999000132,401.18635760003235,401.18635760003235,401.18635760003235,401.18635760003235,401.20272459997796,401.48612799996044,401.48612799996044,401.48612799996044,,401.9537990000099,z,401.95422389998566,401.9696971999947,402.9704406999517,402.954099399969,0.7617011999245733,None,,,,,,,,,,,,,,,,,,,,,,,,,,,,,,,,,,,,,,,,,,,,,,,,,,,,,,,,,,,,,,,,,,,,,,,,,,,,,,,,,,,B_3,001,2024-11-27_13h10.14.819,untitled,2024.1.5,None,2024-11-27 13h10.26.482132 +0530,
square.png,you,1,M,,,,,,,,,33,1,133,0,,,,,,,,,402.9704406999517,,,,,,,,,,,,,,,,,,,,,,,,,,,,,,,,,,402.95445369998924,402.9704406999517,403.4541446999647,403.4541446999647,403.4541446999647,403.4541446999647,403.4704977000365,403.75410999997985,403.75410999997985,403.75410999997985,,404.3216389999725,m,404.322068199981,404.3378429999575,405.33827189996373,405.3221861999482,0.8594632999738678,None,,,,,,,,,,,,,,,,,,,,,,,,,,,,,,,,,,,,,,,,,,,,,,,,,,,,,,,,,,,,,,,,,,,,,,,,,,,,,,,,,,,B_3,001,2024-11-27_13h10.14.819,untitled,2024.1.5,None,2024-11-27 13h10.26.482132 +0530,
triangle.png,you,0,Z,,,,,,,,,33,2,134,3,,,,,,,,,405.33827189996373,,,,,,,,,,,,,,,,,,,,,,,,,,,,,,,,,,405.3225380999502,405.33827189996373,405.82210640003905,405.82210640003905,405.82210640003905,405.82210640003905,405.83861600002274,406.12185190001037,406.12185190001037,406.12185190001037,406.92260059993714,406.90609069995116,None,406.906274799956,406.92260059993714,407.92296769993845,407.9067777999444,,,,,,,,,,,,,,,,,,,,,,,,,,,,,,,,,,,,,,,,,,,,,,,,,,,,,,,,,,,,,,,,,,,,,,,,,,,,,,,,,,,,,B_3,001,2024-11-27_13h10.14.819,untitled,2024.1.5,None,2024-11-27 13h10.26.482132 +0530,
square.png,stranger,0,Z,,,,,,,,,33,3,135,2,,,,,,,,,407.92296769993845,,,,,,,,,,,,,,,,,,,,,,,,,,,,,,,,,,407.9071317999624,407.92296769993845,408.4232035999885,408.4232035999885,408.4232035999885,408.4232035999885,408.4232035999885,408.72325449995697,408.72325449995697,408.72325449995697,,409.1575640999945,z,409.157993300003,409.1735154000344,410.1741238000104,410.15767129999585,0.7178362000267953,None,,,,,,,,,,,,,,,,,,,,,,,,,,,,,,,,,,,,,,,,,,,,,,,,,,,,,,,,,,,,,,,,,,,,,,,,,,,,,,,,,,,B_3,001,2024-11-27_13h10.14.819,untitled,2024.1.5,None,2024-11-27 13h10.26.482132 +0530,
square.png,stranger,0,Z,,,,,,,,,34,0,136,2,,,,,,,,,410.1741238000104,,,,,,,,,,,,,,,,,,,,,,,,,,,,,,,,,,410.1580211999826,410.1741238000104,410.6579014000017,410.6579014000017,410.6579014000017,410.6579014000017,410.6744755000109,410.9577485000482,410.9577485000482,410.9577485000482,,411.3421422999818,z,411.3425652999431,411.357871199958,412.3585183999967,412.3421656000428,0.6830376000143588,None,,,,,,,,,,,,,,,,,,,,,,,,,,,,,,,,,,,,,,,,,,,,,,,,,,,,,,,,,,,,,,,,,,,,,,,,,,,,,,,,,,,B_3,001,2024-11-27_13h10.14.819,untitled,2024.1.5,None,2024-11-27 13h10.26.482132 +0530,
triangle.png,you,0,Z,,,,,,,,,34,1,137,3,,,,,,,,,412.3585183999967,,,,,,,,,,,,,,,,,,,,,,,,,,,,,,,,,,412.34251879993826,412.3585183999967,412.8422253000317,412.8422253000317,412.8422253000317,412.8422253000317,412.85874199995305,413.142095600022,413.142095600022,413.142095600022,,413.4931460999651,z,413.49359870003536,413.5091031000484,414.50963380001485,414.49329749995377,0.642695099930279,None,,,,,,,,,,,,,,,,,,,,,,,,,,,,,,,,,,,,,,,,,,,,,,,,,,,,,,,,,,,,,,,,,,,,,,,,,,,,,,,,,,,B_3,001,2024-11-27_13h10.14.819,untitled,2024.1.5,None,2024-11-27 13h10.26.482132 +0530,
square.png,you,1,M,,,,,,,,,34,2,138,0,,,,,,,,,414.50963380001485,,,,,,,,,,,,,,,,,,,,,,,,,,,,,,,,,,414.4936523999786,414.50963380001485,414.9932030000491,414.9932030000491,414.9932030000491,414.9932030000491,415.00986280001234,415.29321080003865,415.29321080003865,415.29321080003865,,415.5776310999645,m,415.5780558999395,415.5936437000055,416.5939929999877,416.5779200999532,0.5788103999802843,None,,,,,,,,,,,,,,,,,,,,,,,,,,,,,,,,,,,,,,,,,,,,,,,,,,,,,,,,,,,,,,,,,,,,,,,,,,,,,,,,,,,B_3,001,2024-11-27_13h10.14.819,untitled,2024.1.5,None,2024-11-27 13h10.26.482132 +0530,
triangle.png,stranger,1,M,,,,,,,,,34,3,139,1,,,,,,,,,416.5939929999877,,,,,,,,,,,,,,,,,,,,,,,,,,,,,,,,,,416.57827179995365,416.5939929999877,417.0776270000497,417.0776270000497,417.0776270000497,417.0776270000497,417.094362600008,417.3779050000012,417.3779050000012,417.3779050000012,,417.57870179996826,z,417.57912769995164,417.594711999991,418.5949756000191,418.5787992000114,0.49055730004329234,None,,,,,,,,,,,,,,,,,,,,,,,,,,,,,,,,,,,,,,,,,,,,,,,,,,,,,,,,,,,,,,,,,,,,,,,,,,,,,,,,,,,B_3,001,2024-11-27_13h10.14.819,untitled,2024.1.5,None,2024-11-27 13h10.26.482132 +0530,
triangle.png,you,0,Z,,,,,,,,,35,0,140,3,,,,,,,,,418.5949756000191,,,,,,,,,,,,,,,,,,,,,,,,,,,,,,,,,,418.57915659993887,418.5949756000191,419.07866360002663,419.07866360002663,419.07866360002663,419.07866360002663,419.09532469999976,419.3787347000325,419.3787347000325,419.3787347000325,,419.49617749999743,m,419.4966015999671,419.5121804999653,420.5126969999401,420.4965842999518,0.4108305999543518,None,,,,,,,,,,,,,,,,,,,,,,,,,,,,,,,,,,,,,,,,,,,,,,,,,,,,,,,,,,,,,,,,,,,,,,,,,,,,,,,,,,,B_3,001,2024-11-27_13h10.14.819,untitled,2024.1.5,None,2024-11-27 13h10.26.482132 +0530,
triangle.png,stranger,1,M,,,,,,,,,35,1,141,1,,,,,,,,,420.5126969999401,,,,,,,,,,,,,,,,,,,,,,,,,,,,,,,,,,420.49694019998424,420.5126969999401,420.9962528999895,420.9962528999895,420.9962528999895,420.9962528999895,421.0131669000257,421.29650389996823,421.29650389996823,421.29650389996823,,421.6137990000425,z,421.6142306999536,421.6299920999445,422.63042920001317,422.6143159000203,0.6162999999942258,None,,,,,,,,,,,,,,,,,,,,,,,,,,,,,,,,,,,,,,,,,,,,,,,,,,,,,,,,,,,,,,,,,,,,,,,,,,,,,,,,,,,B_3,001,2024-11-27_13h10.14.819,untitled,2024.1.5,None,2024-11-27 13h10.26.482132 +0530,
square.png,you,1,M,,,,,,,,,35,2,142,0,,,,,,,,,422.63042920001317,,,,,,,,,,,,,,,,,,,,,,,,,,,,,,,,,,422.6146673000185,422.63042920001317,423.1144233000232,423.1144233000232,423.1144233000232,423.1144233000232,423.1307808000129,423.4140191000188,423.4140191000188,423.4140191000188,,423.6653081999393,m,423.6657341000391,423.68095049995463,424.6814655000344,424.6650584000163,0.5499494000105187,None,,,,,,,,,,,,,,,,,,,,,,,,,,,,,,,,,,,,,,,,,,,,,,,,,,,,,,,,,,,,,,,,,,,,,,,,,,,,,,,,,,,B_3,001,2024-11-27_13h10.14.819,untitled,2024.1.5,None,2024-11-27 13h10.26.482132 +0530,
square.png,stranger,0,Z,,,,,,,,,35,3,143,2,,,,,,,,,424.6814655000344,,,,,,,,,,,,,,,,,,,,,,,,,,,,,,,,,,424.6654212999856,424.6814655000344,425.165541299968,425.165541299968,425.165541299968,425.165541299968,425.1821147999726,425.46530749998055,425.46530749998055,425.46530749998055,,425.9830088999588,z,425.9834354999475,425.998722899938,426.9995086999843,426.98306719993707,0.8081083999713883,None,,,,,,,,,,,,,,,,,,,,,,,,,,,,,,,,,,,,,,,,,,,,,,,,,,,,,,,,,,,,,,,,,,,,,,,,,,,,,,,,,,,B_3,001,2024-11-27_13h10.14.819,untitled,2024.1.5,None,2024-11-27 13h10.26.482132 +0530,
triangle.png,stranger,1,M,,,,,,,,,36,0,144,1,,,,,,,,,426.9995086999843,,,,,,,,,,,,,,,,,,,,,,,,,,,,,,,,,,426.9834194999421,426.9995086999843,427.4831707000267,427.4831707000267,427.4831707000267,427.4831707000267,427.4996349000139,427.7831064000493,427.7831064000493,427.7831064000493,,428.4508587999735,m,428.4512856999645,428.4667229000479,429.46744999999646,429.4510582999792,0.9544999999925494,None,,,,,,,,,,,,,,,,,,,,,,,,,,,,,,,,,,,,,,,,,,,,,,,,,,,,,,,,,,,,,,,,,,,,,,,,,,,,,,,,,,,B_3,001,2024-11-27_13h10.14.819,untitled,2024.1.5,None,2024-11-27 13h10.26.482132 +0530,
triangle.png,you,0,Z,,,,,,,,,36,1,145,3,,,,,,,,,429.46744999999646,,,,,,,,,,,,,,,,,,,,,,,,,,,,,,,,,,429.45141129998956,429.46744999999646,429.9510019000154,429.9510019000154,429.9510019000154,429.9510019000154,429.96757540002,430.2511611999944,430.2511611999944,430.2511611999944,,430.4850660000229,m,430.48549210000783,430.5013470000122,431.5018232000293,431.48552340001334,0.5307823999319226,None,,,,,,,,,,,,,,,,,,,,,,,,,,,,,,,,,,,,,,,,,,,,,,,,,,,,,,,,,,,,,,,,,,,,,,,,,,,,,,,,,,,B_3,001,2024-11-27_13h10.14.819,untitled,2024.1.5,None,2024-11-27 13h10.26.482132 +0530,
square.png,you,1,M,,,,,,,,,36,2,146,0,,,,,,,,,431.5018232000293,,,,,,,,,,,,,,,,,,,,,,,,,,,,,,,,,,431.48587830003817,431.5018232000293,431.9853060999885,431.9853060999885,431.9853060999885,431.9853060999885,432.00184739998076,432.2852829999756,432.2852829999756,432.2852829999756,,432.53634370001964,m,432.53685439995024,432.5520993999671,433.55279139999766,433.53650899999775,0.5476066999835894,None,,,,,,,,,,,,,,,,,,,,,,,,,,,,,,,,,,,,,,,,,,,,,,,,,,,,,,,,,,,,,,,,,,,,,,,,,,,,,,,,,,,B_3,001,2024-11-27_13h10.14.819,untitled,2024.1.5,None,2024-11-27 13h10.26.482132 +0530,
