stimulus_b,label_b,is_match_b,shouldpress_b,stimulus_2b,label_2b,is_match_2b,shouldpress_2b,p_trials.thisRepN,p_trials.thisTrialN,p_trials.thisN,p_trials.thisIndex,trials.thisRepN,trials.thisTrialN,trials.thisN,trials.thisIndex,p_trials_2.thisRepN,p_trials_2.thisTrialN,p_trials_2.thisN,p_trials_2.thisIndex,trials_2.thisRepN,trials_2.thisTrialN,trials_2.thisN,trials_2.thisIndex,thisRow.t,notes,Intruduction.started,text_3.started,key_resp_2.started,Intruduction.stopped,key_resp_2.keys,key_resp_2.rt,key_resp_2.duration,self_other_instructions.started,text_4.started,key_resp_3.started,self_other_instructions.stopped,key_resp_3.keys,key_resp_3.rt,key_resp_3.duration,self_other_info.started,square_image.started,triangle_image.started,self_label.started,other_label.started,key_resp_4.started,text_5.started,self_other_info.stopped,key_resp_4.keys,key_resp_4.rt,key_resp_4.duration,self_other_starting_2.started,text_6.started,key_resp_5.started,self_other_starting_2.stopped,key_resp_5.keys,key_resp_5.rt,key_resp_5.duration,b1.started,p_fication.started,p_fixation_3.started,p_text.started,key_resp_p.started,p_image.started,p_fication.stopped,p_fixation_3.stopped,p_text.stopped,p_image.stopped,key_resp_p.stopped,b1.stopped,key_resp_p.keys,b_feedback.started,text_15.started,text_15.stopped,b_feedback.stopped,key_resp_p.rt,key_resp_p.duration,start2.started,start_2.started,key_resp_11.started,start2.stopped,key_resp_11.keys,key_resp_11.rt,key_resp_11.duration,break_3.started,text_13.started,text_14.started,key_resp_10.started,text_13.stopped,break_3.stopped,key_resp_10.keys,key_resp_10.rt,key_resp_10.duration,self_instructions_2.started,text_10.started,key_resp_7.started,self_instructions_2.stopped,key_resp_7.keys,key_resp_7.rt,key_resp_7.duration,self_intro_2.started,circle_image.started,diamond_image.started,Disgusting_self_lable.started,Desirable_self_lable.started,key_resp_8.started,text_11.started,self_intro_2.stopped,key_resp_8.keys,key_resp_8.rt,key_resp_8.duration,self_starting_3.started,text_12.started,key_resp_9.started,self_starting_3.stopped,key_resp_9.keys,key_resp_9.rt,key_resp_9.duration,practice2.started,p_fixation_2.started,p_fixation_2.stopped,p_fixation_4.started,p_text_8.started,key_resp_6_p.started,p_image_2.started,p_fixation_4.stopped,p_text_8.stopped,p_image_2.stopped,practice2.stopped,key_resp_6_p.keys,key_resp_6_p.rt,key_resp_6_p.duration,feedback_2_p.started,text_16.started,text_16.stopped,feedback_2_p.stopped,key_resp_6_p.stopped,trial_2.started,fixation_2.started,fixation_4.started,text_8.started,key_resp_6.started,image_2.started,fixation_2.stopped,fixation_4.stopped,text_8.stopped,image_2.stopped,trial_2.stopped,key_resp_6.keys,key_resp_6.rt,key_resp_6.duration,feedback_2.started,text_9.started,text_9.stopped,feedback_2.stopped,key_resp_6.stopped,Thank_you.started,text_7.started,text_7.stopped,Thank_you.stopped,participant,session,date,expName,psychopyVersion,frameRate,expStart,
,,,,,,,,,,,,,,,,,,,,,,,,,,0.002677600015886128,0.006444800063036382,0.006444800063036382,8.054707000032067,space,8.034766700002365,None,,,,,,,,,,,,,,,,,,,,,,,,,,,,,,,,,,,,,,,,,,,,,,,,,,,,,,,,,,,,,,,,,,,,,,,,,,,,,,,,,,,,,,,,,,,,,,,,,,,,,,,,,,,,,,,,,,,,,,,,,,,,,,,,B_4,001,2024-11-28_10h06.48.563,untitled,2024.1.5,None,2024-11-28 10h07.01.094002 +0530,
,,,,,,,,,,,,,,,,,,,,,,,,,,,,,,,,,8.054731999989599,8.068245400092565,8.068245400092565,24.22737410000991,space,16.15738240000792,None,,,,,,,,,,,,,,,,,,,,,,,,,,,,,,,,,,,,,,,,,,,,,,,,,,,,,,,,,,,,,,,,,,,,,,,,,,,,,,,,,,,,,,,,,,,,,,,,,,,,,,,,,,,,,,,,,,,,,,,,,B_4,001,2024-11-28_10h06.48.563,untitled,2024.1.5,None,2024-11-28 10h07.01.094002 +0530,
,,,,,,,,,,,,,,,,,,,,,,,,,,,,,,,,,,,,,,,,24.227402199991047,24.261228600051254,24.261228600051254,24.261228600051254,24.261228600051254,24.261228600051254,24.261228600051254,65.86450520006474,space,41.60134920000564,None,,,,,,,,,,,,,,,,,,,,,,,,,,,,,,,,,,,,,,,,,,,,,,,,,,,,,,,,,,,,,,,,,,,,,,,,,,,,,,,,,,,,,,,,,,,,,,,,,,,,,,,,,,,,,,B_4,001,2024-11-28_10h06.48.563,untitled,2024.1.5,None,2024-11-28 10h07.01.094002 +0530,
,,,,,,,,,,,,,,,,,,,,,,,,,,,,,,,,,,,,,,,,,,,,,,,,,,,65.86453240003902,65.8804567999905,65.8804567999905,88.81003980000969,space,22.92162860010285,None,,,,,,,,,,,,,,,,,,,,,,,,,,,,,,,,,,,,,,,,,,,,,,,,,,,,,,,,,,,,,,,,,,,,,,,,,,,,,,,,,,,,,,,,,,,,,,,,,,,,,,,B_4,001,2024-11-28_10h06.48.563,untitled,2024.1.5,None,2024-11-28 10h07.01.094002 +0530,
triangle.png,stranger,1,M,,,,,0,0,0,1,,,,,,,,,,,,,88.82823900005314,,,,,,,,,,,,,,,,,,,,,,,,,,,,,,,,,,88.81619709997904,88.82823900005314,89.3092059000628,89.3092059000628,89.3092059000628,89.3092059000628,89.34248750004917,89.60902590001933,89.60902590001933,89.60902590001933,90.40929940005299,90.393180700019,None,90.39339149999432,90.40929940005299,91.41005579999182,91.39387929998338,,,,,,,,,,,,,,,,,,,,,,,,,,,,,,,,,,,,,,,,,,,,,,,,,,,,,,,,,,,,,,,,,,,,,,,,,,,,,,,,,,,,,,B_4,001,2024-11-28_10h06.48.563,untitled,2024.1.5,None,2024-11-28 10h07.01.094002 +0530,
square.png,stranger,0,Z,,,,,0,1,1,2,,,,,,,,,,,,,91.41005579999182,,,,,,,,,,,,,,,,,,,,,,,,,,,,,,,,,,91.39411079999991,91.41005579999182,91.91048800002318,91.91048800002318,91.91048800002318,91.91048800002318,91.91048800002318,92.21045980008785,92.21045980008785,92.21045980008785,,92.44469450006727,m,92.44502670003567,92.46056310005952,93.46109410002828,93.44486759998836,0.5238877000520006,None,,,,,,,,,,,,,,,,,,,,,,,,,,,,,,,,,,,,,,,,,,,,,,,,,,,,,,,,,,,,,,,,,,,,,,,,,,,,,,,,,,,,B_4,001,2024-11-28_10h06.48.563,untitled,2024.1.5,None,2024-11-28 10h07.01.094002 +0530,
triangle.png,you,0,Z,,,,,0,2,2,3,,,,,,,,,,,,,93.46109410002828,,,,,,,,,,,,,,,,,,,,,,,,,,,,,,,,,,93.4451006000163,93.46109410002828,93.94465309998486,93.94465309998486,93.94465309998486,93.94465309998486,93.96151400008239,94.24466570001096,94.24466570001096,94.24466570001096,,94.71257089998107,z,94.71281860000454,94.72840090002865,95.72912050003652,95.7127341000596,0.75387670006603,None,,,,,,,,,,,,,,,,,,,,,,,,,,,,,,,,,,,,,,,,,,,,,,,,,,,,,,,,,,,,,,,,,,,,,,,,,,,,,,,,,,,,B_4,001,2024-11-28_10h06.48.563,untitled,2024.1.5,None,2024-11-28 10h07.01.094002 +0530,
square.png,you,1,M,,,,,0,3,3,0,,,,,,,,,,,,,95.72912050003652,,,,,,,,,,,,,,,,,,,,,,,,,,,,,,,,,,95.71296680008527,95.72912050003652,96.21263209998142,96.21263209998142,96.21263209998142,96.21263209998142,96.22921460005455,96.51259360008407,96.51259360008407,96.51259360008407,,96.74689569999464,m,96.74714630004019,96.76281099999323,97.76319379999768,97.74689250008669,0.5221589000429958,None,,,,,,,,,,,,,,,,,,,,,,,,,,,,,,,,,,,,,,,,,,,,,,,,,,,,,,,,,,,,,,,,,,,,,,,,,,,,,,,,,,,,B_4,001,2024-11-28_10h06.48.563,untitled,2024.1.5,None,2024-11-28 10h07.01.094002 +0530,
triangle.png,stranger,1,M,,,,,1,0,4,1,,,,,,,,,,,,,97.76319379999768,,,,,,,,,,,,,,,,,,,,,,,,,,,,,,,,,,97.74712489999365,97.76319379999768,98.24709620000795,98.24709620000795,98.24709620000795,98.24709620000795,98.26363100006711,98.54685280006379,98.54685280006379,98.54685280006379,99.34738450008444,99.33112560003065,None,99.33126790006645,99.34738450008444,100.3478221000405,100.33173440000974,,,,,,,,,,,,,,,,,,,,,,,,,,,,,,,,,,,,,,,,,,,,,,,,,,,,,,,,,,,,,,,,,,,,,,,,,,,,,,,,,,,,,,B_4,001,2024-11-28_10h06.48.563,untitled,2024.1.5,None,2024-11-28 10h07.01.094002 +0530,
square.png,you,1,M,,,,,1,1,5,0,,,,,,,,,,,,,100.3478221000405,,,,,,,,,,,,,,,,,,,,,,,,,,,,,,,,,,100.33196630002931,100.3478221000405,100.84822460007854,100.84822460007854,100.84822460007854,100.84822460007854,100.84822460007854,101.1484124000417,101.1484124000417,101.1484124000417,,101.21587080007885,m,101.21612300002016,101.23187460005283,102.23213320004288,102.21597500005737,0.36217340000439435,None,,,,,,,,,,,,,,,,,,,,,,,,,,,,,,,,,,,,,,,,,,,,,,,,,,,,,,,,,,,,,,,,,,,,,,,,,,,,,,,,,,,,B_4,001,2024-11-28_10h06.48.563,untitled,2024.1.5,None,2024-11-28 10h07.01.094002 +0530,
triangle.png,you,0,Z,,,,,1,2,6,3,,,,,,,,,,,,,102.23213320004288,,,,,,,,,,,,,,,,,,,,,,,,,,,,,,,,,,102.21620989998337,102.23213320004288,102.71613080007955,102.71613080007955,102.71613080007955,102.71613080007955,102.7327140000416,103.01584990008269,103.01584990008269,103.01584990008269,,103.16677670006175,z,103.16704890003894,103.18266540009063,104.1834375000326,104.1672319000354,0.43841279996559024,None,,,,,,,,,,,,,,,,,,,,,,,,,,,,,,,,,,,,,,,,,,,,,,,,,,,,,,,,,,,,,,,,,,,,,,,,,,,,,,,,,,,,B_4,001,2024-11-28_10h06.48.563,untitled,2024.1.5,None,2024-11-28 10h07.01.094002 +0530,
square.png,stranger,0,Z,,,,,1,3,7,2,,,,,,,,,,,,,104.1834375000326,,,,,,,,,,,,,,,,,,,,,,,,,,,,,,,,,,104.16747310000937,104.1834375000326,104.66691969998647,104.66691969998647,104.66691969998647,104.66691969998647,104.6835361000849,104.96692929998972,104.96692929998972,104.96692929998972,,105.18449720006902,m,105.18474350008182,105.20043110009283,106.20092000009026,106.18471770000178,0.5031669000163674,None,,,,,,,,,,,,,,,,,,,,,,,,,,,,,,,,,,,,,,,,,,,,,,,,,,,,,,,,,,,,,,,,,,,,,,,,,,,,,,,,,,,,B_4,001,2024-11-28_10h06.48.563,untitled,2024.1.5,None,2024-11-28 10h07.01.094002 +0530,
triangle.png,you,0,Z,,,,,2,0,8,3,,,,,,,,,,,,,106.20092000009026,,,,,,,,,,,,,,,,,,,,,,,,,,,,,,,,,,106.18495020002592,106.20092000009026,106.68458290002309,106.68458290002309,106.68458290002309,106.68458290002309,106.70126550004352,106.98478480009362,106.98478480009362,106.98478480009362,,107.13564029999543,z,107.13591940002516,107.15147719997913,108.15178170008585,108.13569959998131,0.43690189998596907,None,,,,,,,,,,,,,,,,,,,,,,,,,,,,,,,,,,,,,,,,,,,,,,,,,,,,,,,,,,,,,,,,,,,,,,,,,,,,,,,,,,,,B_4,001,2024-11-28_10h06.48.563,untitled,2024.1.5,None,2024-11-28 10h07.01.094002 +0530,
square.png,you,1,M,,,,,2,1,9,0,,,,,,,,,,,,,108.15178170008585,,,,,,,,,,,,,,,,,,,,,,,,,,,,,,,,,,108.13593540003058,108.15178170008585,108.63575290003791,108.63575290003791,108.63575290003791,108.63575290003791,108.65214900008868,108.93581779999658,108.93581779999658,108.93581779999658,,109.10312570002861,m,109.10337830008939,109.11905199999455,110.11959490005393,110.10354040004313,0.4628100000554696,None,,,,,,,,,,,,,,,,,,,,,,,,,,,,,,,,,,,,,,,,,,,,,,,,,,,,,,,,,,,,,,,,,,,,,,,,,,,,,,,,,,,,B_4,001,2024-11-28_10h06.48.563,untitled,2024.1.5,None,2024-11-28 10h07.01.094002 +0530,
square.png,stranger,0,Z,,,,,2,2,10,2,,,,,,,,,,,,,110.11959490005393,,,,,,,,,,,,,,,,,,,,,,,,,,,,,,,,,,110.10376820003148,110.11959490005393,110.60322240006644,110.60322240006644,110.60322240006644,110.60322240006644,110.62002490006853,110.90337130008265,110.90337130008265,110.90337130008265,,111.48784519999754,m,111.48809430003166,111.50363050005399,112.50403040007222,112.48790519998875,0.8739576999796554,None,,,,,,,,,,,,,,,,,,,,,,,,,,,,,,,,,,,,,,,,,,,,,,,,,,,,,,,,,,,,,,,,,,,,,,,,,,,,,,,,,,,,B_4,001,2024-11-28_10h06.48.563,untitled,2024.1.5,None,2024-11-28 10h07.01.094002 +0530,
triangle.png,stranger,1,M,,,,,2,3,11,1,,,,,,,,,,,,,112.50403040007222,,,,,,,,,,,,,,,,,,,,,,,,,,,,,,,,,,112.48813700000755,112.50403040007222,112.98808939999435,112.98808939999435,112.98808939999435,112.98808939999435,113.00439100002404,113.28795380005613,113.28795380005613,113.28795380005613,,113.52213810000103,z,113.5223920000717,113.53789370006416,114.53855810000096,114.5223299000645,0.5259623000165448,None,,,,,,,,,,,,,,,,,,,,,,,,,,,,,,,,,,,,,,,,,,,,,,,,,,,,,,,,,,,,,,,,,,,,,,,,,,,,,,,,,,,,B_4,001,2024-11-28_10h06.48.563,untitled,2024.1.5,None,2024-11-28 10h07.01.094002 +0530,
square.png,you,1,M,,,,,3,0,12,0,,,,,,,,,,,,,114.53855810000096,,,,,,,,,,,,,,,,,,,,,,,,,,,,,,,,,,114.52256170008332,114.53855810000096,115.02238219999708,115.02238219999708,115.02238219999708,115.02238219999708,115.03896270005498,115.32238410005812,115.32238410005812,115.32238410005812,,115.55630270007532,m,115.55654850008432,115.57247480005026,116.57288510003127,116.55681039998308,0.5317031000740826,None,,,,,,,,,,,,,,,,,,,,,,,,,,,,,,,,,,,,,,,,,,,,,,,,,,,,,,,,,,,,,,,,,,,,,,,,,,,,,,,,,,,,B_4,001,2024-11-28_10h06.48.563,untitled,2024.1.5,None,2024-11-28 10h07.01.094002 +0530,
triangle.png,you,0,Z,,,,,3,1,13,3,,,,,,,,,,,,,116.57288510003127,,,,,,,,,,,,,,,,,,,,,,,,,,,,,,,,,,116.55703810008708,116.57288510003127,117.0567928000819,117.0567928000819,117.0567928000819,117.0567928000819,117.07344680000097,117.35673700005282,117.35673700005282,117.35673700005282,,117.4905244000256,z,117.49077550007496,117.50653230003081,118.50739220005926,118.4911318999948,0.4291928999591619,None,,,,,,,,,,,,,,,,,,,,,,,,,,,,,,,,,,,,,,,,,,,,,,,,,,,,,,,,,,,,,,,,,,,,,,,,,,,,,,,,,,,,B_4,001,2024-11-28_10h06.48.563,untitled,2024.1.5,None,2024-11-28 10h07.01.094002 +0530,
triangle.png,stranger,1,M,,,,,3,2,14,1,,,,,,,,,,,,,118.50739220005926,,,,,,,,,,,,,,,,,,,,,,,,,,,,,,,,,,118.49136039998848,118.50739220005926,118.99083740008064,118.99083740008064,118.99083740008064,118.99083740008064,119.0074578000931,119.2909273999976,119.2909273999976,119.2909273999976,,119.74198540009093,z,119.74223650002386,119.7580261999974,120.75848800002132,120.74208280001767,0.7355323999654502,None,,,,,,,,,,,,,,,,,,,,,,,,,,,,,,,,,,,,,,,,,,,,,,,,,,,,,,,,,,,,,,,,,,,,,,,,,,,,,,,,,,,,B_4,001,2024-11-28_10h06.48.563,untitled,2024.1.5,None,2024-11-28 10h07.01.094002 +0530,
square.png,stranger,0,Z,,,,,3,3,15,2,,,,,,,,,,,,,120.75848800002132,,,,,,,,,,,,,,,,,,,,,,,,,,,,,,,,,,120.74231360002887,120.75848800002132,121.24223940004595,121.24223940004595,121.24223940004595,121.24223940004595,121.25886430009268,121.54230690002441,121.54230690002441,121.54230690002441,,121.57629850006197,m,121.57654720009305,121.5924564000452,122.59263510000892,122.57675230002496,0.32854040001984686,None,,,,,,,,,,,,,,,,,,,,,,,,,,,,,,,,,,,,,,,,,,,,,,,,,,,,,,,,,,,,,,,,,,,,,,,,,,,,,,,,,,,,B_4,001,2024-11-28_10h06.48.563,untitled,2024.1.5,None,2024-11-28 10h07.01.094002 +0530,
square.png,stranger,0,Z,,,,,4,0,16,2,,,,,,,,,,,,,122.59263510000892,,,,,,,,,,,,,,,,,,,,,,,,,,,,,,,,,,122.57698500005063,122.59263510000892,123.07627960003447,123.07627960003447,123.07627960003447,123.07627960003447,123.09293610008899,123.37644860008731,123.37644860008731,123.37644860008731,,123.66049440007191,z,123.66074130008928,123.6765224999981,124.67713520000689,124.66102720005438,0.5808622000040486,None,,,,,,,,,,,,,,,,,,,,,,,,,,,,,,,,,,,,,,,,,,,,,,,,,,,,,,,,,,,,,,,,,,,,,,,,,,,,,,,,,,,,B_4,001,2024-11-28_10h06.48.563,untitled,2024.1.5,None,2024-11-28 10h07.01.094002 +0530,
triangle.png,stranger,1,M,,,,,4,1,17,1,,,,,,,,,,,,,124.67713520000689,,,,,,,,,,,,,,,,,,,,,,,,,,,,,,,,,,124.66125400003511,124.67713520000689,125.16097239998635,125.16097239998635,125.16097239998635,125.16097239998635,125.17758970009163,125.46079580008518,125.46079580008518,125.46079580008518,,125.74495850002859,z,125.74520360003226,125.76086180005223,126.76156570005696,126.74536460009404,0.5808733000885695,None,,,,,,,,,,,,,,,,,,,,,,,,,,,,,,,,,,,,,,,,,,,,,,,,,,,,,,,,,,,,,,,,,,,,,,,,,,,,,,,,,,,,B_4,001,2024-11-28_10h06.48.563,untitled,2024.1.5,None,2024-11-28 10h07.01.094002 +0530,
triangle.png,you,0,Z,,,,,4,2,18,3,,,,,,,,,,,,,126.76156570005696,,,,,,,,,,,,,,,,,,,,,,,,,,,,,,,,,,126.7455975000048,126.76156570005696,127.24527429998852,127.24527429998852,127.24527429998852,127.24527429998852,127.26186189998407,127.54524990008213,127.54524990008213,127.54524990008213,,127.6961081000045,m,127.69635300000664,127.7118930000579,128.71253540006,128.69616250006948,0.4446622000541538,None,,,,,,,,,,,,,,,,,,,,,,,,,,,,,,,,,,,,,,,,,,,,,,,,,,,,,,,,,,,,,,,,,,,,,,,,,,,,,,,,,,,,B_4,001,2024-11-28_10h06.48.563,untitled,2024.1.5,None,2024-11-28 10h07.01.094002 +0530,
square.png,you,1,M,,,,,4,3,19,0,,,,,,,,,,,,,128.71253540006,,,,,,,,,,,,,,,,,,,,,,,,,,,,,,,,,,128.69638860004488,128.71253540006,129.19629300001543,129.19629300001543,129.19629300001543,129.19629300001543,129.21301140007563,129.49622299999464,129.49622299999464,129.49622299999464,,129.61384930007625,z,129.61409610009287,129.62967659998685,130.63035790005233,130.61380490008742,0.4049925999715924,None,,,,,,,,,,,,,,,,,,,,,,,,,,,,,,,,,,,,,,,,,,,,,,,,,,,,,,,,,,,,,,,,,,,,,,,,,,,,,,,,,,,,B_4,001,2024-11-28_10h06.48.563,untitled,2024.1.5,None,2024-11-28 10h07.01.094002 +0530,
,,,,,,,,,,,,,,,,,,,,,,,,,,,,,,,,,,,,,,,,,,,,,,,,,,,,,,,,,,,,,,,,,,,,,,,,,,,,,130.61385259998497,130.63035790005233,130.63035790005233,132.53204050008208,space,1.899545699940063,None,,,,,,,,,,,,,,,,,,,,,,,,,,,,,,,,,,,,,,,,,,,,,,,,,,,,,,,,,,,,,,,,,,,,,,,,,,,,,B_4,001,2024-11-28_10h06.48.563,untitled,2024.1.5,None,2024-11-28 10h07.01.094002 +0530,
triangle.png,stranger,1,M,,,,,,,,,0,0,0,1,,,,,,,,,132.54775010002777,,,,,,,,,,,,,,,,,,,,,,,,,,,,,,,,,,132.53764630004298,132.54775010002777,133.03173210006207,133.03173210006207,133.03173210006207,133.03173210006207,133.04830920009408,133.33161220001057,133.33161220001057,133.33161220001057,,133.63245300005656,z,133.6331496000057,133.64832430006936,134.6488243000349,134.6324979000492,0.5994111999170855,None,,,,,,,,,,,,,,,,,,,,,,,,,,,,,,,,,,,,,,,,,,,,,,,,,,,,,,,,,,,,,,,,,,,,,,,,,,,,,,,,,,,,B_4,001,2024-11-28_10h06.48.563,untitled,2024.1.5,None,2024-11-28 10h07.01.094002 +0530,
square.png,stranger,0,Z,,,,,,,,,0,1,1,2,,,,,,,,,134.6488243000349,,,,,,,,,,,,,,,,,,,,,,,,,,,,,,,,,,134.63288270006888,134.6488243000349,135.13271780009381,135.13271780009381,135.13271780009381,135.13271780009381,135.14924800000153,135.43271520000417,135.43271520000417,135.43271520000417,,135.68330899998546,z,135.6837340000784,135.69952210003976,136.70005820004735,136.683795100078,0.5493092000251636,None,,,,,,,,,,,,,,,,,,,,,,,,,,,,,,,,,,,,,,,,,,,,,,,,,,,,,,,,,,,,,,,,,,,,,,,,,,,,,,,,,,,,B_4,001,2024-11-28_10h06.48.563,untitled,2024.1.5,None,2024-11-28 10h07.01.094002 +0530,
square.png,you,1,M,,,,,,,,,0,2,2,0,,,,,,,,,136.70005820004735,,,,,,,,,,,,,,,,,,,,,,,,,,,,,,,,,,136.68413750000764,136.70005820004735,137.18376370007172,137.18376370007172,137.18376370007172,137.18376370007172,137.2001836000709,137.4836356000742,137.4836356000742,137.4836356000742,,137.5177643999923,m,137.51819940004498,137.53363499999978,138.5343070999952,138.51789280003868,0.3310467000119388,None,,,,,,,,,,,,,,,,,,,,,,,,,,,,,,,,,,,,,,,,,,,,,,,,,,,,,,,,,,,,,,,,,,,,,,,,,,,,,,,,,,,,B_4,001,2024-11-28_10h06.48.563,untitled,2024.1.5,None,2024-11-28 10h07.01.094002 +0530,
triangle.png,you,0,Z,,,,,,,,,0,3,3,3,,,,,,,,,138.5343070999952,,,,,,,,,,,,,,,,,,,,,,,,,,,,,,,,,,138.5182402000064,138.5343070999952,139.017960300087,139.017960300087,139.017960300087,139.017960300087,139.03450549999252,139.3179730999982,139.3179730999982,139.3179730999982,,139.45220749999862,z,139.45263070007786,139.4680912999902,140.46844349999446,140.45239560003392,0.4286452999804169,None,,,,,,,,,,,,,,,,,,,,,,,,,,,,,,,,,,,,,,,,,,,,,,,,,,,,,,,,,,,,,,,,,,,,,,,,,,,,,,,,,,,,B_4,001,2024-11-28_10h06.48.563,untitled,2024.1.5,None,2024-11-28 10h07.01.094002 +0530,
square.png,you,1,M,,,,,,,,,1,0,4,0,,,,,,,,,140.46844349999446,,,,,,,,,,,,,,,,,,,,,,,,,,,,,,,,,,140.4527420999948,140.46844349999446,140.9523783000186,140.9523783000186,140.9523783000186,140.9523783000186,140.96890330000315,141.2523648000788,141.2523648000788,141.2523648000788,,141.40292940009385,z,141.40337070007809,141.41903400002047,142.41984079999384,142.40324480005074,0.44152720004785806,None,,,,,,,,,,,,,,,,,,,,,,,,,,,,,,,,,,,,,,,,,,,,,,,,,,,,,,,,,,,,,,,,,,,,,,,,,,,,,,,,,,,,B_4,001,2024-11-28_10h06.48.563,untitled,2024.1.5,None,2024-11-28 10h07.01.094002 +0530,
triangle.png,stranger,1,M,,,,,,,,,1,1,5,1,,,,,,,,,142.41984079999384,,,,,,,,,,,,,,,,,,,,,,,,,,,,,,,,,,142.40358859999105,142.41984079999384,142.90356040000916,142.90356040000916,142.90356040000916,142.90356040000916,142.91974580008537,143.20328480005264,143.20328480005264,143.20328480005264,,143.42089509998914,z,143.42131570004858,143.43674909998663,144.43738680006936,144.4209780000383,0.5017955000512302,None,,,,,,,,,,,,,,,,,,,,,,,,,,,,,,,,,,,,,,,,,,,,,,,,,,,,,,,,,,,,,,,,,,,,,,,,,,,,,,,,,,,,B_4,001,2024-11-28_10h06.48.563,untitled,2024.1.5,None,2024-11-28 10h07.01.094002 +0530,
triangle.png,you,0,Z,,,,,,,,,1,2,6,3,,,,,,,,,144.43738680006936,,,,,,,,,,,,,,,,,,,,,,,,,,,,,,,,,,144.42132449999917,144.43738680006936,144.92088440002408,144.92088440002408,144.92088440002408,144.92088440002408,144.93760950001888,145.2210154000204,145.2210154000204,145.2210154000204,,145.52199560008012,z,145.52242270007264,145.53775690007024,146.53845330001786,146.52220410003792,0.5889500000048429,None,,,,,,,,,,,,,,,,,,,,,,,,,,,,,,,,,,,,,,,,,,,,,,,,,,,,,,,,,,,,,,,,,,,,,,,,,,,,,,,,,,,,B_4,001,2024-11-28_10h06.48.563,untitled,2024.1.5,None,2024-11-28 10h07.01.094002 +0530,
square.png,stranger,0,Z,,,,,,,,,1,3,7,2,,,,,,,,,146.53845330001786,,,,,,,,,,,,,,,,,,,,,,,,,,,,,,,,,,146.52256310009398,146.53845330001786,147.02182160003576,147.02182160003576,147.02182160003576,147.02182160003576,147.0384597000666,147.32193400000688,147.32193400000688,147.32193400000688,,147.40597590000834,m,147.40641030005645,147.42189740005415,148.42281690007076,148.40653380006552,0.37241690000519156,None,,,,,,,,,,,,,,,,,,,,,,,,,,,,,,,,,,,,,,,,,,,,,,,,,,,,,,,,,,,,,,,,,,,,,,,,,,,,,,,,,,,,B_4,001,2024-11-28_10h06.48.563,untitled,2024.1.5,None,2024-11-28 10h07.01.094002 +0530,
square.png,you,1,M,,,,,,,,,2,0,8,0,,,,,,,,,148.42281690007076,,,,,,,,,,,,,,,,,,,,,,,,,,,,,,,,,,148.40688230004162,148.42281690007076,148.90634180000052,148.90634180000052,148.90634180000052,148.90634180000052,148.92286629998125,149.20628320006654,149.20628320006654,149.20628320006654,,149.27379830006976,z,149.27422580006532,149.28964319999795,150.2901825000299,150.2738988000201,0.3563624999951571,None,,,,,,,,,,,,,,,,,,,,,,,,,,,,,,,,,,,,,,,,,,,,,,,,,,,,,,,,,,,,,,,,,,,,,,,,,,,,,,,,,,,,B_4,001,2024-11-28_10h06.48.563,untitled,2024.1.5,None,2024-11-28 10h07.01.094002 +0530,
triangle.png,stranger,1,M,,,,,,,,,2,1,9,1,,,,,,,,,150.2901825000299,,,,,,,,,,,,,,,,,,,,,,,,,,,,,,,,,,150.27424900000915,150.2901825000299,150.77391600003466,150.77391600003466,150.77391600003466,150.77391600003466,150.79053730005398,151.07405890000518,151.07405890000518,151.07405890000518,,151.10809670004528,z,151.10852290003095,151.12393030000385,152.12468790006824,152.10833339998499,0.32459319999907166,None,,,,,,,,,,,,,,,,,,,,,,,,,,,,,,,,,,,,,,,,,,,,,,,,,,,,,,,,,,,,,,,,,,,,,,,,,,,,,,,,,,,,B_4,001,2024-11-28_10h06.48.563,untitled,2024.1.5,None,2024-11-28 10h07.01.094002 +0530,
square.png,stranger,0,Z,,,,,,,,,2,2,10,2,,,,,,,,,152.12468790006824,,,,,,,,,,,,,,,,,,,,,,,,,,,,,,,,,,152.10868130007293,152.12468790006824,152.6083761000773,152.6083761000773,152.6083761000773,152.6083761000773,152.6246960000135,152.90813930006698,152.90813930006698,152.90813930006698,,153.1090560000157,z,153.1094935000874,153.12496190005913,154.12581780005712,154.10946619999595,0.4866264999145642,None,,,,,,,,,,,,,,,,,,,,,,,,,,,,,,,,,,,,,,,,,,,,,,,,,,,,,,,,,,,,,,,,,,,,,,,,,,,,,,,,,,,,B_4,001,2024-11-28_10h06.48.563,untitled,2024.1.5,None,2024-11-28 10h07.01.094002 +0530,
triangle.png,you,0,Z,,,,,,,,,2,3,11,3,,,,,,,,,154.12581780005712,,,,,,,,,,,,,,,,,,,,,,,,,,,,,,,,,,154.10981300007552,154.12581780005712,154.60939500003587,154.60939500003587,154.60939500003587,154.60939500003587,154.6260877000168,154.90937450004276,154.90937450004276,154.90937450004276,,155.05992110003717,m,155.0603487000335,155.07618289999664,156.07662760000676,156.0601226000581,0.4398994999937713,None,,,,,,,,,,,,,,,,,,,,,,,,,,,,,,,,,,,,,,,,,,,,,,,,,,,,,,,,,,,,,,,,,,,,,,,,,,,,,,,,,,,,B_4,001,2024-11-28_10h06.48.563,untitled,2024.1.5,None,2024-11-28 10h07.01.094002 +0530,
square.png,stranger,0,Z,,,,,,,,,3,0,12,2,,,,,,,,,156.07662760000676,,,,,,,,,,,,,,,,,,,,,,,,,,,,,,,,,,156.06047450006008,156.07662760000676,156.56014130008407,156.56014130008407,156.56014130008407,156.56014130008407,156.57682469999418,156.86036759999115,156.86036759999115,156.86036759999115,,156.8942438000813,z,156.89467060007155,156.91027330001816,157.9108090000227,157.8946737999795,0.31738380005117506,None,,,,,,,,,,,,,,,,,,,,,,,,,,,,,,,,,,,,,,,,,,,,,,,,,,,,,,,,,,,,,,,,,,,,,,,,,,,,,,,,,,,,B_4,001,2024-11-28_10h06.48.563,untitled,2024.1.5,None,2024-11-28 10h07.01.094002 +0530,
square.png,you,1,M,,,,,,,,,3,1,13,0,,,,,,,,,157.9108090000227,,,,,,,,,,,,,,,,,,,,,,,,,,,,,,,,,,157.8950169000309,157.9108090000227,158.39478880004026,158.39478880004026,158.39478880004026,158.39478880004026,158.41139130003285,158.69444830005523,158.69444830005523,158.69444830005523,,158.76184880000073,m,158.76227160007693,158.77805830002762,159.77854690002277,159.76215120009147,0.35141929995734245,None,,,,,,,,,,,,,,,,,,,,,,,,,,,,,,,,,,,,,,,,,,,,,,,,,,,,,,,,,,,,,,,,,,,,,,,,,,,,,,,,,,,,B_4,001,2024-11-28_10h06.48.563,untitled,2024.1.5,None,2024-11-28 10h07.01.094002 +0530,
triangle.png,you,0,Z,,,,,,,,,3,2,14,3,,,,,,,,,159.77854690002277,,,,,,,,,,,,,,,,,,,,,,,,,,,,,,,,,,159.7624986000592,159.77854690002277,160.26239160005935,160.26239160005935,160.26239160005935,160.26239160005935,160.27868310001213,160.5621290000854,160.5621290000854,160.5621290000854,,160.84642590000294,z,160.84685900004115,160.86247540009208,161.86267960001715,161.84631260007154,0.579395700013265,None,,,,,,,,,,,,,,,,,,,,,,,,,,,,,,,,,,,,,,,,,,,,,,,,,,,,,,,,,,,,,,,,,,,,,,,,,,,,,,,,,,,,B_4,001,2024-11-28_10h06.48.563,untitled,2024.1.5,None,2024-11-28 10h07.01.094002 +0530,
triangle.png,stranger,1,M,,,,,,,,,3,3,15,1,,,,,,,,,161.86267960001715,,,,,,,,,,,,,,,,,,,,,,,,,,,,,,,,,,161.84663530008402,161.86267960001715,162.3468162000645,162.3468162000645,162.3468162000645,162.3468162000645,162.3630955000408,162.64666840003338,162.64666840003338,162.64666840003338,,162.68071740004234,m,162.68114040000364,162.69673590001184,163.69727920007426,163.68081689998507,0.318605599924922,None,,,,,,,,,,,,,,,,,,,,,,,,,,,,,,,,,,,,,,,,,,,,,,,,,,,,,,,,,,,,,,,,,,,,,,,,,,,,,,,,,,,,B_4,001,2024-11-28_10h06.48.563,untitled,2024.1.5,None,2024-11-28 10h07.01.094002 +0530,
square.png,stranger,0,Z,,,,,,,,,4,0,16,2,,,,,,,,,163.69727920007426,,,,,,,,,,,,,,,,,,,,,,,,,,,,,,,,,,163.68116530007683,163.69727920007426,164.18071840004995,164.18071840004995,164.18071840004995,164.18071840004995,164.19750190002378,164.48073609999847,164.48073609999847,164.48073609999847,,164.68156480009202,z,164.68198530003428,164.69779780006502,165.6981350000715,165.6820339000551,0.485685299965553,None,,,,,,,,,,,,,,,,,,,,,,,,,,,,,,,,,,,,,,,,,,,,,,,,,,,,,,,,,,,,,,,,,,,,,,,,,,,,,,,,,,,,B_4,001,2024-11-28_10h06.48.563,untitled,2024.1.5,None,2024-11-28 10h07.01.094002 +0530,
triangle.png,stranger,1,M,,,,,,,,,4,1,17,1,,,,,,,,,165.6981350000715,,,,,,,,,,,,,,,,,,,,,,,,,,,,,,,,,,165.68238510005176,165.6981350000715,166.18177430005744,166.18177430005744,166.18177430005744,166.18177430005744,166.19874150003307,166.48192450008355,166.48192450008355,166.48192450008355,,166.74928210000508,z,166.74970749998465,166.7654356000712,167.76595710008405,167.74952930002473,0.5609136000275612,None,,,,,,,,,,,,,,,,,,,,,,,,,,,,,,,,,,,,,,,,,,,,,,,,,,,,,,,,,,,,,,,,,,,,,,,,,,,,,,,,,,,,B_4,001,2024-11-28_10h06.48.563,untitled,2024.1.5,None,2024-11-28 10h07.01.094002 +0530,
square.png,you,1,M,,,,,,,,,4,2,18,0,,,,,,,,,167.76595710008405,,,,,,,,,,,,,,,,,,,,,,,,,,,,,,,,,,167.749883600045,167.76595710008405,168.24959130003117,168.24959130003117,168.24959130003117,168.24959130003117,168.26633300003596,168.5497968000127,168.5497968000127,168.5497968000127,169.35008980007842,169.33379820000846,None,169.33399040007498,169.35008980007842,170.35072870005388,170.3343989000423,,,,,,,,,,,,,,,,,,,,,,,,,,,,,,,,,,,,,,,,,,,,,,,,,,,,,,,,,,,,,,,,,,,,,,,,,,,,,,,,,,,,,,B_4,001,2024-11-28_10h06.48.563,untitled,2024.1.5,None,2024-11-28 10h07.01.094002 +0530,
triangle.png,you,0,Z,,,,,,,,,4,3,19,3,,,,,,,,,170.35072870005388,,,,,,,,,,,,,,,,,,,,,,,,,,,,,,,,,,170.33474770002067,170.35072870005388,170.85117140004877,170.85117140004877,170.85117140004877,170.85117140004877,170.85117140004877,171.1510465000756,171.1510465000756,171.1510465000756,,171.43526430008933,z,171.43568890006281,171.45123570004944,172.45164109999314,172.43548990006093,0.570752099971287,None,,,,,,,,,,,,,,,,,,,,,,,,,,,,,,,,,,,,,,,,,,,,,,,,,,,,,,,,,,,,,,,,,,,,,,,,,,,,,,,,,,,,B_4,001,2024-11-28_10h06.48.563,untitled,2024.1.5,None,2024-11-28 10h07.01.094002 +0530,
triangle.png,stranger,1,M,,,,,,,,,5,0,20,1,,,,,,,,,172.45164109999314,,,,,,,,,,,,,,,,,,,,,,,,,,,,,,,,,,172.43583880004007,172.45164109999314,172.93521170003805,172.93521170003805,172.93521170003805,172.93521170003805,172.9517812000122,173.2353644000832,173.2353644000832,173.2353644000832,,173.38615979999304,z,173.38658560009208,173.4023008000804,174.4025047000032,174.38654560002033,0.4427911000093445,None,,,,,,,,,,,,,,,,,,,,,,,,,,,,,,,,,,,,,,,,,,,,,,,,,,,,,,,,,,,,,,,,,,,,,,,,,,,,,,,,,,,,B_4,001,2024-11-28_10h06.48.563,untitled,2024.1.5,None,2024-11-28 10h07.01.094002 +0530,
triangle.png,you,0,Z,,,,,,,,,5,1,21,3,,,,,,,,,174.4025047000032,,,,,,,,,,,,,,,,,,,,,,,,,,,,,,,,,,174.3868930999888,174.4025047000032,174.88628920004703,174.88628920004703,174.88628920004703,174.88628920004703,174.9028731000144,175.18621499999426,175.18621499999426,175.18621499999426,,175.5538940000115,z,175.5543179999804,175.56996620004065,176.57055840000976,176.5541183000896,0.6520547999534756,None,,,,,,,,,,,,,,,,,,,,,,,,,,,,,,,,,,,,,,,,,,,,,,,,,,,,,,,,,,,,,,,,,,,,,,,,,,,,,,,,,,,,B_4,001,2024-11-28_10h06.48.563,untitled,2024.1.5,None,2024-11-28 10h07.01.094002 +0530,
square.png,you,1,M,,,,,,,,,5,2,22,0,,,,,,,,,176.57055840000976,,,,,,,,,,,,,,,,,,,,,,,,,,,,,,,,,,176.55446610006038,176.57055840000976,177.05423250002787,177.05423250002787,177.05423250002787,177.05423250002787,177.0707565000048,177.35420499998145,177.35420499998145,177.35420499998145,,177.454776700004,m,177.45538569998462,177.47066160000395,178.4712591000134,178.45514600002207,0.3885060000466183,None,,,,,,,,,,,,,,,,,,,,,,,,,,,,,,,,,,,,,,,,,,,,,,,,,,,,,,,,,,,,,,,,,,,,,,,,,,,,,,,,,,,,B_4,001,2024-11-28_10h06.48.563,untitled,2024.1.5,None,2024-11-28 10h07.01.094002 +0530,
square.png,stranger,0,Z,,,,,,,,,5,3,23,2,,,,,,,,,178.4712591000134,,,,,,,,,,,,,,,,,,,,,,,,,,,,,,,,,,178.45549299998675,178.4712591000134,178.954993500025,178.954993500025,178.954993500025,178.954993500025,178.97176370001398,179.25528919999488,179.25528919999488,179.25528919999488,,179.6060990000842,z,179.60653140000068,179.62183700001333,180.62266980006825,180.60632710007485,0.6388619999634102,None,,,,,,,,,,,,,,,,,,,,,,,,,,,,,,,,,,,,,,,,,,,,,,,,,,,,,,,,,,,,,,,,,,,,,,,,,,,,,,,,,,,,B_4,001,2024-11-28_10h06.48.563,untitled,2024.1.5,None,2024-11-28 10h07.01.094002 +0530,
square.png,stranger,0,Z,,,,,,,,,6,0,24,2,,,,,,,,,180.62266980006825,,,,,,,,,,,,,,,,,,,,,,,,,,,,,,,,,,180.60668690002058,180.62266980006825,181.1061743000755,181.1061743000755,181.1061743000755,181.1061743000755,181.12291610008106,181.40613300004043,181.40613300004043,181.40613300004043,,181.90735280001536,z,181.907776499982,181.92333620006684,182.9238301999867,182.9075902000768,0.7884888999396935,None,,,,,,,,,,,,,,,,,,,,,,,,,,,,,,,,,,,,,,,,,,,,,,,,,,,,,,,,,,,,,,,,,,,,,,,,,,,,,,,,,,,,B_4,001,2024-11-28_10h06.48.563,untitled,2024.1.5,None,2024-11-28 10h07.01.094002 +0530,
square.png,you,1,M,,,,,,,,,6,1,25,0,,,,,,,,,182.9238301999867,,,,,,,,,,,,,,,,,,,,,,,,,,,,,,,,,,182.90793490002397,182.9238301999867,183.40758130000904,183.40758130000904,183.40758130000904,183.40758130000904,183.42390629998408,183.7073764000088,183.7073764000088,183.7073764000088,,183.8749938000692,m,183.8754220000701,183.89093640004285,184.89129110006616,184.87524060008582,0.4549586999928579,None,,,,,,,,,,,,,,,,,,,,,,,,,,,,,,,,,,,,,,,,,,,,,,,,,,,,,,,,,,,,,,,,,,,,,,,,,,,,,,,,,,,,B_4,001,2024-11-28_10h06.48.563,untitled,2024.1.5,None,2024-11-28 10h07.01.094002 +0530,
triangle.png,you,0,Z,,,,,,,,,6,2,26,3,,,,,,,,,184.89129110006616,,,,,,,,,,,,,,,,,,,,,,,,,,,,,,,,,,184.87559130007867,184.89129110006616,185.3751047999831,185.3751047999831,185.3751047999831,185.3751047999831,185.39151520002633,185.67520060006063,185.67520060006063,185.67520060006063,,185.99272129999008,z,185.99315220001154,186.0086694000056,187.00917049997952,186.99279699998442,0.6036148000275716,None,,,,,,,,,,,,,,,,,,,,,,,,,,,,,,,,,,,,,,,,,,,,,,,,,,,,,,,,,,,,,,,,,,,,,,,,,,,,,,,,,,,,B_4,001,2024-11-28_10h06.48.563,untitled,2024.1.5,None,2024-11-28 10h07.01.094002 +0530,
triangle.png,stranger,1,M,,,,,,,,,6,3,27,1,,,,,,,,,187.00917049997952,,,,,,,,,,,,,,,,,,,,,,,,,,,,,,,,,,186.99314280005638,187.00917049997952,187.49283660005312,187.49283660005312,187.49283660005312,187.49283660005312,187.50950980000198,187.79273690003902,187.79273690003902,187.79273690003902,,188.1603376000421,m,188.1607653000392,188.17645310005173,189.17680460005067,189.16065910004545,0.6603780000004917,None,,,,,,,,,,,,,,,,,,,,,,,,,,,,,,,,,,,,,,,,,,,,,,,,,,,,,,,,,,,,,,,,,,,,,,,,,,,,,,,,,,,,B_4,001,2024-11-28_10h06.48.563,untitled,2024.1.5,None,2024-11-28 10h07.01.094002 +0530,
square.png,stranger,0,Z,,,,,,,,,7,0,28,2,,,,,,,,,189.17680460005067,,,,,,,,,,,,,,,,,,,,,,,,,,,,,,,,,,189.1610067000147,189.17680460005067,189.66051930002868,189.66051930002868,189.66051930002868,189.66051930002868,189.6771251000464,189.9605300000403,189.9605300000403,189.9605300000403,,190.3950609000167,z,190.39548459998332,190.41074239998125,191.41132810001727,191.3953279000707,0.7221321000251919,None,,,,,,,,,,,,,,,,,,,,,,,,,,,,,,,,,,,,,,,,,,,,,,,,,,,,,,,,,,,,,,,,,,,,,,,,,,,,,,,,,,,,B_4,001,2024-11-28_10h06.48.563,untitled,2024.1.5,None,2024-11-28 10h07.01.094002 +0530,
triangle.png,you,0,Z,,,,,,,,,7,1,29,3,,,,,,,,,191.41132810001727,,,,,,,,,,,,,,,,,,,,,,,,,,,,,,,,,,191.39567470003385,191.41132810001727,191.89500250003766,191.89500250003766,191.89500250003766,191.89500250003766,191.91157310002018,192.19505410001148,192.19505410001148,192.19505410001148,,192.6961650000885,m,192.69659639999736,192.71200749999844,193.71263050008565,193.69621040008496,0.799055999959819,None,,,,,,,,,,,,,,,,,,,,,,,,,,,,,,,,,,,,,,,,,,,,,,,,,,,,,,,,,,,,,,,,,,,,,,,,,,,,,,,,,,,,B_4,001,2024-11-28_10h06.48.563,untitled,2024.1.5,None,2024-11-28 10h07.01.094002 +0530,
square.png,you,1,M,,,,,,,,,7,2,30,0,,,,,,,,,193.71263050008565,,,,,,,,,,,,,,,,,,,,,,,,,,,,,,,,,,193.69656160008162,193.71263050008565,194.196383100003,194.196383100003,194.196383100003,194.196383100003,194.21295640000608,194.49616690003313,194.49616690003313,194.49616690003313,,195.21395260002464,z,195.21439600002486,195.23007400007918,196.23045879998244,196.21438990009483,1.0089879999868572,None,,,,,,,,,,,,,,,,,,,,,,,,,,,,,,,,,,,,,,,,,,,,,,,,,,,,,,,,,,,,,,,,,,,,,,,,,,,,,,,,,,,,B_4,001,2024-11-28_10h06.48.563,untitled,2024.1.5,None,2024-11-28 10h07.01.094002 +0530,
triangle.png,stranger,1,M,,,,,,,,,7,3,31,1,,,,,,,,,196.23045879998244,,,,,,,,,,,,,,,,,,,,,,,,,,,,,,,,,,196.21474050008692,196.23045879998244,196.7143545000581,196.7143545000581,196.7143545000581,196.7143545000581,196.7310439000139,197.01416070002597,197.01416070002597,197.01416070002597,197.814889100031,197.79858370008878,None,197.7987867000047,197.814889100031,198.81514630001038,198.7988734000828,,,,,,,,,,,,,,,,,,,,,,,,,,,,,,,,,,,,,,,,,,,,,,,,,,,,,,,,,,,,,,,,,,,,,,,,,,,,,,,,,,,,,,B_4,001,2024-11-28_10h06.48.563,untitled,2024.1.5,None,2024-11-28 10h07.01.094002 +0530,
triangle.png,stranger,1,M,,,,,,,,,8,0,32,1,,,,,,,,,198.81514630001038,,,,,,,,,,,,,,,,,,,,,,,,,,,,,,,,,,198.79922490008175,198.81514630001038,199.31554710003547,199.31554710003547,199.31554710003547,199.31554710003547,199.31554710003547,199.6156155000208,199.6156155000208,199.6156155000208,,200.38327660004143,z,200.3837359000463,200.3993678999832,201.39968710008543,201.38356890005525,1.0623025000095367,None,,,,,,,,,,,,,,,,,,,,,,,,,,,,,,,,,,,,,,,,,,,,,,,,,,,,,,,,,,,,,,,,,,,,,,,,,,,,,,,,,,,,B_4,001,2024-11-28_10h06.48.563,untitled,2024.1.5,None,2024-11-28 10h07.01.094002 +0530,
square.png,you,1,M,,,,,,,,,8,1,33,0,,,,,,,,,201.39968710008543,,,,,,,,,,,,,,,,,,,,,,,,,,,,,,,,,,201.3839214000618,201.39968710008543,201.8836862000171,201.8836862000171,201.8836862000171,201.8836862000171,201.9003531000344,202.1835410000058,202.1835410000058,202.1835410000058,,202.66775310004596,m,202.6681778000202,202.6837586000329,203.68450299999677,203.6681007000152,0.7748524000635371,None,,,,,,,,,,,,,,,,,,,,,,,,,,,,,,,,,,,,,,,,,,,,,,,,,,,,,,,,,,,,,,,,,,,,,,,,,,,,,,,,,,,,B_4,001,2024-11-28_10h06.48.563,untitled,2024.1.5,None,2024-11-28 10h07.01.094002 +0530,
triangle.png,you,0,Z,,,,,,,,,8,2,34,3,,,,,,,,,203.68450299999677,,,,,,,,,,,,,,,,,,,,,,,,,,,,,,,,,,203.66844899998978,203.68450299999677,204.16828560002614,204.16828560002614,204.16828560002614,204.16828560002614,204.18453800003044,204.46796550008003,204.46796550008003,204.46796550008003,,204.81881540000904,m,204.81929060001858,204.83530110004358,205.83537540002726,205.8191176999826,0.6351174999726936,None,,,,,,,,,,,,,,,,,,,,,,,,,,,,,,,,,,,,,,,,,,,,,,,,,,,,,,,,,,,,,,,,,,,,,,,,,,,,,,,,,,,,B_4,001,2024-11-28_10h06.48.563,untitled,2024.1.5,None,2024-11-28 10h07.01.094002 +0530,
square.png,stranger,0,Z,,,,,,,,,8,3,35,2,,,,,,,,,205.83537540002726,,,,,,,,,,,,,,,,,,,,,,,,,,,,,,,,,,205.81946919998154,205.83537540002726,206.31929250003304,206.31929250003304,206.31929250003304,206.31929250003304,206.33579809998628,206.6191378000658,206.6191378000658,206.6191378000658,,207.17036590003408,z,207.17078970000148,207.18607250007335,208.1865021000849,208.17048920004163,0.8434226999524981,None,,,,,,,,,,,,,,,,,,,,,,,,,,,,,,,,,,,,,,,,,,,,,,,,,,,,,,,,,,,,,,,,,,,,,,,,,,,,,,,,,,,,B_4,001,2024-11-28_10h06.48.563,untitled,2024.1.5,None,2024-11-28 10h07.01.094002 +0530,
triangle.png,stranger,1,M,,,,,,,,,9,0,36,1,,,,,,,,,208.1865021000849,,,,,,,,,,,,,,,,,,,,,,,,,,,,,,,,,,208.17084730009083,208.1865021000849,208.6703369000461,208.6703369000461,208.6703369000461,208.6703369000461,208.68682250007987,208.9702464999864,208.9702464999864,208.9702464999864,,209.50483079999685,m,209.50525410007685,209.5207333000144,210.52115030004643,210.50518860004377,0.8189111000392586,None,,,,,,,,,,,,,,,,,,,,,,,,,,,,,,,,,,,,,,,,,,,,,,,,,,,,,,,,,,,,,,,,,,,,,,,,,,,,,,,,,,,,B_4,001,2024-11-28_10h06.48.563,untitled,2024.1.5,None,2024-11-28 10h07.01.094002 +0530,
square.png,you,1,M,,,,,,,,,9,1,37,0,,,,,,,,,210.52115030004643,,,,,,,,,,,,,,,,,,,,,,,,,,,,,,,,,,210.50553680001758,210.52115030004643,211.00485020002816,211.00485020002816,211.00485020002816,211.00485020002816,211.02158820000477,211.30484320002142,211.30484320002142,211.30484320002142,,211.72257290000562,m,211.72299540007953,211.7386484000599,212.73900579998735,212.72288040001877,0.7023760000010952,None,,,,,,,,,,,,,,,,,,,,,,,,,,,,,,,,,,,,,,,,,,,,,,,,,,,,,,,,,,,,,,,,,,,,,,,,,,,,,,,,,,,,B_4,001,2024-11-28_10h06.48.563,untitled,2024.1.5,None,2024-11-28 10h07.01.094002 +0530,
triangle.png,you,0,Z,,,,,,,,,9,2,38,3,,,,,,,,,212.73900579998735,,,,,,,,,,,,,,,,,,,,,,,,,,,,,,,,,,212.72322220006026,212.73900579998735,213.2229147000471,213.2229147000471,213.2229147000471,213.2229147000471,213.2392503999872,213.5226916000247,213.5226916000247,213.5226916000247,,213.92383089999203,z,213.92425999999978,213.93957980000414,214.94020640000235,214.92376590007916,0.694903599913232,None,,,,,,,,,,,,,,,,,,,,,,,,,,,,,,,,,,,,,,,,,,,,,,,,,,,,,,,,,,,,,,,,,,,,,,,,,,,,,,,,,,,,B_4,001,2024-11-28_10h06.48.563,untitled,2024.1.5,None,2024-11-28 10h07.01.094002 +0530,
square.png,stranger,0,Z,,,,,,,,,9,3,39,2,,,,,,,,,214.94020640000235,,,,,,,,,,,,,,,,,,,,,,,,,,,,,,,,,,214.92411720007658,214.94020640000235,215.42378379998263,215.42378379998263,215.42378379998263,215.42378379998263,215.44070789997932,215.72394100006204,215.72394100006204,215.72394100006204,216.52430120005738,216.50811559997965,None,216.50830660003703,216.52430120005738,217.52479470008984,217.508487300016,,,,,,,,,,,,,,,,,,,,,,,,,,,,,,,,,,,,,,,,,,,,,,,,,,,,,,,,,,,,,,,,,,,,,,,,,,,,,,,,,,,,,,B_4,001,2024-11-28_10h06.48.563,untitled,2024.1.5,None,2024-11-28 10h07.01.094002 +0530,
triangle.png,you,0,Z,,,,,,,,,10,0,40,3,,,,,,,,,217.52479470008984,,,,,,,,,,,,,,,,,,,,,,,,,,,,,,,,,,217.50884450005833,217.52479470008984,218.02508880000096,218.02508880000096,218.02508880000096,218.02508880000096,218.02508880000096,218.32518370007165,218.32518370007165,218.32518370007165,,218.92629010009114,z,218.92671620007604,218.9421483000042,219.94266070006415,219.926403200021,0.8888794999802485,None,,,,,,,,,,,,,,,,,,,,,,,,,,,,,,,,,,,,,,,,,,,,,,,,,,,,,,,,,,,,,,,,,,,,,,,,,,,,,,,,,,,,B_4,001,2024-11-28_10h06.48.563,untitled,2024.1.5,None,2024-11-28 10h07.01.094002 +0530,
triangle.png,stranger,1,M,,,,,,,,,10,1,41,1,,,,,,,,,219.94266070006415,,,,,,,,,,,,,,,,,,,,,,,,,,,,,,,,,,219.92675230000168,219.94266070006415,220.42627120006364,220.42627120006364,220.42627120006364,220.42627120006364,220.4431630000472,220.7263038000092,220.7263038000092,220.7263038000092,,221.41079260001425,m,221.4112251000479,221.42689670005348,222.42727870005183,222.41101090004668,0.9831014000810683,None,,,,,,,,,,,,,,,,,,,,,,,,,,,,,,,,,,,,,,,,,,,,,,,,,,,,,,,,,,,,,,,,,,,,,,,,,,,,,,,,,,,,B_4,001,2024-11-28_10h06.48.563,untitled,2024.1.5,None,2024-11-28 10h07.01.094002 +0530,
square.png,you,1,M,,,,,,,,,10,2,42,0,,,,,,,,,222.42727870005183,,,,,,,,,,,,,,,,,,,,,,,,,,,,,,,,,,222.4113679000875,222.42727870005183,222.91095190006308,222.91095190006308,222.91095190006308,222.91095190006308,222.9274912000401,223.2111719000386,223.2111719000386,223.2111719000386,,223.84552740002982,z,223.84595650003757,223.86170230002608,224.86184050003067,224.84562700008973,0.930117700016126,None,,,,,,,,,,,,,,,,,,,,,,,,,,,,,,,,,,,,,,,,,,,,,,,,,,,,,,,,,,,,,,,,,,,,,,,,,,,,,,,,,,,,B_4,001,2024-11-28_10h06.48.563,untitled,2024.1.5,None,2024-11-28 10h07.01.094002 +0530,
square.png,stranger,0,Z,,,,,,,,,10,3,43,2,,,,,,,,,224.86184050003067,,,,,,,,,,,,,,,,,,,,,,,,,,,,,,,,,,224.84609180002008,224.86184050003067,225.3454616999952,225.3454616999952,225.3454616999952,225.3454616999952,225.36217670002952,225.64563310006633,225.64563310006633,225.64563310006633,226.4462527000578,226.4299153999891,None,226.43010790005792,226.4462527000578,227.44672380003612,227.43017820001114,,,,,,,,,,,,,,,,,,,,,,,,,,,,,,,,,,,,,,,,,,,,,,,,,,,,,,,,,,,,,,,,,,,,,,,,,,,,,,,,,,,,,,B_4,001,2024-11-28_10h06.48.563,untitled,2024.1.5,None,2024-11-28 10h07.01.094002 +0530,
square.png,stranger,0,Z,,,,,,,,,11,0,44,2,,,,,,,,,227.44672380003612,,,,,,,,,,,,,,,,,,,,,,,,,,,,,,,,,,227.43052550009452,227.44672380003612,227.94707740005106,227.94707740005106,227.94707740005106,227.94707740005106,227.94707740005106,228.24694320000708,228.24694320000708,228.24694320000708,229.04743080004118,229.03098959999625,None,229.03117800003383,229.04743080004118,230.047920800047,230.03185770008713,,,,,,,,,,,,,,,,,,,,,,,,,,,,,,,,,,,,,,,,,,,,,,,,,,,,,,,,,,,,,,,,,,,,,,,,,,,,,,,,,,,,,,B_4,001,2024-11-28_10h06.48.563,untitled,2024.1.5,None,2024-11-28 10h07.01.094002 +0530,
triangle.png,stranger,1,M,,,,,,,,,11,1,45,1,,,,,,,,,230.047920800047,,,,,,,,,,,,,,,,,,,,,,,,,,,,,,,,,,230.03220970008988,230.047920800047,230.54836000001524,230.54836000001524,230.54836000001524,230.54836000001524,230.54836000001524,230.84831820009276,230.84831820009276,230.84831820009276,,231.41590120003093,z,231.41632990003563,231.43188649998046,232.43267640005797,232.41640910005663,0.85395050002262,None,,,,,,,,,,,,,,,,,,,,,,,,,,,,,,,,,,,,,,,,,,,,,,,,,,,,,,,,,,,,,,,,,,,,,,,,,,,,,,,,,,,,B_4,001,2024-11-28_10h06.48.563,untitled,2024.1.5,None,2024-11-28 10h07.01.094002 +0530,
triangle.png,you,0,Z,,,,,,,,,11,2,46,3,,,,,,,,,232.43267640005797,,,,,,,,,,,,,,,,,,,,,,,,,,,,,,,,,,232.41675540001597,232.43267640005797,232.91615499998443,232.91615499998443,232.91615499998443,232.91615499998443,232.93267910007853,233.21609250002075,233.21609250002075,233.21609250002075,,233.7171167000197,m,233.71754760004114,233.73322749999352,234.7335259000538,234.7175009000348,0.7942217000527307,None,,,,,,,,,,,,,,,,,,,,,,,,,,,,,,,,,,,,,,,,,,,,,,,,,,,,,,,,,,,,,,,,,,,,,,,,,,,,,,,,,,,,B_4,001,2024-11-28_10h06.48.563,untitled,2024.1.5,None,2024-11-28 10h07.01.094002 +0530,
square.png,you,1,M,,,,,,,,,11,3,47,0,,,,,,,,,234.7335259000538,,,,,,,,,,,,,,,,,,,,,,,,,,,,,,,,,,234.71785420004744,234.7335259000538,235.21742800006177,235.21742800006177,235.21742800006177,235.21742800006177,235.23411570000462,235.51752410002518,235.51752410002518,235.51752410002518,,236.01820060005412,m,236.01862410001922,236.03420009999536,237.03486980008893,237.01874080009293,0.7846044999314472,None,,,,,,,,,,,,,,,,,,,,,,,,,,,,,,,,,,,,,,,,,,,,,,,,,,,,,,,,,,,,,,,,,,,,,,,,,,,,,,,,,,,,B_4,001,2024-11-28_10h06.48.563,untitled,2024.1.5,None,2024-11-28 10h07.01.094002 +0530,
triangle.png,you,0,Z,,,,,,,,,12,0,48,3,,,,,,,,,237.03486980008893,,,,,,,,,,,,,,,,,,,,,,,,,,,,,,,,,,237.01909140008502,237.03486980008893,237.51838790008333,237.51838790008333,237.51838790008333,237.51838790008333,237.5350550999865,237.8184743000893,237.8184743000893,237.8184743000893,,238.20263449999038,z,238.20305630005896,238.2189128000755,239.21939600002952,239.20291560003534,0.6801083999453112,None,,,,,,,,,,,,,,,,,,,,,,,,,,,,,,,,,,,,,,,,,,,,,,,,,,,,,,,,,,,,,,,,,,,,,,,,,,,,,,,,,,,,B_4,001,2024-11-28_10h06.48.563,untitled,2024.1.5,None,2024-11-28 10h07.01.094002 +0530,
triangle.png,stranger,1,M,,,,,,,,,12,1,49,1,,,,,,,,,239.21939600002952,,,,,,,,,,,,,,,,,,,,,,,,,,,,,,,,,,239.20326119998936,239.21939600002952,239.70299040002283,239.70299040002283,239.70299040002283,239.70299040002283,239.71953950007446,240.00301980006043,240.00301980006043,240.00301980006043,240.80337840004358,240.78711150004528,None,240.78730620001443,240.80337840004358,241.8042153000133,241.78786640008911,,,,,,,,,,,,,,,,,,,,,,,,,,,,,,,,,,,,,,,,,,,,,,,,,,,,,,,,,,,,,,,,,,,,,,,,,,,,,,,,,,,,,,B_4,001,2024-11-28_10h06.48.563,untitled,2024.1.5,None,2024-11-28 10h07.01.094002 +0530,
square.png,you,1,M,,,,,,,,,12,2,50,0,,,,,,,,,241.8042153000133,,,,,,,,,,,,,,,,,,,,,,,,,,,,,,,,,,241.78821300005075,241.8042153000133,242.30416910001077,242.30416910001077,242.30416910001077,242.30416910001077,242.30416910001077,242.60441280005034,242.60441280005034,242.60441280005034,,242.98840670008212,m,242.9888409000123,243.00456840009429,244.0049632000737,243.98885870003141,0.6706171999685466,None,,,,,,,,,,,,,,,,,,,,,,,,,,,,,,,,,,,,,,,,,,,,,,,,,,,,,,,,,,,,,,,,,,,,,,,,,,,,,,,,,,,,B_4,001,2024-11-28_10h06.48.563,untitled,2024.1.5,None,2024-11-28 10h07.01.094002 +0530,
square.png,stranger,0,Z,,,,,,,,,12,3,51,2,,,,,,,,,244.0049632000737,,,,,,,,,,,,,,,,,,,,,,,,,,,,,,,,,,243.9892124000471,244.0049632000737,244.4889524000464,244.4889524000464,244.4889524000464,244.4889524000464,244.50530040008016,244.78880550002214,244.78880550002214,244.78880550002214,,245.40684190008324,z,245.40727279998828,245.42251840000972,246.42315010004677,246.40667529997882,0.9168935000197962,None,,,,,,,,,,,,,,,,,,,,,,,,,,,,,,,,,,,,,,,,,,,,,,,,,,,,,,,,,,,,,,,,,,,,,,,,,,,,,,,,,,,,B_4,001,2024-11-28_10h06.48.563,untitled,2024.1.5,None,2024-11-28 10h07.01.094002 +0530,
square.png,stranger,0,Z,,,,,,,,,13,0,52,2,,,,,,,,,246.42315010004677,,,,,,,,,,,,,,,,,,,,,,,,,,,,,,,,,,246.4070257000858,246.42315010004677,246.90656140004285,246.90656140004285,246.90656140004285,246.90656140004285,246.92335559998173,247.20685600000434,247.20685600000434,247.20685600000434,248.00719100004062,247.99077170004603,None,247.99096309999004,248.00719100004062,249.00778840004932,248.99151830002666,,,,,,,,,,,,,,,,,,,,,,,,,,,,,,,,,,,,,,,,,,,,,,,,,,,,,,,,,,,,,,,,,,,,,,,,,,,,,,,,,,,,,,B_4,001,2024-11-28_10h06.48.563,untitled,2024.1.5,None,2024-11-28 10h07.01.094002 +0530,
triangle.png,you,0,Z,,,,,,,,,13,1,53,3,,,,,,,,,249.00778840004932,,,,,,,,,,,,,,,,,,,,,,,,,,,,,,,,,,248.99186650000047,249.00778840004932,249.50802840001415,249.50802840001415,249.50802840001415,249.50802840001415,249.50802840001415,249.80795970000327,249.80795970000327,249.80795970000327,,250.27562900003977,m,250.2761363000609,250.29160780005623,251.2922891000053,251.2758323000744,0.7587233000667766,None,,,,,,,,,,,,,,,,,,,,,,,,,,,,,,,,,,,,,,,,,,,,,,,,,,,,,,,,,,,,,,,,,,,,,,,,,,,,,,,,,,,,B_4,001,2024-11-28_10h06.48.563,untitled,2024.1.5,None,2024-11-28 10h07.01.094002 +0530,
square.png,you,1,M,,,,,,,,,13,2,54,0,,,,,,,,,251.2922891000053,,,,,,,,,,,,,,,,,,,,,,,,,,,,,,,,,,251.27618410007562,251.2922891000053,251.7759800000349,251.7759800000349,251.7759800000349,251.7759800000349,251.7922251999844,252.07585230004042,252.07585230004042,252.07585230004042,,252.4100145000266,m,252.41044460004196,252.42594780004583,253.42671080003493,253.41022590000648,0.6264000999508426,None,,,,,,,,,,,,,,,,,,,,,,,,,,,,,,,,,,,,,,,,,,,,,,,,,,,,,,,,,,,,,,,,,,,,,,,,,,,,,,,,,,,,B_4,001,2024-11-28_10h06.48.563,untitled,2024.1.5,None,2024-11-28 10h07.01.094002 +0530,
triangle.png,stranger,1,M,,,,,,,,,13,3,55,1,,,,,,,,,253.42671080003493,,,,,,,,,,,,,,,,,,,,,,,,,,,,,,,,,,253.41057730000466,253.42671080003493,253.91013560001738,253.91013560001738,253.91013560001738,253.91013560001738,253.92713289998937,254.21030010003597,254.21030010003597,254.21030010003597,,254.5948835000163,z,254.5953254000051,254.61065230006352,255.61110680003185,255.59474319999572,0.6835699999937788,None,,,,,,,,,,,,,,,,,,,,,,,,,,,,,,,,,,,,,,,,,,,,,,,,,,,,,,,,,,,,,,,,,,,,,,,,,,,,,,,,,,,,B_4,001,2024-11-28_10h06.48.563,untitled,2024.1.5,None,2024-11-28 10h07.01.094002 +0530,
square.png,stranger,0,Z,,,,,,,,,14,0,56,2,,,,,,,,,255.61110680003185,,,,,,,,,,,,,,,,,,,,,,,,,,,,,,,,,,255.5950900000753,255.61110680003185,256.09474910004064,256.09474910004064,256.09474910004064,256.09474910004064,256.1113349000225,256.3948224000633,256.3948224000633,256.3948224000633,,256.7958381000208,z,256.7962686000392,256.8121017999947,257.8122038000729,257.7957930000266,0.6865973999956623,None,,,,,,,,,,,,,,,,,,,,,,,,,,,,,,,,,,,,,,,,,,,,,,,,,,,,,,,,,,,,,,,,,,,,,,,,,,,,,,,,,,,,B_4,001,2024-11-28_10h06.48.563,untitled,2024.1.5,None,2024-11-28 10h07.01.094002 +0530,
square.png,you,1,M,,,,,,,,,14,1,57,0,,,,,,,,,257.8122038000729,,,,,,,,,,,,,,,,,,,,,,,,,,,,,,,,,,257.7961433000164,257.8122038000729,258.295913000009,258.295913000009,258.295913000009,258.295913000009,258.3123454999877,258.59597030002624,258.59597030002624,258.59597030002624,,258.9469507000176,m,258.94738300004974,258.96284619998187,259.96320740005467,259.9470617000479,0.6492855000542477,None,,,,,,,,,,,,,,,,,,,,,,,,,,,,,,,,,,,,,,,,,,,,,,,,,,,,,,,,,,,,,,,,,,,,,,,,,,,,,,,,,,,,B_4,001,2024-11-28_10h06.48.563,untitled,2024.1.5,None,2024-11-28 10h07.01.094002 +0530,
triangle.png,you,0,Z,,,,,,,,,14,2,58,3,,,,,,,,,259.96320740005467,,,,,,,,,,,,,,,,,,,,,,,,,,,,,,,,,,259.94741090002935,259.96320740005467,260.44689400005154,260.44689400005154,260.44689400005154,260.44689400005154,260.4634727999801,260.7470316999825,260.7470316999825,260.7470316999825,,261.5147727000294,z,261.5152036000509,261.5305365000386,262.53133450006135,262.5148438999895,1.0669974000193179,None,,,,,,,,,,,,,,,,,,,,,,,,,,,,,,,,,,,,,,,,,,,,,,,,,,,,,,,,,,,,,,,,,,,,,,,,,,,,,,,,,,,,B_4,001,2024-11-28_10h06.48.563,untitled,2024.1.5,None,2024-11-28 10h07.01.094002 +0530,
triangle.png,stranger,1,M,,,,,,,,,14,3,59,1,,,,,,,,,262.53133450006135,,,,,,,,,,,,,,,,,,,,,,,,,,,,,,,,,,262.5151886000531,262.53133450006135,263.0151011000853,263.0151011000853,263.0151011000853,263.0151011000853,263.0317057000939,263.3149256000761,263.3149256000761,263.3149256000761,,263.715798899997,m,263.7162215000717,263.7320803999901,264.7322671000147,264.7161816000007,0.699371499940753,None,,,,,,,,,,,,,,,,,,,,,,,,,,,,,,,,,,,,,,,,,,,,,,,,,,,,,,,,,,,,,,,,,,,,,,,,,,,,,,,,,,,,B_4,001,2024-11-28_10h06.48.563,untitled,2024.1.5,None,2024-11-28 10h07.01.094002 +0530,
triangle.png,stranger,1,M,,,,,,,,,15,0,60,1,,,,,,,,,264.7322671000147,,,,,,,,,,,,,,,,,,,,,,,,,,,,,,,,,,264.7165387000423,264.7322671000147,265.216017400031,265.216017400031,265.216017400031,265.216017400031,265.23262770008296,265.51601430005394,265.51601430005394,265.51601430005394,,265.9671394000761,m,265.9675757000223,265.98297720006667,266.98343030002434,266.9672632000875,0.7382879999931902,None,,,,,,,,,,,,,,,,,,,,,,,,,,,,,,,,,,,,,,,,,,,,,,,,,,,,,,,,,,,,,,,,,,,,,,,,,,,,,,,,,,,,B_4,001,2024-11-28_10h06.48.563,untitled,2024.1.5,None,2024-11-28 10h07.01.094002 +0530,
square.png,stranger,0,Z,,,,,,,,,15,1,61,2,,,,,,,,,266.98343030002434,,,,,,,,,,,,,,,,,,,,,,,,,,,,,,,,,,266.96761200006586,266.98343030002434,267.4674245000351,267.4674245000351,267.4674245000351,267.4674245000351,267.48404140002094,267.7671179000754,267.7671179000754,267.7671179000754,,268.1182276000036,z,268.1186617000494,268.13400249998085,269.13459740008693,269.11857520008925,0.6386949999723583,None,,,,,,,,,,,,,,,,,,,,,,,,,,,,,,,,,,,,,,,,,,,,,,,,,,,,,,,,,,,,,,,,,,,,,,,,,,,,,,,,,,,,B_4,001,2024-11-28_10h06.48.563,untitled,2024.1.5,None,2024-11-28 10h07.01.094002 +0530,
square.png,you,1,M,,,,,,,,,15,2,62,0,,,,,,,,,269.13459740008693,,,,,,,,,,,,,,,,,,,,,,,,,,,,,,,,,,269.11892080004327,269.13459740008693,269.6183306000894,269.6183306000894,269.6183306000894,269.6183306000894,269.6351123000495,269.9180462000659,269.9180462000659,269.9180462000659,,270.2527379000094,m,270.25316490000114,270.26860160008073,271.2690249000443,271.2526916000061,0.6269226999720559,None,,,,,,,,,,,,,,,,,,,,,,,,,,,,,,,,,,,,,,,,,,,,,,,,,,,,,,,,,,,,,,,,,,,,,,,,,,,,,,,,,,,,B_4,001,2024-11-28_10h06.48.563,untitled,2024.1.5,None,2024-11-28 10h07.01.094002 +0530,
triangle.png,you,0,Z,,,,,,,,,15,3,63,3,,,,,,,,,271.2690249000443,,,,,,,,,,,,,,,,,,,,,,,,,,,,,,,,,,271.25304350000806,271.2690249000443,271.7527612000704,271.7527612000704,271.7527612000704,271.7527612000704,271.7695419000229,272.05284660006873,272.05284660006873,272.05284660006873,,272.7371631000424,z,272.7375930000562,272.7531836000271,273.7537718000822,273.7374912999803,0.9775248999940231,None,,,,,,,,,,,,,,,,,,,,,,,,,,,,,,,,,,,,,,,,,,,,,,,,,,,,,,,,,,,,,,,,,,,,,,,,,,,,,,,,,,,,B_4,001,2024-11-28_10h06.48.563,untitled,2024.1.5,None,2024-11-28 10h07.01.094002 +0530,
triangle.png,you,0,Z,,,,,,,,,16,0,64,3,,,,,,,,,273.7537718000822,,,,,,,,,,,,,,,,,,,,,,,,,,,,,,,,,,273.73784160008654,273.7537718000822,274.23704959999304,274.23704959999304,274.23704959999304,274.23704959999304,274.2537014000118,274.53732760006096,274.53732760006096,274.53732760006096,275.33771820005495,275.32163530006073,None,275.32182459998876,275.33771820005495,276.338210200076,276.3223647000268,,,,,,,,,,,,,,,,,,,,,,,,,,,,,,,,,,,,,,,,,,,,,,,,,,,,,,,,,,,,,,,,,,,,,,,,,,,,,,,,,,,,,,B_4,001,2024-11-28_10h06.48.563,untitled,2024.1.5,None,2024-11-28 10h07.01.094002 +0530,
square.png,you,1,M,,,,,,,,,16,1,65,0,,,,,,,,,276.338210200076,,,,,,,,,,,,,,,,,,,,,,,,,,,,,,,,,,276.32271440001205,276.338210200076,276.8388381000841,276.8388381000841,276.8388381000841,276.8388381000841,276.8388381000841,277.13872919999994,277.13872919999994,277.13872919999994,,277.47316870000213,m,277.4735936000943,277.4888592000352,278.48940840002615,278.4733508999925,0.6239654999226332,None,,,,,,,,,,,,,,,,,,,,,,,,,,,,,,,,,,,,,,,,,,,,,,,,,,,,,,,,,,,,,,,,,,,,,,,,,,,,,,,,,,,,B_4,001,2024-11-28_10h06.48.563,untitled,2024.1.5,None,2024-11-28 10h07.01.094002 +0530,
triangle.png,stranger,1,M,,,,,,,,,16,2,66,1,,,,,,,,,278.48940840002615,,,,,,,,,,,,,,,,,,,,,,,,,,,,,,,,,,278.47369700006675,278.48940840002615,278.9731313000666,278.9731313000666,278.9731313000666,278.9731313000666,278.9896712000482,279.2731879000785,279.2731879000785,279.2731879000785,,279.6574247999815,m,279.6578503000783,279.6733329000417,280.6738299999852,280.65756810002495,0.6760902999667451,None,,,,,,,,,,,,,,,,,,,,,,,,,,,,,,,,,,,,,,,,,,,,,,,,,,,,,,,,,,,,,,,,,,,,,,,,,,,,,,,,,,,,B_4,001,2024-11-28_10h06.48.563,untitled,2024.1.5,None,2024-11-28 10h07.01.094002 +0530,
square.png,stranger,0,Z,,,,,,,,,16,3,67,2,,,,,,,,,280.6738299999852,,,,,,,,,,,,,,,,,,,,,,,,,,,,,,,,,,280.65791870001704,280.6738299999852,281.1576159000397,281.1576159000397,281.1576159000397,281.1576159000397,281.17429160000756,281.4578579000663,281.4578579000663,281.4578579000663,,281.8917810000712,z,281.89222230005544,281.9078828000929,282.9084921000758,282.89206049998756,0.7244130000472069,None,,,,,,,,,,,,,,,,,,,,,,,,,,,,,,,,,,,,,,,,,,,,,,,,,,,,,,,,,,,,,,,,,,,,,,,,,,,,,,,,,,,,B_4,001,2024-11-28_10h06.48.563,untitled,2024.1.5,None,2024-11-28 10h07.01.094002 +0530,
square.png,stranger,0,Z,,,,,,,,,17,0,68,2,,,,,,,,,282.9084921000758,,,,,,,,,,,,,,,,,,,,,,,,,,,,,,,,,,282.8924483000301,282.9084921000758,283.39219899999443,283.39219899999443,283.39219899999443,283.39219899999443,283.4087607000256,283.6921525000362,283.6921525000362,283.6921525000362,284.4925433000317,284.47617400006857,None,284.4763651000103,284.4925433000317,285.493141700048,285.4768720000284,,,,,,,,,,,,,,,,,,,,,,,,,,,,,,,,,,,,,,,,,,,,,,,,,,,,,,,,,,,,,,,,,,,,,,,,,,,,,,,,,,,,,,B_4,001,2024-11-28_10h06.48.563,untitled,2024.1.5,None,2024-11-28 10h07.01.094002 +0530,
triangle.png,you,0,Z,,,,,,,,,17,1,69,3,,,,,,,,,285.493141700048,,,,,,,,,,,,,,,,,,,,,,,,,,,,,,,,,,285.4772220000159,285.493141700048,285.9935244000517,285.9935244000517,285.9935244000517,285.9935244000517,285.9935244000517,286.29355569998734,286.29355569998734,286.29355569998734,,286.64432080008555,m,286.6447476000758,286.66047000000253,287.6607976000523,287.644619800034,0.6492729999590665,None,,,,,,,,,,,,,,,,,,,,,,,,,,,,,,,,,,,,,,,,,,,,,,,,,,,,,,,,,,,,,,,,,,,,,,,,,,,,,,,,,,,,B_4,001,2024-11-28_10h06.48.563,untitled,2024.1.5,None,2024-11-28 10h07.01.094002 +0530,
triangle.png,stranger,1,M,,,,,,,,,17,2,70,1,,,,,,,,,287.6607976000523,,,,,,,,,,,,,,,,,,,,,,,,,,,,,,,,,,287.644972100039,287.6607976000523,288.14445460005663,288.14445460005663,288.14445460005663,288.14445460005663,288.1610040999949,288.4444026000565,288.4444026000565,288.4444026000565,,288.79557369998656,m,288.7960005000932,288.81132910004817,289.81183520006016,289.79574349999893,0.6415466000325978,None,,,,,,,,,,,,,,,,,,,,,,,,,,,,,,,,,,,,,,,,,,,,,,,,,,,,,,,,,,,,,,,,,,,,,,,,,,,,,,,,,,,,B_4,001,2024-11-28_10h06.48.563,untitled,2024.1.5,None,2024-11-28 10h07.01.094002 +0530,
square.png,you,1,M,,,,,,,,,17,3,71,0,,,,,,,,,289.81183520006016,,,,,,,,,,,,,,,,,,,,,,,,,,,,,,,,,,289.7960975000169,289.81183520006016,290.29553030000534,290.29553030000534,290.29553030000534,290.29553030000534,290.3123891000869,290.59556460008025,290.59556460008025,290.59556460008025,,290.89646800002083,z,290.89689610002097,290.9125123000704,291.9128952000756,291.8971289000474,0.5977838999824598,None,,,,,,,,,,,,,,,,,,,,,,,,,,,,,,,,,,,,,,,,,,,,,,,,,,,,,,,,,,,,,,,,,,,,,,,,,,,,,,,,,,,,B_4,001,2024-11-28_10h06.48.563,untitled,2024.1.5,None,2024-11-28 10h07.01.094002 +0530,
triangle.png,you,0,Z,,,,,,,,,18,0,72,3,,,,,,,,,291.9128952000756,,,,,,,,,,,,,,,,,,,,,,,,,,,,,,,,,,291.89748500008136,291.9128952000756,292.39664880000055,292.39664880000055,292.39664880000055,292.39664880000055,292.41339100000914,292.69666760007385,292.69666760007385,292.69666760007385,,292.9644031000789,m,292.9648359999992,292.98015610000584,293.98071180004627,293.96470240002964,0.5533306000288576,None,,,,,,,,,,,,,,,,,,,,,,,,,,,,,,,,,,,,,,,,,,,,,,,,,,,,,,,,,,,,,,,,,,,,,,,,,,,,,,,,,,,,B_4,001,2024-11-28_10h06.48.563,untitled,2024.1.5,None,2024-11-28 10h07.01.094002 +0530,
triangle.png,stranger,1,M,,,,,,,,,18,1,73,1,,,,,,,,,293.98071180004627,,,,,,,,,,,,,,,,,,,,,,,,,,,,,,,,,,293.965053300024,293.98071180004627,294.46475650009234,294.46475650009234,294.46475650009234,294.46475650009234,294.4809947999893,294.76441760000307,294.76441760000307,294.76441760000307,,295.1988706000848,m,295.1992964000674,295.21455700008664,296.2153746000258,296.19904740003403,0.7245522999437526,None,,,,,,,,,,,,,,,,,,,,,,,,,,,,,,,,,,,,,,,,,,,,,,,,,,,,,,,,,,,,,,,,,,,,,,,,,,,,,,,,,,,,B_4,001,2024-11-28_10h06.48.563,untitled,2024.1.5,None,2024-11-28 10h07.01.094002 +0530,
square.png,stranger,0,Z,,,,,,,,,18,2,74,2,,,,,,,,,296.2153746000258,,,,,,,,,,,,,,,,,,,,,,,,,,,,,,,,,,296.19940180005506,296.2153746000258,296.6988878999837,296.6988878999837,296.6988878999837,296.6988878999837,296.71566300000995,296.99896160000935,296.99896160000935,296.99896160000935,,297.48340670007747,z,297.4838519000914,297.49934580002446,298.4995824000798,298.4835199000081,0.7710440000519156,None,,,,,,,,,,,,,,,,,,,,,,,,,,,,,,,,,,,,,,,,,,,,,,,,,,,,,,,,,,,,,,,,,,,,,,,,,,,,,,,,,,,,B_4,001,2024-11-28_10h06.48.563,untitled,2024.1.5,None,2024-11-28 10h07.01.094002 +0530,
square.png,you,1,M,,,,,,,,,18,3,75,0,,,,,,,,,298.4995824000798,,,,,,,,,,,,,,,,,,,,,,,,,,,,,,,,,,298.48387170000933,298.4995824000798,298.98322180006653,298.98322180006653,298.98322180006653,298.98322180006653,299.00005060003605,299.2835925000254,299.2835925000254,299.2835925000254,,299.6511487000389,m,299.6515733000124,299.66715550003573,300.667578099994,300.6514008999802,0.6666398999514058,None,,,,,,,,,,,,,,,,,,,,,,,,,,,,,,,,,,,,,,,,,,,,,,,,,,,,,,,,,,,,,,,,,,,,,,,,,,,,,,,,,,,,B_4,001,2024-11-28_10h06.48.563,untitled,2024.1.5,None,2024-11-28 10h07.01.094002 +0530,
square.png,stranger,0,Z,,,,,,,,,19,0,76,2,,,,,,,,,300.667578099994,,,,,,,,,,,,,,,,,,,,,,,,,,,,,,,,,,300.65175070008263,300.667578099994,301.1510933000827,301.1510933000827,301.1510933000827,301.1510933000827,301.16792700008955,301.4512761000078,301.4512761000078,301.4512761000078,,301.81887379998807,z,301.8193007999798,301.8348599000601,302.83545120002236,302.8190712000942,0.6633721999824047,None,,,,,,,,,,,,,,,,,,,,,,,,,,,,,,,,,,,,,,,,,,,,,,,,,,,,,,,,,,,,,,,,,,,,,,,,,,,,,,,,,,,,B_4,001,2024-11-28_10h06.48.563,untitled,2024.1.5,None,2024-11-28 10h07.01.094002 +0530,
triangle.png,stranger,1,M,,,,,,,,,19,1,77,1,,,,,,,,,302.83545120002236,,,,,,,,,,,,,,,,,,,,,,,,,,,,,,,,,,302.81942190008704,302.83545120002236,303.3189783000853,303.3189783000853,303.3189783000853,303.3189783000853,303.3355663000839,303.619106200058,303.619106200058,303.619106200058,,304.20337660005316,m,304.20380560006015,304.2194349000929,305.21971159998793,305.20365420007147,0.8701272999169305,None,,,,,,,,,,,,,,,,,,,,,,,,,,,,,,,,,,,,,,,,,,,,,,,,,,,,,,,,,,,,,,,,,,,,,,,,,,,,,,,,,,,,B_4,001,2024-11-28_10h06.48.563,untitled,2024.1.5,None,2024-11-28 10h07.01.094002 +0530,
square.png,you,1,M,,,,,,,,,19,2,78,0,,,,,,,,,305.21971159998793,,,,,,,,,,,,,,,,,,,,,,,,,,,,,,,,,,305.2040225000819,305.21971159998793,305.7036601,305.7036601,305.7036601,305.7036601,305.72003680001944,306.0034804000752,306.0034804000752,306.0034804000752,,306.3210551000666,m,306.3214817000553,306.33722790004686,307.3377825000789,307.3212114000926,0.6107888000551611,None,,,,,,,,,,,,,,,,,,,,,,,,,,,,,,,,,,,,,,,,,,,,,,,,,,,,,,,,,,,,,,,,,,,,,,,,,,,,,,,,,,,,B_4,001,2024-11-28_10h06.48.563,untitled,2024.1.5,None,2024-11-28 10h07.01.094002 +0530,
triangle.png,you,0,Z,,,,,,,,,19,3,79,3,,,,,,,,,307.3377825000789,,,,,,,,,,,,,,,,,,,,,,,,,,,,,,,,,,307.3215546000283,307.3377825000789,307.8214605000103,307.8214605000103,307.8214605000103,307.8214605000103,307.8379807000747,308.1213959000306,308.1213959000306,308.1213959000306,,308.85573180008214,z,308.85615760006476,308.87177870003507,309.8723753000377,309.8562842999818,1.028433799976483,None,,,,,,,,,,,,,,,,,,,,,,,,,,,,,,,,,,,,,,,,,,,,,,,,,,,,,,,,,,,,,,,,,,,,,,,,,,,,,,,,,,,,B_4,001,2024-11-28_10h06.48.563,untitled,2024.1.5,None,2024-11-28 10h07.01.094002 +0530,
square.png,you,1,M,,,,,,,,,20,0,80,0,,,,,,,,,309.8723753000377,,,,,,,,,,,,,,,,,,,,,,,,,,,,,,,,,,309.85664120002184,309.8723753000377,310.3562188000651,310.3562188000651,310.3562188000651,310.3562188000651,310.3724765999941,310.65608009998687,310.65608009998687,310.65608009998687,,311.2904178000754,m,311.2908444000641,311.3062127000885,312.3066862000851,312.29054900002666,0.9260984999127686,None,,,,,,,,,,,,,,,,,,,,,,,,,,,,,,,,,,,,,,,,,,,,,,,,,,,,,,,,,,,,,,,,,,,,,,,,,,,,,,,,,,,,B_4,001,2024-11-28_10h06.48.563,untitled,2024.1.5,None,2024-11-28 10h07.01.094002 +0530,
triangle.png,you,0,Z,,,,,,,,,20,1,81,3,,,,,,,,,312.3066862000851,,,,,,,,,,,,,,,,,,,,,,,,,,,,,,,,,,312.2908963999944,312.3066862000851,312.7905396000715,312.7905396000715,312.7905396000715,312.7905396000715,312.80700040003285,313.0903781000525,313.0903781000525,313.0903781000525,,313.4914874000242,z,313.49191109999083,313.50758490001317,314.50809390004724,314.4917876999825,0.6993596999673173,None,,,,,,,,,,,,,,,,,,,,,,,,,,,,,,,,,,,,,,,,,,,,,,,,,,,,,,,,,,,,,,,,,,,,,,,,,,,,,,,,,,,,B_4,001,2024-11-28_10h06.48.563,untitled,2024.1.5,None,2024-11-28 10h07.01.094002 +0530,
square.png,stranger,0,Z,,,,,,,,,20,2,82,2,,,,,,,,,314.50809390004724,,,,,,,,,,,,,,,,,,,,,,,,,,,,,,,,,,314.49213720008265,314.50809390004724,314.99158660008106,314.99158660008106,314.99158660008106,314.99158660008106,315.0084702000022,315.29187960003037,315.29187960003037,315.29187960003037,,315.7258005000185,z,315.7262365000788,315.7420098000439,316.7425014000619,316.72613880003337,0.7215236999327317,None,,,,,,,,,,,,,,,,,,,,,,,,,,,,,,,,,,,,,,,,,,,,,,,,,,,,,,,,,,,,,,,,,,,,,,,,,,,,,,,,,,,,B_4,001,2024-11-28_10h06.48.563,untitled,2024.1.5,None,2024-11-28 10h07.01.094002 +0530,
triangle.png,stranger,1,M,,,,,,,,,20,3,83,1,,,,,,,,,316.7425014000619,,,,,,,,,,,,,,,,,,,,,,,,,,,,,,,,,,316.7264880000148,316.7425014000619,317.22598210000433,317.22598210000433,317.22598210000433,317.22598210000433,317.24267609999515,317.5261719999835,317.5261719999835,317.5261719999835,,318.26066280005034,m,318.2610846000025,318.2766260000644,319.27703710005153,319.26106040005106,1.0231338000157848,None,,,,,,,,,,,,,,,,,,,,,,,,,,,,,,,,,,,,,,,,,,,,,,,,,,,,,,,,,,,,,,,,,,,,,,,,,,,,,,,,,,,,B_4,001,2024-11-28_10h06.48.563,untitled,2024.1.5,None,2024-11-28 10h07.01.094002 +0530,
triangle.png,stranger,1,M,,,,,,,,,21,0,84,1,,,,,,,,,319.27703710005153,,,,,,,,,,,,,,,,,,,,,,,,,,,,,,,,,,319.26141070004087,319.27703710005153,319.7607033000095,319.7607033000095,319.7607033000095,319.7607033000095,319.7773206999991,320.06078040006105,320.06078040006105,320.06078040006105,,320.66153719997965,z,320.6619692000095,320.6775880000787,321.67839370004367,321.6619766000658,0.8928731000050902,None,,,,,,,,,,,,,,,,,,,,,,,,,,,,,,,,,,,,,,,,,,,,,,,,,,,,,,,,,,,,,,,,,,,,,,,,,,,,,,,,,,,,B_4,001,2024-11-28_10h06.48.563,untitled,2024.1.5,None,2024-11-28 10h07.01.094002 +0530,
square.png,stranger,0,Z,,,,,,,,,21,1,85,2,,,,,,,,,321.67839370004367,,,,,,,,,,,,,,,,,,,,,,,,,,,,,,,,,,321.66233180009294,321.67839370004367,322.162107000011,322.162107000011,322.162107000011,322.162107000011,322.1785590000218,322.46214950003196,322.46214950003196,322.46214950003196,323.262569500017,323.2461615999928,None,323.24635180004407,323.262569500017,324.2629919000901,324.2467861000914,,,,,,,,,,,,,,,,,,,,,,,,,,,,,,,,,,,,,,,,,,,,,,,,,,,,,,,,,,,,,,,,,,,,,,,,,,,,,,,,,,,,,,B_4,001,2024-11-28_10h06.48.563,untitled,2024.1.5,None,2024-11-28 10h07.01.094002 +0530,
square.png,you,1,M,,,,,,,,,21,2,86,0,,,,,,,,,324.2629919000901,,,,,,,,,,,,,,,,,,,,,,,,,,,,,,,,,,324.2471381999785,324.2629919000901,324.7634895000374,324.7634895000374,324.7634895000374,324.7634895000374,324.7634895000374,325.0635342000751,325.0635342000751,325.0635342000751,,325.43090310005937,m,325.43132820003666,325.44690430001356,326.44743210007437,326.4312267000787,0.6548733999952674,None,,,,,,,,,,,,,,,,,,,,,,,,,,,,,,,,,,,,,,,,,,,,,,,,,,,,,,,,,,,,,,,,,,,,,,,,,,,,,,,,,,,,B_4,001,2024-11-28_10h06.48.563,untitled,2024.1.5,None,2024-11-28 10h07.01.094002 +0530,
triangle.png,you,0,Z,,,,,,,,,21,3,87,3,,,,,,,,,326.44743210007437,,,,,,,,,,,,,,,,,,,,,,,,,,,,,,,,,,326.43157350004185,326.44743210007437,326.9312073000474,326.9312073000474,326.9312073000474,326.9312073000474,326.947822600021,327.23101820005104,327.23101820005104,327.23101820005104,,327.7821436000522,z,327.7825745000737,327.7982564000413,328.79847560008056,328.7824974000687,0.839354099938646,None,,,,,,,,,,,,,,,,,,,,,,,,,,,,,,,,,,,,,,,,,,,,,,,,,,,,,,,,,,,,,,,,,,,,,,,,,,,,,,,,,,,,B_4,001,2024-11-28_10h06.48.563,untitled,2024.1.5,None,2024-11-28 10h07.01.094002 +0530,
square.png,you,1,M,,,,,,,,,22,0,88,0,,,,,,,,,328.79847560008056,,,,,,,,,,,,,,,,,,,,,,,,,,,,,,,,,,328.78284550004173,328.79847560008056,329.282452100073,329.282452100073,329.282452100073,329.282452100073,329.2991575000342,329.5824124000501,329.5824124000501,329.5824124000501,,330.3500992000336,m,330.35052570002154,330.36609240004327,331.3667563000927,331.3505307000596,1.0646240999922156,None,,,,,,,,,,,,,,,,,,,,,,,,,,,,,,,,,,,,,,,,,,,,,,,,,,,,,,,,,,,,,,,,,,,,,,,,,,,,,,,,,,,,B_4,001,2024-11-28_10h06.48.563,untitled,2024.1.5,None,2024-11-28 10h07.01.094002 +0530,
square.png,stranger,0,Z,,,,,,,,,22,1,89,2,,,,,,,,,331.3667563000927,,,,,,,,,,,,,,,,,,,,,,,,,,,,,,,,,,331.35087620001286,331.3667563000927,331.85034640005324,331.85034640005324,331.85034640005324,331.85034640005324,331.8670194000006,332.15035450004507,332.15035450004507,332.15035450004507,,332.6013198000146,z,332.6019064000575,332.617616500007,333.6176271000877,333.60174399998505,0.7439869999652728,None,,,,,,,,,,,,,,,,,,,,,,,,,,,,,,,,,,,,,,,,,,,,,,,,,,,,,,,,,,,,,,,,,,,,,,,,,,,,,,,,,,,,B_4,001,2024-11-28_10h06.48.563,untitled,2024.1.5,None,2024-11-28 10h07.01.094002 +0530,
triangle.png,you,0,Z,,,,,,,,,22,2,90,3,,,,,,,,,333.6176271000877,,,,,,,,,,,,,,,,,,,,,,,,,,,,,,,,,,333.60209950001445,333.6176271000877,334.1013134000823,334.1013134000823,334.1013134000823,334.1013134000823,334.1179962999886,334.4014361000154,334.4014361000154,334.4014361000154,,334.935742200003,m,334.9361728000222,334.9517033000011,335.9522593000438,335.9362516000401,0.82074090000242,None,,,,,,,,,,,,,,,,,,,,,,,,,,,,,,,,,,,,,,,,,,,,,,,,,,,,,,,,,,,,,,,,,,,,,,,,,,,,,,,,,,,,B_4,001,2024-11-28_10h06.48.563,untitled,2024.1.5,None,2024-11-28 10h07.01.094002 +0530,
triangle.png,stranger,1,M,,,,,,,,,22,3,91,1,,,,,,,,,335.9522593000438,,,,,,,,,,,,,,,,,,,,,,,,,,,,,,,,,,335.93660490005277,335.9522593000438,336.4361963000847,336.4361963000847,336.4361963000847,336.4361963000847,336.45257820002735,336.7359595000744,336.7359595000744,336.7359595000744,337.536600499996,337.52027079998516,None,337.5204604000319,337.536600499996,338.5370141000021,338.5209155000048,,,,,,,,,,,,,,,,,,,,,,,,,,,,,,,,,,,,,,,,,,,,,,,,,,,,,,,,,,,,,,,,,,,,,,,,,,,,,,,,,,,,,,B_4,001,2024-11-28_10h06.48.563,untitled,2024.1.5,None,2024-11-28 10h07.01.094002 +0530,
square.png,stranger,0,Z,,,,,,,,,23,0,92,2,,,,,,,,,338.5370141000021,,,,,,,,,,,,,,,,,,,,,,,,,,,,,,,,,,338.52127240004484,338.5370141000021,339.03732040000614,339.03732040000614,339.03732040000614,339.03732040000614,339.03732040000614,339.33744370006025,339.33744370006025,339.33744370006025,,339.75497550005093,z,339.7554058000678,339.7709881000919,340.77131920005195,340.75516739999875,0.7162784000393003,None,,,,,,,,,,,,,,,,,,,,,,,,,,,,,,,,,,,,,,,,,,,,,,,,,,,,,,,,,,,,,,,,,,,,,,,,,,,,,,,,,,,,B_4,001,2024-11-28_10h06.48.563,untitled,2024.1.5,None,2024-11-28 10h07.01.094002 +0530,
square.png,you,1,M,,,,,,,,,23,1,93,0,,,,,,,,,340.77131920005195,,,,,,,,,,,,,,,,,,,,,,,,,,,,,,,,,,340.7555167999817,340.77131920005195,341.2551275000442,341.2551275000442,341.2551275000442,341.2551275000442,341.2718958000187,341.5551217000466,341.5551217000466,341.5551217000466,,341.98939180001616,m,341.9898339000065,342.0054537000833,343.0060293000424,342.98976750008296,0.731217399938032,None,,,,,,,,,,,,,,,,,,,,,,,,,,,,,,,,,,,,,,,,,,,,,,,,,,,,,,,,,,,,,,,,,,,,,,,,,,,,,,,,,,,,B_4,001,2024-11-28_10h06.48.563,untitled,2024.1.5,None,2024-11-28 10h07.01.094002 +0530,
triangle.png,you,0,Z,,,,,,,,,23,2,94,3,,,,,,,,,343.0060293000424,,,,,,,,,,,,,,,,,,,,,,,,,,,,,,,,,,342.9901244000066,343.0060293000424,343.48975980002433,343.48975980002433,343.48975980002433,343.48975980002433,343.5063323000213,343.78955890005454,343.78955890005454,343.78955890005454,,344.29076320002787,z,344.2911910000257,344.3067115000449,345.30698120000307,345.2909212000668,0.7970173000358045,None,,,,,,,,,,,,,,,,,,,,,,,,,,,,,,,,,,,,,,,,,,,,,,,,,,,,,,,,,,,,,,,,,,,,,,,,,,,,,,,,,,,,B_4,001,2024-11-28_10h06.48.563,untitled,2024.1.5,None,2024-11-28 10h07.01.094002 +0530,
triangle.png,stranger,1,M,,,,,,,,,23,3,95,1,,,,,,,,,345.30698120000307,,,,,,,,,,,,,,,,,,,,,,,,,,,,,,,,,,345.29127430007793,345.30698120000307,345.7907086000778,345.7907086000778,345.7907086000778,345.7907086000778,345.8073464999907,346.0909294000594,346.0909294000594,346.0909294000594,346.8911931000184,346.8750341000268,None,346.87522470008116,346.8911931000184,347.8918881000718,347.87543400004506,,,,,,,,,,,,,,,,,,,,,,,,,,,,,,,,,,,,,,,,,,,,,,,,,,,,,,,,,,,,,,,,,,,,,,,,,,,,,,,,,,,,,,B_4,001,2024-11-28_10h06.48.563,untitled,2024.1.5,None,2024-11-28 10h07.01.094002 +0530,
triangle.png,you,0,Z,,,,,,,,,24,0,96,3,,,,,,,,,347.8918881000718,,,,,,,,,,,,,,,,,,,,,,,,,,,,,,,,,,347.87578150001355,347.8918881000718,348.3920780000044,348.3920780000044,348.3920780000044,348.3920780000044,348.3920780000044,348.69224520004354,348.69224520004354,348.69224520004354,,349.15988890000153,z,349.1603174000047,349.1759901000187,350.17615810001735,350.160034700064,0.7578065999550745,None,,,,,,,,,,,,,,,,,,,,,,,,,,,,,,,,,,,,,,,,,,,,,,,,,,,,,,,,,,,,,,,,,,,,,,,,,,,,,,,,,,,,B_4,001,2024-11-28_10h06.48.563,untitled,2024.1.5,None,2024-11-28 10h07.01.094002 +0530,
square.png,stranger,0,Z,,,,,,,,,24,1,97,2,,,,,,,,,350.17615810001735,,,,,,,,,,,,,,,,,,,,,,,,,,,,,,,,,,350.1603783000028,350.17615810001735,350.6601650000084,350.6601650000084,350.6601650000084,350.6601650000084,350.67646940005943,350.96012140007224,350.96012140007224,350.96012140007224,,351.51101700006984,z,351.5114427000517,351.52690120006446,352.5276543000946,352.5113524000626,0.8340874999994412,None,,,,,,,,,,,,,,,,,,,,,,,,,,,,,,,,,,,,,,,,,,,,,,,,,,,,,,,,,,,,,,,,,,,,,,,,,,,,,,,,,,,,B_4,001,2024-11-28_10h06.48.563,untitled,2024.1.5,None,2024-11-28 10h07.01.094002 +0530,
square.png,you,1,M,,,,,,,,,24,2,98,0,,,,,,,,,352.5276543000946,,,,,,,,,,,,,,,,,,,,,,,,,,,,,,,,,,352.5117009000387,352.5276543000946,353.01107020000927,353.01107020000927,353.01107020000927,353.01107020000927,353.0277775999857,353.31102130003273,353.31102130003273,353.31102130003273,,353.67876450007316,m,353.67919430008624,353.6948768000584,354.6952595000621,354.67917670006864,0.6620474000228569,None,,,,,,,,,,,,,,,,,,,,,,,,,,,,,,,,,,,,,,,,,,,,,,,,,,,,,,,,,,,,,,,,,,,,,,,,,,,,,,,,,,,,B_4,001,2024-11-28_10h06.48.563,untitled,2024.1.5,None,2024-11-28 10h07.01.094002 +0530,
triangle.png,stranger,1,M,,,,,,,,,24,3,99,1,,,,,,,,,354.6952595000621,,,,,,,,,,,,,,,,,,,,,,,,,,,,,,,,,,354.679520900012,354.6952595000621,355.17905969999265,355.17905969999265,355.17905969999265,355.17905969999265,355.19541070004925,355.4788618000457,355.4788618000457,355.4788618000457,,355.9301056000404,m,355.9305323000299,355.94592480000574,356.94642639998347,356.9303049000446,0.735487800091505,None,,,,,,,,,,,,,,,,,,,,,,,,,,,,,,,,,,,,,,,,,,,,,,,,,,,,,,,,,,,,,,,,,,,,,,,,,,,,,,,,,,,,B_4,001,2024-11-28_10h06.48.563,untitled,2024.1.5,None,2024-11-28 10h07.01.094002 +0530,
triangle.png,you,0,Z,,,,,,,,,25,0,100,3,,,,,,,,,356.94642639998347,,,,,,,,,,,,,,,,,,,,,,,,,,,,,,,,,,356.93065400002524,356.94642639998347,357.43031660001725,357.43031660001725,357.43031660001725,357.43031660001725,357.4466457000235,357.7300445000874,357.7300445000874,357.7300445000874,,358.0474750000285,z,358.04791289998684,358.0636198000284,359.06425070005935,359.04780190007295,0.608065800042823,None,,,,,,,,,,,,,,,,,,,,,,,,,,,,,,,,,,,,,,,,,,,,,,,,,,,,,,,,,,,,,,,,,,,,,,,,,,,,,,,,,,,,B_4,001,2024-11-28_10h06.48.563,untitled,2024.1.5,None,2024-11-28 10h07.01.094002 +0530,
square.png,you,1,M,,,,,,,,,25,1,101,0,,,,,,,,,359.06425070005935,,,,,,,,,,,,,,,,,,,,,,,,,,,,,,,,,,359.0481480000308,359.06425070005935,359.54798790009227,359.54798790009227,359.54798790009227,359.54798790009227,359.5643967000069,359.84804830001667,359.84804830001667,359.84804830001667,,360.4824200000148,z,360.4828423000872,360.4982024000492,361.49903639999684,361.48241500009317,0.9179077999433503,None,,,,,,,,,,,,,,,,,,,,,,,,,,,,,,,,,,,,,,,,,,,,,,,,,,,,,,,,,,,,,,,,,,,,,,,,,,,,,,,,,,,,B_4,001,2024-11-28_10h06.48.563,untitled,2024.1.5,None,2024-11-28 10h07.01.094002 +0530,
triangle.png,stranger,1,M,,,,,,,,,25,2,102,1,,,,,,,,,361.49903639999684,,,,,,,,,,,,,,,,,,,,,,,,,,,,,,,,,,361.4827649000799,361.49903639999684,361.9823621000396,361.9823621000396,361.9823621000396,361.9823621000396,361.99912930000573,362.2824116999982,362.2824116999982,362.2824116999982,,362.8166732999962,z,362.81716189999133,362.8330664000241,363.833250900032,363.81700200005434,0.8235726000275463,None,,,,,,,,,,,,,,,,,,,,,,,,,,,,,,,,,,,,,,,,,,,,,,,,,,,,,,,,,,,,,,,,,,,,,,,,,,,,,,,,,,,,B_4,001,2024-11-28_10h06.48.563,untitled,2024.1.5,None,2024-11-28 10h07.01.094002 +0530,
square.png,stranger,0,Z,,,,,,,,,25,3,103,2,,,,,,,,,363.833250900032,,,,,,,,,,,,,,,,,,,,,,,,,,,,,,,,,,363.8173483000137,363.833250900032,364.31697970000096,364.31697970000096,364.31697970000096,364.31697970000096,364.3335445000557,364.6170398000395,364.6170398000395,364.6170398000395,,365.36820989998523,z,365.36865750001743,365.38402710005175,366.3844409000594,366.36848960001953,1.0491977999918163,None,,,,,,,,,,,,,,,,,,,,,,,,,,,,,,,,,,,,,,,,,,,,,,,,,,,,,,,,,,,,,,,,,,,,,,,,,,,,,,,,,,,,B_4,001,2024-11-28_10h06.48.563,untitled,2024.1.5,None,2024-11-28 10h07.01.094002 +0530,
square.png,stranger,0,Z,,,,,,,,,26,0,104,2,,,,,,,,,366.3844409000594,,,,,,,,,,,,,,,,,,,,,,,,,,,,,,,,,,366.36883310007397,366.3844409000594,366.8686375999823,366.8686375999823,366.8686375999823,366.8686375999823,366.885074299993,367.16838600009214,367.16838600009214,367.16838600009214,367.9687290000729,367.9524707000237,None,367.9526638999814,367.9687290000729,368.96943290007766,368.952985299984,,,,,,,,,,,,,,,,,,,,,,,,,,,,,,,,,,,,,,,,,,,,,,,,,,,,,,,,,,,,,,,,,,,,,,,,,,,,,,,,,,,,,,B_4,001,2024-11-28_10h06.48.563,untitled,2024.1.5,None,2024-11-28 10h07.01.094002 +0530,
triangle.png,you,0,Z,,,,,,,,,26,1,105,3,,,,,,,,,368.96943290007766,,,,,,,,,,,,,,,,,,,,,,,,,,,,,,,,,,368.95333270006813,368.96943290007766,369.4697052000556,369.4697052000556,369.4697052000556,369.4697052000556,369.4697052000556,369.7696480000159,369.7696480000159,369.7696480000159,,370.32070620008744,z,370.32113870000467,370.3366050000768,371.337302000029,371.3209390999982,0.8489318999927491,None,,,,,,,,,,,,,,,,,,,,,,,,,,,,,,,,,,,,,,,,,,,,,,,,,,,,,,,,,,,,,,,,,,,,,,,,,,,,,,,,,,,,B_4,001,2024-11-28_10h06.48.563,untitled,2024.1.5,None,2024-11-28 10h07.01.094002 +0530,
square.png,you,1,M,,,,,,,,,26,2,106,0,,,,,,,,,371.337302000029,,,,,,,,,,,,,,,,,,,,,,,,,,,,,,,,,,371.32128290005494,371.337302000029,371.820787500008,371.820787500008,371.820787500008,371.820787500008,371.83760249998886,372.1208412999986,372.1208412999986,372.1208412999986,,372.4551397000905,m,372.4555676000891,372.4710343000479,373.4716438000323,373.45548420003615,0.6218273000558838,None,,,,,,,,,,,,,,,,,,,,,,,,,,,,,,,,,,,,,,,,,,,,,,,,,,,,,,,,,,,,,,,,,,,,,,,,,,,,,,,,,,,,B_4,001,2024-11-28_10h06.48.563,untitled,2024.1.5,None,2024-11-28 10h07.01.094002 +0530,
triangle.png,stranger,1,M,,,,,,,,,26,3,107,1,,,,,,,,,373.4716438000323,,,,,,,,,,,,,,,,,,,,,,,,,,,,,,,,,,373.45582979999017,373.4716438000323,373.9553897000151,373.9553897000151,373.9553897000151,373.9553897000151,373.97206519998144,374.2551914000651,374.2551914000651,374.2551914000651,,374.6564953000052,m,374.6569213999901,374.67217110004276,375.67266789998394,375.65654350002296,0.6868892000056803,None,,,,,,,,,,,,,,,,,,,,,,,,,,,,,,,,,,,,,,,,,,,,,,,,,,,,,,,,,,,,,,,,,,,,,,,,,,,,,,,,,,,,B_4,001,2024-11-28_10h06.48.563,untitled,2024.1.5,None,2024-11-28 10h07.01.094002 +0530,
triangle.png,you,0,Z,,,,,,,,,27,0,108,3,,,,,,,,,375.67266789998394,,,,,,,,,,,,,,,,,,,,,,,,,,,,,,,,,,375.6569426000351,375.67266789998394,376.15644809999503,376.15644809999503,376.15644809999503,376.15644809999503,376.17322620004416,376.45641590002924,376.45641590002924,376.45641590002924,,376.82401109999046,z,376.82443040004,376.8399216000689,377.8405451000435,377.8242997000925,0.6543590000364929,None,,,,,,,,,,,,,,,,,,,,,,,,,,,,,,,,,,,,,,,,,,,,,,,,,,,,,,,,,,,,,,,,,,,,,,,,,,,,,,,,,,,,B_4,001,2024-11-28_10h06.48.563,untitled,2024.1.5,None,2024-11-28 10h07.01.094002 +0530,
square.png,stranger,0,Z,,,,,,,,,27,1,109,2,,,,,,,,,377.8405451000435,,,,,,,,,,,,,,,,,,,,,,,,,,,,,,,,,,377.82464350003283,377.8405451000435,378.3241461000871,378.3241461000871,378.3241461000871,378.3241461000871,378.3407589000417,378.6240391000174,378.6240391000174,378.6240391000174,,379.0583068000851,z,379.0587322000647,379.0745438000886,380.0751013000263,380.0589187000878,0.726524000056088,None,,,,,,,,,,,,,,,,,,,,,,,,,,,,,,,,,,,,,,,,,,,,,,,,,,,,,,,,,,,,,,,,,,,,,,,,,,,,,,,,,,,,B_4,001,2024-11-28_10h06.48.563,untitled,2024.1.5,None,2024-11-28 10h07.01.094002 +0530,
square.png,you,1,M,,,,,,,,,27,2,110,0,,,,,,,,,380.0751013000263,,,,,,,,,,,,,,,,,,,,,,,,,,,,,,,,,,380.05926810007077,380.0751013000263,380.55859600007534,380.55859600007534,380.55859600007534,380.55859600007534,380.5754249000456,380.858769100043,380.858769100043,380.858769100043,,381.2598340000259,m,381.26026170002297,381.2757394000655,382.2758826999925,382.2600083000725,0.6920533999800682,None,,,,,,,,,,,,,,,,,,,,,,,,,,,,,,,,,,,,,,,,,,,,,,,,,,,,,,,,,,,,,,,,,,,,,,,,,,,,,,,,,,,,B_4,001,2024-11-28_10h06.48.563,untitled,2024.1.5,None,2024-11-28 10h07.01.094002 +0530,
triangle.png,stranger,1,M,,,,,,,,,27,3,111,1,,,,,,,,,382.2758826999925,,,,,,,,,,,,,,,,,,,,,,,,,,,,,,,,,,382.26036270009354,382.2758826999925,382.7598686000565,382.7598686000565,382.7598686000565,382.7598686000565,382.7766662000213,383.05971340008546,383.05971340008546,383.05971340008546,,383.59429839998484,z,383.5947249000892,383.6100192000158,384.6107255000388,384.5945541000692,0.8213883999269456,None,,,,,,,,,,,,,,,,,,,,,,,,,,,,,,,,,,,,,,,,,,,,,,,,,,,,,,,,,,,,,,,,,,,,,,,,,,,,,,,,,,,,B_4,001,2024-11-28_10h06.48.563,untitled,2024.1.5,None,2024-11-28 10h07.01.094002 +0530,
square.png,stranger,0,Z,,,,,,,,,28,0,112,2,,,,,,,,,384.6107255000388,,,,,,,,,,,,,,,,,,,,,,,,,,,,,,,,,,384.5948967000004,384.6107255000388,385.0942734000273,385.0942734000273,385.0942734000273,385.0942734000273,385.111059900024,385.39448250003625,385.39448250003625,385.39448250003625,,385.9120625000214,z,385.912490000017,385.9280884000473,386.9283439000137,386.9123671000125,0.8043674000073224,None,,,,,,,,,,,,,,,,,,,,,,,,,,,,,,,,,,,,,,,,,,,,,,,,,,,,,,,,,,,,,,,,,,,,,,,,,,,,,,,,,,,,B_4,001,2024-11-28_10h06.48.563,untitled,2024.1.5,None,2024-11-28 10h07.01.094002 +0530,
triangle.png,you,0,Z,,,,,,,,,28,1,113,3,,,,,,,,,386.9283439000137,,,,,,,,,,,,,,,,,,,,,,,,,,,,,,,,,,386.9127246000571,386.9283439000137,387.41209760005586,387.41209760005586,387.41209760005586,387.41209760005586,387.4287044000812,387.71231400000397,387.71231400000397,387.71231400000397,,388.063493499998,m,388.0639383000089,388.07915510004386,389.0797300999984,389.0632992000319,0.6492605999810621,None,,,,,,,,,,,,,,,,,,,,,,,,,,,,,,,,,,,,,,,,,,,,,,,,,,,,,,,,,,,,,,,,,,,,,,,,,,,,,,,,,,,,B_4,001,2024-11-28_10h06.48.563,untitled,2024.1.5,None,2024-11-28 10h07.01.094002 +0530,
triangle.png,stranger,1,M,,,,,,,,,28,2,114,1,,,,,,,,,389.0797300999984,,,,,,,,,,,,,,,,,,,,,,,,,,,,,,,,,,389.0636518000392,389.0797300999984,389.5635587000288,389.5635587000288,389.5635587000288,389.5635587000288,389.58012970001437,389.8632834000746,389.8632834000746,389.8632834000746,,390.2310604000231,m,390.2314876000164,390.2470738000702,391.2473726000171,391.2311854000436,0.6661269000032917,None,,,,,,,,,,,,,,,,,,,,,,,,,,,,,,,,,,,,,,,,,,,,,,,,,,,,,,,,,,,,,,,,,,,,,,,,,,,,,,,,,,,,B_4,001,2024-11-28_10h06.48.563,untitled,2024.1.5,None,2024-11-28 10h07.01.094002 +0530,
square.png,you,1,M,,,,,,,,,28,3,115,0,,,,,,,,,391.2473726000171,,,,,,,,,,,,,,,,,,,,,,,,,,,,,,,,,,391.231534200022,391.2473726000171,391.7311938999919,391.7311938999919,391.7311938999919,391.7311938999919,391.7476676000515,392.0309672000585,392.0309672000585,392.0309672000585,,392.58212640008423,z,392.58255170006305,392.59800310002174,393.5984288000036,393.58232919999864,0.8378886000718921,None,,,,,,,,,,,,,,,,,,,,,,,,,,,,,,,,,,,,,,,,,,,,,,,,,,,,,,,,,,,,,,,,,,,,,,,,,,,,,,,,,,,,B_4,001,2024-11-28_10h06.48.563,untitled,2024.1.5,None,2024-11-28 10h07.01.094002 +0530,
triangle.png,you,0,Z,,,,,,,,,29,0,116,3,,,,,,,,,393.5984288000036,,,,,,,,,,,,,,,,,,,,,,,,,,,,,,,,,,393.5826788999839,393.5984288000036,394.0821673000464,394.0821673000464,394.0821673000464,394.0821673000464,394.09902740002144,394.3820733000757,394.3820733000757,394.3820733000757,,394.8663932000054,z,394.8668240000261,394.8827193999896,395.88297120004427,395.8669037000509,0.7829517999198288,None,,,,,,,,,,,,,,,,,,,,,,,,,,,,,,,,,,,,,,,,,,,,,,,,,,,,,,,,,,,,,,,,,,,,,,,,,,,,,,,,,,,,B_4,001,2024-11-28_10h06.48.563,untitled,2024.1.5,None,2024-11-28 10h07.01.094002 +0530,
square.png,stranger,0,Z,,,,,,,,,29,1,117,2,,,,,,,,,395.88297120004427,,,,,,,,,,,,,,,,,,,,,,,,,,,,,,,,,,395.86725620005745,395.88297120004427,396.3667208000552,396.3667208000552,396.3667208000552,396.3667208000552,396.3833722000709,396.66694300004747,396.66694300004747,396.66694300004747,,397.05107679998036,z,397.05150010006037,397.06721800006926,398.06761000002734,398.05140670004766,0.6827242999570444,None,,,,,,,,,,,,,,,,,,,,,,,,,,,,,,,,,,,,,,,,,,,,,,,,,,,,,,,,,,,,,,,,,,,,,,,,,,,,,,,,,,,,B_4,001,2024-11-28_10h06.48.563,untitled,2024.1.5,None,2024-11-28 10h07.01.094002 +0530,
square.png,you,1,M,,,,,,,,,29,2,118,0,,,,,,,,,398.06761000002734,,,,,,,,,,,,,,,,,,,,,,,,,,,,,,,,,,398.05175470001996,398.06761000002734,398.5516046000412,398.5516046000412,398.5516046000412,398.5516046000412,398.56785910006147,398.8513708000537,398.8513708000537,398.8513708000537,,399.2020273000235,m,399.2024538000114,399.21819100005087,400.2186978000682,400.2025951000396,0.6416964000090957,None,,,,,,,,,,,,,,,,,,,,,,,,,,,,,,,,,,,,,,,,,,,,,,,,,,,,,,,,,,,,,,,,,,,,,,,,,,,,,,,,,,,,B_4,001,2024-11-28_10h06.48.563,untitled,2024.1.5,None,2024-11-28 10h07.01.094002 +0530,
triangle.png,stranger,1,M,,,,,,,,,29,3,119,1,,,,,,,,,400.2186978000682,,,,,,,,,,,,,,,,,,,,,,,,,,,,,,,,,,400.2029462000355,400.2186978000682,400.70249930000864,400.70249930000864,400.70249930000864,400.70249930000864,400.7189396000467,401.0025120000355,401.0025120000355,401.0025120000355,,401.469899800024,m,401.47033230005763,401.48606780008413,402.48659270000644,402.47023570002057,0.7546784000005573,None,,,,,,,,,,,,,,,,,,,,,,,,,,,,,,,,,,,,,,,,,,,,,,,,,,,,,,,,,,,,,,,,,,,,,,,,,,,,,,,,,,,,B_4,001,2024-11-28_10h06.48.563,untitled,2024.1.5,None,2024-11-28 10h07.01.094002 +0530,
square.png,you,1,M,,,,,,,,,30,0,120,0,,,,,,,,,402.48659270000644,,,,,,,,,,,,,,,,,,,,,,,,,,,,,,,,,,402.47058680001646,402.48659270000644,402.9703952000709,402.9703952000709,402.9703952000709,402.9703952000709,402.98671770002693,403.27034070005175,403.27034070005175,403.27034070005175,,403.65457880008034,m,403.65500150003936,403.6703350000316,404.6708732000552,404.6548079000786,0.6720444000093266,None,,,,,,,,,,,,,,,,,,,,,,,,,,,,,,,,,,,,,,,,,,,,,,,,,,,,,,,,,,,,,,,,,,,,,,,,,,,,,,,,,,,,B_4,001,2024-11-28_10h06.48.563,untitled,2024.1.5,None,2024-11-28 10h07.01.094002 +0530,
triangle.png,stranger,1,M,,,,,,,,,30,1,121,1,,,,,,,,,404.6708732000552,,,,,,,,,,,,,,,,,,,,,,,,,,,,,,,,,,404.6551572000608,404.6708732000552,405.15447399998084,405.15447399998084,405.15447399998084,405.15447399998084,405.17138539999723,405.45479290001094,405.45479290001094,405.45479290001094,,405.7553921000799,m,405.7558154000435,405.771505300072,406.7722036000341,406.7557494000066,0.5921900999965146,None,,,,,,,,,,,,,,,,,,,,,,,,,,,,,,,,,,,,,,,,,,,,,,,,,,,,,,,,,,,,,,,,,,,,,,,,,,,,,,,,,,,,B_4,001,2024-11-28_10h06.48.563,untitled,2024.1.5,None,2024-11-28 10h07.01.094002 +0530,
triangle.png,you,0,Z,,,,,,,,,30,2,122,3,,,,,,,,,406.7722036000341,,,,,,,,,,,,,,,,,,,,,,,,,,,,,,,,,,406.7560976999812,406.7722036000341,407.2556682000868,407.2556682000868,407.2556682000868,407.2556682000868,407.2724458000157,407.5556849000277,407.5556849000277,407.5556849000277,,408.2236384000862,z,408.22406490007415,408.2394608000759,409.2398025000002,409.2238474000478,0.9622304000658914,None,,,,,,,,,,,,,,,,,,,,,,,,,,,,,,,,,,,,,,,,,,,,,,,,,,,,,,,,,,,,,,,,,,,,,,,,,,,,,,,,,,,,B_4,001,2024-11-28_10h06.48.563,untitled,2024.1.5,None,2024-11-28 10h07.01.094002 +0530,
square.png,stranger,0,Z,,,,,,,,,30,3,123,2,,,,,,,,,409.2398025000002,,,,,,,,,,,,,,,,,,,,,,,,,,,,,,,,,,409.2241939000087,409.2398025000002,409.72380570007954,409.72380570007954,409.72380570007954,409.72380570007954,409.74037400004454,410.0236844000174,410.0236844000174,410.0236844000174,,410.3912410000339,z,410.3916695000371,410.4072777000256,411.40794250008184,411.3914245000342,0.6515388999832794,None,,,,,,,,,,,,,,,,,,,,,,,,,,,,,,,,,,,,,,,,,,,,,,,,,,,,,,,,,,,,,,,,,,,,,,,,,,,,,,,,,,,,B_4,001,2024-11-28_10h06.48.563,untitled,2024.1.5,None,2024-11-28 10h07.01.094002 +0530,
square.png,stranger,0,Z,,,,,,,,,31,0,124,2,,,,,,,,,411.40794250008184,,,,,,,,,,,,,,,,,,,,,,,,,,,,,,,,,,411.3917730000103,411.40794250008184,411.89153740007896,411.89153740007896,411.89153740007896,411.89153740007896,411.9081917000003,412.1915808999911,412.1915808999911,412.1915808999911,,412.6257205000147,z,412.6261453999905,412.64180099999066,413.6422966000391,413.62603200005833,0.7304986999370158,None,,,,,,,,,,,,,,,,,,,,,,,,,,,,,,,,,,,,,,,,,,,,,,,,,,,,,,,,,,,,,,,,,,,,,,,,,,,,,,,,,,,,B_4,001,2024-11-28_10h06.48.563,untitled,2024.1.5,None,2024-11-28 10h07.01.094002 +0530,
square.png,you,1,M,,,,,,,,,31,1,125,0,,,,,,,,,413.6422966000391,,,,,,,,,,,,,,,,,,,,,,,,,,,,,,,,,,413.62637860001996,413.6422966000391,414.1258194000693,414.1258194000693,414.1258194000693,414.1258194000693,414.1424651000416,414.4258568000514,414.4258568000514,414.4258568000514,415.2262789000524,415.20997800002806,None,415.21016560005955,415.2262789000524,416.2268024000805,416.2106664000312,,,,,,,,,,,,,,,,,,,,,,,,,,,,,,,,,,,,,,,,,,,,,,,,,,,,,,,,,,,,,,,,,,,,,,,,,,,,,,,,,,,,,,B_4,001,2024-11-28_10h06.48.563,untitled,2024.1.5,None,2024-11-28 10h07.01.094002 +0530,
triangle.png,you,0,Z,,,,,,,,,31,2,126,3,,,,,,,,,416.2268024000805,,,,,,,,,,,,,,,,,,,,,,,,,,,,,,,,,,416.2110244000796,416.2268024000805,416.7272210000083,416.7272210000083,416.7272210000083,416.7272210000083,416.7272210000083,417.02714490005746,417.02714490005746,417.02714490005746,,417.37836000008974,z,417.3787852000678,417.39425140002277,418.3945258000167,418.37861250003334,0.6380688999779522,None,,,,,,,,,,,,,,,,,,,,,,,,,,,,,,,,,,,,,,,,,,,,,,,,,,,,,,,,,,,,,,,,,,,,,,,,,,,,,,,,,,,,B_4,001,2024-11-28_10h06.48.563,untitled,2024.1.5,None,2024-11-28 10h07.01.094002 +0530,
triangle.png,stranger,1,M,,,,,,,,,31,3,127,1,,,,,,,,,418.3945258000167,,,,,,,,,,,,,,,,,,,,,,,,,,,,,,,,,,418.37896280002315,418.3945258000167,418.8785647000186,418.8785647000186,418.8785647000186,418.8785647000186,418.8949256000342,419.17851070000324,419.17851070000324,419.17851070000324,,419.6794528000755,z,419.679879500065,419.69545570004266,420.6959733000258,420.6796135000186,0.7996037000557408,None,,,,,,,,,,,,,,,,,,,,,,,,,,,,,,,,,,,,,,,,,,,,,,,,,,,,,,,,,,,,,,,,,,,,,,,,,,,,,,,,,,,,B_4,001,2024-11-28_10h06.48.563,untitled,2024.1.5,None,2024-11-28 10h07.01.094002 +0530,
square.png,you,1,M,,,,,,,,,32,0,128,0,,,,,,,,,420.6959733000258,,,,,,,,,,,,,,,,,,,,,,,,,,,,,,,,,,420.67996420001145,420.6959733000258,421.1798224999802,421.1798224999802,421.1798224999802,421.1798224999802,421.19648680009414,421.47971109999344,421.47971109999344,421.47971109999344,,421.8472044999944,m,421.8476324999938,421.8632986000739,422.8637777999975,422.8473839000799,0.6620753000024706,None,,,,,,,,,,,,,,,,,,,,,,,,,,,,,,,,,,,,,,,,,,,,,,,,,,,,,,,,,,,,,,,,,,,,,,,,,,,,,,,,,,,,B_4,001,2024-11-28_10h06.48.563,untitled,2024.1.5,None,2024-11-28 10h07.01.094002 +0530,
square.png,stranger,0,Z,,,,,,,,,32,1,129,2,,,,,,,,,422.8637777999975,,,,,,,,,,,,,,,,,,,,,,,,,,,,,,,,,,422.84772780002095,422.8637777999975,423.34755860001314,423.34755860001314,423.34755860001314,423.34755860001314,423.3638663000893,423.6470155999996,423.6470155999996,423.6470155999996,,424.0985170000931,z,424.0989489000058,424.1142658999888,425.11467150005046,425.0985624000896,0.7468459999654442,None,,,,,,,,,,,,,,,,,,,,,,,,,,,,,,,,,,,,,,,,,,,,,,,,,,,,,,,,,,,,,,,,,,,,,,,,,,,,,,,,,,,,B_4,001,2024-11-28_10h06.48.563,untitled,2024.1.5,None,2024-11-28 10h07.01.094002 +0530,
triangle.png,you,0,Z,,,,,,,,,32,2,130,3,,,,,,,,,425.11467150005046,,,,,,,,,,,,,,,,,,,,,,,,,,,,,,,,,,425.0989797000075,425.11467150005046,425.5985928000882,425.5985928000882,425.5985928000882,425.5985928000882,425.61524260009173,425.8984388000099,425.8984388000099,425.8984388000099,426.6989370000083,426.68277469999157,None,426.6829622000223,426.6989370000083,427.69933169998694,427.6833543999819,,,,,,,,,,,,,,,,,,,,,,,,,,,,,,,,,,,,,,,,,,,,,,,,,,,,,,,,,,,,,,,,,,,,,,,,,,,,,,,,,,,,,,B_4,001,2024-11-28_10h06.48.563,untitled,2024.1.5,None,2024-11-28 10h07.01.094002 +0530,
triangle.png,stranger,1,M,,,,,,,,,32,3,131,1,,,,,,,,,427.69933169998694,,,,,,,,,,,,,,,,,,,,,,,,,,,,,,,,,,427.68369890004396,427.69933169998694,428.19980420009233,428.19980420009233,428.19980420009233,428.19980420009233,428.19980420009233,428.4998580000829,428.4998580000829,428.4998580000829,,428.9841813000385,z,428.9846071000211,429.0002324000234,430.00075670005754,429.9843551000813,0.7830251000123098,None,,,,,,,,,,,,,,,,,,,,,,,,,,,,,,,,,,,,,,,,,,,,,,,,,,,,,,,,,,,,,,,,,,,,,,,,,,,,,,,,,,,,B_4,001,2024-11-28_10h06.48.563,untitled,2024.1.5,None,2024-11-28 10h07.01.094002 +0530,
triangle.png,you,0,Z,,,,,,,,,33,0,132,3,,,,,,,,,430.00075670005754,,,,,,,,,,,,,,,,,,,,,,,,,,,,,,,,,,429.9847026000498,430.00075670005754,430.4845766000217,430.4845766000217,430.4845766000217,430.4845766000217,430.5009782999987,430.78443820006214,430.78443820006214,430.78443820006214,,431.2685411000857,z,431.2689739000052,431.28455800004303,432.28520120005123,432.2690865000477,0.7819733000360429,None,,,,,,,,,,,,,,,,,,,,,,,,,,,,,,,,,,,,,,,,,,,,,,,,,,,,,,,,,,,,,,,,,,,,,,,,,,,,,,,,,,,,B_4,001,2024-11-28_10h06.48.563,untitled,2024.1.5,None,2024-11-28 10h07.01.094002 +0530,
square.png,you,1,M,,,,,,,,,33,1,133,0,,,,,,,,,432.28520120005123,,,,,,,,,,,,,,,,,,,,,,,,,,,,,,,,,,432.26944400009234,432.28520120005123,432.7687295000069,432.7687295000069,432.7687295000069,432.7687295000069,432.78558460006025,433.06894270004705,433.06894270004705,433.06894270004705,,433.5198309000116,m,433.52025679999497,433.5357911000028,434.536259500077,434.51991040003486,0.7411082000471652,None,,,,,,,,,,,,,,,,,,,,,,,,,,,,,,,,,,,,,,,,,,,,,,,,,,,,,,,,,,,,,,,,,,,,,,,,,,,,,,,,,,,,B_4,001,2024-11-28_10h06.48.563,untitled,2024.1.5,None,2024-11-28 10h07.01.094002 +0530,
triangle.png,stranger,1,M,,,,,,,,,33,2,134,1,,,,,,,,,434.536259500077,,,,,,,,,,,,,,,,,,,,,,,,,,,,,,,,,,434.52025559998583,434.536259500077,435.0203026999952,435.0203026999952,435.0203026999952,435.0203026999952,435.03653769998346,435.31981930008624,435.31981930008624,435.31981930008624,436.12031770008616,436.1041857000673,None,436.1043757000007,436.12031770008616,437.1208335000556,437.10462960007135,,,,,,,,,,,,,,,,,,,,,,,,,,,,,,,,,,,,,,,,,,,,,,,,,,,,,,,,,,,,,,,,,,,,,,,,,,,,,,,,,,,,,,B_4,001,2024-11-28_10h06.48.563,untitled,2024.1.5,None,2024-11-28 10h07.01.094002 +0530,
square.png,stranger,0,Z,,,,,,,,,33,3,135,2,,,,,,,,,437.1208335000556,,,,,,,,,,,,,,,,,,,,,,,,,,,,,,,,,,437.1049782000482,437.1208335000556,437.6213108000811,437.6213108000811,437.6213108000811,437.6213108000811,437.6213108000811,437.921114900033,437.921114900033,437.921114900033,,438.4392927000299,z,438.4397144999821,438.45496110001113,439.4556215000339,439.4393461000873,0.8132922999793664,None,,,,,,,,,,,,,,,,,,,,,,,,,,,,,,,,,,,,,,,,,,,,,,,,,,,,,,,,,,,,,,,,,,,,,,,,,,,,,,,,,,,,B_4,001,2024-11-28_10h06.48.563,untitled,2024.1.5,None,2024-11-28 10h07.01.094002 +0530,
square.png,stranger,0,Z,,,,,,,,,34,0,136,2,,,,,,,,,439.4556215000339,,,,,,,,,,,,,,,,,,,,,,,,,,,,,,,,,,439.4396873000078,439.4556215000339,439.939279000042,439.939279000042,439.939279000042,439.939279000042,439.9558404000709,440.23920690000523,440.23920690000523,440.23920690000523,,440.85667170002125,z,440.85709940001834,440.87291380006354,441.87331510009244,441.8568747000536,0.9067195999668911,None,,,,,,,,,,,,,,,,,,,,,,,,,,,,,,,,,,,,,,,,,,,,,,,,,,,,,,,,,,,,,,,,,,,,,,,,,,,,,,,,,,,,B_4,001,2024-11-28_10h06.48.563,untitled,2024.1.5,None,2024-11-28 10h07.01.094002 +0530,
triangle.png,stranger,1,M,,,,,,,,,34,1,137,1,,,,,,,,,441.87331510009244,,,,,,,,,,,,,,,,,,,,,,,,,,,,,,,,,,441.85722570004873,441.87331510009244,442.3570495999884,442.3570495999884,442.3570495999884,442.3570495999884,442.3736000000499,442.6572260999819,442.6572260999819,442.6572260999819,,443.09149720007554,z,443.09192040003836,443.1073973000748,444.10804090008605,444.0918326000683,0.7288300000363961,None,,,,,,,,,,,,,,,,,,,,,,,,,,,,,,,,,,,,,,,,,,,,,,,,,,,,,,,,,,,,,,,,,,,,,,,,,,,,,,,,,,,,B_4,001,2024-11-28_10h06.48.563,untitled,2024.1.5,None,2024-11-28 10h07.01.094002 +0530,
triangle.png,you,0,Z,,,,,,,,,34,2,138,3,,,,,,,,,444.10804090008605,,,,,,,,,,,,,,,,,,,,,,,,,,,,,,,,,,444.0921832000604,444.10804090008605,444.59147390001453,444.59147390001453,444.59147390001453,444.59147390001453,444.6082607000135,444.89161679998506,444.89161679998506,444.89161679998506,,445.5258960000938,z,445.52631800004747,445.54202920000535,446.5424048000714,446.5264198000077,0.9309262000024319,None,,,,,,,,,,,,,,,,,,,,,,,,,,,,,,,,,,,,,,,,,,,,,,,,,,,,,,,,,,,,,,,,,,,,,,,,,,,,,,,,,,,,B_4,001,2024-11-28_10h06.48.563,untitled,2024.1.5,None,2024-11-28 10h07.01.094002 +0530,
square.png,you,1,M,,,,,,,,,34,3,139,0,,,,,,,,,446.5424048000714,,,,,,,,,,,,,,,,,,,,,,,,,,,,,,,,,,446.5267688999884,446.5424048000714,447.0263639000477,447.0263639000477,447.0263639000477,447.0263639000477,447.0426669000881,447.32630220009014,447.32630220009014,447.32630220009014,,447.76054809999187,m,447.7609721000772,447.77634179999586,448.7771570000332,448.76081460004207,0.7238509999588132,None,,,,,,,,,,,,,,,,,,,,,,,,,,,,,,,,,,,,,,,,,,,,,,,,,,,,,,,,,,,,,,,,,,,,,,,,,,,,,,,,,,,,B_4,001,2024-11-28_10h06.48.563,untitled,2024.1.5,None,2024-11-28 10h07.01.094002 +0530,
square.png,stranger,0,Z,,,,,,,,,35,0,140,2,,,,,,,,,448.7771570000332,,,,,,,,,,,,,,,,,,,,,,,,,,,,,,,,,,448.7611578000942,448.7771570000332,449.2605744000757,449.2605744000757,449.2605744000757,449.2605744000757,449.2774446000112,449.5607608000282,449.5607608000282,449.5607608000282,,449.82829039997887,z,449.82870800001547,449.84426969999913,450.8445176000241,450.8286784000229,0.558074799948372,None,,,,,,,,,,,,,,,,,,,,,,,,,,,,,,,,,,,,,,,,,,,,,,,,,,,,,,,,,,,,,,,,,,,,,,,,,,,,,,,,,,,,B_4,001,2024-11-28_10h06.48.563,untitled,2024.1.5,None,2024-11-28 10h07.01.094002 +0530,
triangle.png,stranger,1,M,,,,,,,,,35,1,141,1,,,,,,,,,450.8445176000241,,,,,,,,,,,,,,,,,,,,,,,,,,,,,,,,,,450.82902780000586,450.8445176000241,451.3283062999835,451.3283062999835,451.3283062999835,451.3283062999835,451.3449103999883,451.62849810009357,451.62849810009357,451.62849810009357,,452.21266439999454,z,452.21309410000686,452.2286191000603,453.2291107000783,453.2128112000646,0.8742892000591382,None,,,,,,,,,,,,,,,,,,,,,,,,,,,,,,,,,,,,,,,,,,,,,,,,,,,,,,,,,,,,,,,,,,,,,,,,,,,,,,,,,,,,B_4,001,2024-11-28_10h06.48.563,untitled,2024.1.5,None,2024-11-28 10h07.01.094002 +0530,
square.png,you,1,M,,,,,,,,,35,2,142,0,,,,,,,,,453.2291107000783,,,,,,,,,,,,,,,,,,,,,,,,,,,,,,,,,,453.213160000043,453.2291107000783,453.7128237000434,453.7128237000434,453.7128237000434,453.7128237000434,453.7295674000634,454.01293620001525,454.01293620001525,454.01293620001525,,454.23026370001025,m,454.23069870006293,454.24655550008174,455.24679190001916,455.23095250001643,0.5140144999604672,None,,,,,,,,,,,,,,,,,,,,,,,,,,,,,,,,,,,,,,,,,,,,,,,,,,,,,,,,,,,,,,,,,,,,,,,,,,,,,,,,,,,,B_4,001,2024-11-28_10h06.48.563,untitled,2024.1.5,None,2024-11-28 10h07.01.094002 +0530,
triangle.png,you,0,Z,,,,,,,,,35,3,143,3,,,,,,,,,455.24679190001916,,,,,,,,,,,,,,,,,,,,,,,,,,,,,,,,,,455.2313000999857,455.24679190001916,455.7304527000524,455.7304527000524,455.7304527000524,455.7304527000524,455.74734240002,456.0307253000792,456.0307253000792,456.0307253000792,456.83114500006195,456.81492849998176,None,456.8151163000148,456.83114500006195,457.831484900089,457.8151823000517,,,,,,,,,,,,,,,,,,,,,,,,,,,,,,,,,,,,,,,,,,,,,,,,,,,,,,,,,,,,,,,,,,,,,,,,,,,,,,,,,,,,,,B_4,001,2024-11-28_10h06.48.563,untitled,2024.1.5,None,2024-11-28 10h07.01.094002 +0530,
triangle.png,stranger,1,M,,,,,,,,,36,0,144,1,,,,,,,,,457.831484900089,,,,,,,,,,,,,,,,,,,,,,,,,,,,,,,,,,457.8155299000209,457.831484900089,458.332007399993,458.332007399993,458.332007399993,458.332007399993,458.332007399993,458.6319523000857,458.6319523000857,458.6319523000857,,458.79957370006014,z,458.799997300026,458.8155560999876,459.8160585000878,459.79960830009077,0.4611723000416532,None,,,,,,,,,,,,,,,,,,,,,,,,,,,,,,,,,,,,,,,,,,,,,,,,,,,,,,,,,,,,,,,,,,,,,,,,,,,,,,,,,,,,B_4,001,2024-11-28_10h06.48.563,untitled,2024.1.5,None,2024-11-28 10h07.01.094002 +0530,
