stimulus_b,label_b,is_match_b,shouldpress_b,stimulus_2b,label_2b,is_match_2b,shouldpress_2b,p_trials.thisRepN,p_trials.thisTrialN,p_trials.thisN,p_trials.thisIndex,trials.thisRepN,trials.thisTrialN,trials.thisN,trials.thisIndex,p_trials_2.thisRepN,p_trials_2.thisTrialN,p_trials_2.thisN,p_trials_2.thisIndex,trials_2.thisRepN,trials_2.thisTrialN,trials_2.thisN,trials_2.thisIndex,thisRow.t,notes,Intruduction.started,text_3.started,key_resp_2.started,Intruduction.stopped,key_resp_2.keys,key_resp_2.rt,key_resp_2.duration,self_other_instructions.started,text_4.started,key_resp_3.started,self_other_instructions.stopped,key_resp_3.keys,key_resp_3.rt,key_resp_3.duration,self_other_info.started,square_image.started,triangle_image.started,self_label.started,other_label.started,key_resp_4.started,text_5.started,self_other_info.stopped,key_resp_4.keys,key_resp_4.rt,key_resp_4.duration,self_other_starting_2.started,text_6.started,key_resp_5.started,self_other_starting_2.stopped,key_resp_5.keys,key_resp_5.rt,key_resp_5.duration,b1.started,p_fication.started,p_fixation_3.started,p_text.started,key_resp_p.started,p_image.started,p_fication.stopped,p_fixation_3.stopped,p_text.stopped,p_image.stopped,key_resp_p.stopped,b1.stopped,key_resp_p.keys,b_feedback.started,text_15.started,text_15.stopped,b_feedback.stopped,key_resp_p.rt,key_resp_p.duration,start2.started,start_2.started,key_resp_11.started,start2.stopped,key_resp_11.keys,key_resp_11.rt,key_resp_11.duration,break_3.started,text_13.started,text_14.started,key_resp_10.started,text_13.stopped,break_3.stopped,key_resp_10.keys,key_resp_10.rt,key_resp_10.duration,self_instructions_2.started,text_10.started,key_resp_7.started,self_instructions_2.stopped,key_resp_7.keys,key_resp_7.rt,key_resp_7.duration,self_intro_2.started,circle_image.started,diamond_image.started,Disgusting_self_lable.started,Desirable_self_lable.started,key_resp_8.started,text_11.started,self_intro_2.stopped,key_resp_8.keys,key_resp_8.rt,key_resp_8.duration,self_starting_3.started,text_12.started,key_resp_9.started,self_starting_3.stopped,key_resp_9.keys,key_resp_9.rt,key_resp_9.duration,practice2.started,p_fixation_2.started,p_fixation_4.started,p_text_8.started,key_resp_6_p.started,p_image_2.started,p_fixation_2.stopped,p_fixation_4.stopped,p_text_8.stopped,p_image_2.stopped,practice2.stopped,key_resp_6_p.keys,key_resp_6_p.rt,key_resp_6_p.duration,feedback_2_p.started,text_16.started,text_16.stopped,feedback_2_p.stopped,key_resp_6_p.stopped,trial_2.started,fixation_2.started,fixation_4.started,text_8.started,key_resp_6.started,image_2.started,fixation_2.stopped,fixation_4.stopped,text_8.stopped,image_2.stopped,trial_2.stopped,key_resp_6.keys,key_resp_6.rt,key_resp_6.duration,feedback_2.started,text_9.started,text_9.stopped,feedback_2.stopped,key_resp_6.stopped,Thank_you.started,text_7.started,text_7.stopped,Thank_you.stopped,participant,session,date,expName,psychopyVersion,frameRate,expStart,
,,,,,,,,,,,,,,,,,,,,,,,,,,0.002766299992799759,0.006531500024721026,0.006531500024721026,1.1194343999959528,space,1.1044226000085473,None,,,,,,,,,,,,,,,,,,,,,,,,,,,,,,,,,,,,,,,,,,,,,,,,,,,,,,,,,,,,,,,,,,,,,,,,,,,,,,,,,,,,,,,,,,,,,,,,,,,,,,,,,,,,,,,,,,,,,,,,,,,,,,,,B_5,001,2024-11-28_11h35.19.028,untitled,2024.1.5,None,2024-11-28 11h35.31.908811 +0530,
,,,,,,,,,,,,,,,,,,,,,,,,,,,,,,,,,1.1194593999534845,1.1338585999328643,1.1338585999328643,25.096993100014515,space,23.9465073000174,None,,,,,,,,,,,,,,,,,,,,,,,,,,,,,,,,,,,,,,,,,,,,,,,,,,,,,,,,,,,,,,,,,,,,,,,,,,,,,,,,,,,,,,,,,,,,,,,,,,,,,,,,,,,,,,,,,,,,,,,,,B_5,001,2024-11-28_11h35.19.028,untitled,2024.1.5,None,2024-11-28 11h35.31.908811 +0530,
,,,,,,,,,,,,,,,,,,,,,,,,,,,,,,,,,,,,,,,,25.09701979998499,25.130989799974486,25.130989799974486,25.130989799974486,25.130989799974486,25.130989799974486,25.130989799974486,69.35204919998068,space,44.21315930003766,None,,,,,,,,,,,,,,,,,,,,,,,,,,,,,,,,,,,,,,,,,,,,,,,,,,,,,,,,,,,,,,,,,,,,,,,,,,,,,,,,,,,,,,,,,,,,,,,,,,,,,,,,,,,,,,B_5,001,2024-11-28_11h35.19.028,untitled,2024.1.5,None,2024-11-28 11h35.31.908811 +0530,
,,,,,,,,,,,,,,,,,,,,,,,,,,,,,,,,,,,,,,,,,,,,,,,,,,,69.35207659995649,69.36826909997035,69.36826909997035,79.27413789997809,space,9.903367900056764,None,,,,,,,,,,,,,,,,,,,,,,,,,,,,,,,,,,,,,,,,,,,,,,,,,,,,,,,,,,,,,,,,,,,,,,,,,,,,,,,,,,,,,,,,,,,,,,,,,,,,,,,B_5,001,2024-11-28_11h35.19.028,untitled,2024.1.5,None,2024-11-28 11h35.31.908811 +0530,
square.png,stranger,0,Z,,,,,0,0,0,2,,,,,,,,,,,,,79.29186839994509,,,,,,,,,,,,,,,,,,,,,,,,,,,,,,,,,,79.280333600007,79.29186839994509,79.78959009994287,79.78959009994287,79.78959009994287,79.78959009994287,79.80615530000068,80.08945710002445,80.08945710002445,80.08945710002445,80.89035969995894,80.8738372999942,None,80.87404309993144,80.89035969995894,81.89086990000214,81.87428709992673,,,,,,,,,,,,,,,,,,,,,,,,,,,,,,,,,,,,,,,,,,,,,,,,,,,,,,,,,,,,,,,,,,,,,,,,,,,,,,,,,,,,,,B_5,001,2024-11-28_11h35.19.028,untitled,2024.1.5,None,2024-11-28 11h35.31.908811 +0530,
triangle.png,you,0,Z,,,,,0,1,1,3,,,,,,,,,,,,,81.89086990000214,,,,,,,,,,,,,,,,,,,,,,,,,,,,,,,,,,81.87452840001788,81.89086990000214,82.37454939994495,82.37454939994495,82.37454939994495,82.37454939994495,82.39097299997229,82.67468399996869,82.67468399996869,82.67468399996869,,82.90854859992396,m,82.9088744999608,82.92460100003518,83.92530200001784,83.90904359996784,0.5327491000061855,None,,,,,,,,,,,,,,,,,,,,,,,,,,,,,,,,,,,,,,,,,,,,,,,,,,,,,,,,,,,,,,,,,,,,,,,,,,,,,,,,,,,,B_5,001,2024-11-28_11h35.19.028,untitled,2024.1.5,None,2024-11-28 11h35.31.908811 +0530,
triangle.png,stranger,1,M,,,,,0,2,2,1,,,,,,,,,,,,,83.92530200001784,,,,,,,,,,,,,,,,,,,,,,,,,,,,,,,,,,83.90927289996762,83.92530200001784,84.40897260000929,84.40897260000929,84.40897260000929,84.40897260000929,84.42532399995252,84.7088144000154,84.7088144000154,84.7088144000154,,84.90984269999899,z,84.91008389997296,84.92570409993641,85.9261806999566,85.90984969993588,0.4945977999595925,None,,,,,,,,,,,,,,,,,,,,,,,,,,,,,,,,,,,,,,,,,,,,,,,,,,,,,,,,,,,,,,,,,,,,,,,,,,,,,,,,,,,,B_5,001,2024-11-28_11h35.19.028,untitled,2024.1.5,None,2024-11-28 11h35.31.908811 +0530,
square.png,you,1,M,,,,,0,3,3,0,,,,,,,,,,,,,85.9261806999566,,,,,,,,,,,,,,,,,,,,,,,,,,,,,,,,,,85.91008299996611,85.9261806999566,86.40987700002734,86.40987700002734,86.40987700002734,86.40987700002734,86.4265436999267,86.71006850001868,86.71006850001868,86.71006850001868,,86.76082259998657,z,86.76106639998034,86.77667359996121,87.77711020002607,87.76105299999472,0.33833830000367016,None,,,,,,,,,,,,,,,,,,,,,,,,,,,,,,,,,,,,,,,,,,,,,,,,,,,,,,,,,,,,,,,,,,,,,,,,,,,,,,,,,,,,B_5,001,2024-11-28_11h35.19.028,untitled,2024.1.5,None,2024-11-28 11h35.31.908811 +0530,
triangle.png,you,0,Z,,,,,1,0,4,3,,,,,,,,,,,,,87.77711020002607,,,,,,,,,,,,,,,,,,,,,,,,,,,,,,,,,,87.76128420000896,87.77711020002607,88.26072589994874,88.26072589994874,88.26072589994874,88.26072589994874,88.27756900002714,88.56098069995642,88.56098069995642,88.56098069995642,,88.77831620001234,z,88.77855779998936,88.79425609996542,89.79487670003437,89.7787118999986,0.5077073000138626,None,,,,,,,,,,,,,,,,,,,,,,,,,,,,,,,,,,,,,,,,,,,,,,,,,,,,,,,,,,,,,,,,,,,,,,,,,,,,,,,,,,,,B_5,001,2024-11-28_11h35.19.028,untitled,2024.1.5,None,2024-11-28 11h35.31.908811 +0530,
triangle.png,stranger,1,M,,,,,1,1,5,1,,,,,,,,,,,,,89.79487670003437,,,,,,,,,,,,,,,,,,,,,,,,,,,,,,,,,,89.77894490002654,89.79487670003437,90.27881569997407,90.27881569997407,90.27881569997407,90.27881569997407,90.29507699992973,90.57855720003136,90.57855720003136,90.57855720003136,,90.72940880001988,z,90.7296509000007,90.74526849994436,91.74593720003031,91.72945510002319,0.4374002000549808,None,,,,,,,,,,,,,,,,,,,,,,,,,,,,,,,,,,,,,,,,,,,,,,,,,,,,,,,,,,,,,,,,,,,,,,,,,,,,,,,,,,,,B_5,001,2024-11-28_11h35.19.028,untitled,2024.1.5,None,2024-11-28 11h35.31.908811 +0530,
square.png,stranger,0,Z,,,,,1,2,6,2,,,,,,,,,,,,,91.74593720003031,,,,,,,,,,,,,,,,,,,,,,,,,,,,,,,,,,91.72969089995604,91.74593720003031,92.2296728999354,92.2296728999354,92.2296728999354,92.2296728999354,92.24632959999144,92.52954659995157,92.52954659995157,92.52954659995157,,92.76381759997457,m,92.76406660000794,92.7796406999696,93.78000869997777,93.76393769995775,0.5180269000120461,None,,,,,,,,,,,,,,,,,,,,,,,,,,,,,,,,,,,,,,,,,,,,,,,,,,,,,,,,,,,,,,,,,,,,,,,,,,,,,,,,,,,,B_5,001,2024-11-28_11h35.19.028,untitled,2024.1.5,None,2024-11-28 11h35.31.908811 +0530,
square.png,you,1,M,,,,,1,3,7,0,,,,,,,,,,,,,93.78000869997777,,,,,,,,,,,,,,,,,,,,,,,,,,,,,,,,,,93.76417209999636,93.78000869997777,94.26371770002879,94.26371770002879,94.26371770002879,94.26371770002879,94.28041080001276,94.56406439992134,94.56406439992134,94.56406439992134,,94.61490589997265,m,94.61514859995805,94.63074769999366,95.63111179997213,95.61501720000524,0.3406353999162093,None,,,,,,,,,,,,,,,,,,,,,,,,,,,,,,,,,,,,,,,,,,,,,,,,,,,,,,,,,,,,,,,,,,,,,,,,,,,,,,,,,,,,B_5,001,2024-11-28_11h35.19.028,untitled,2024.1.5,None,2024-11-28 11h35.31.908811 +0530,
triangle.png,stranger,1,M,,,,,2,0,8,1,,,,,,,,,,,,,95.63111179997213,,,,,,,,,,,,,,,,,,,,,,,,,,,,,,,,,,95.61525549995713,95.63111179997213,96.11482220003381,96.11482220003381,96.11482220003381,96.11482220003381,96.13162799994461,96.41509030002635,96.41509030002635,96.41509030002635,,96.54905929998495,z,96.54930620000232,96.56508329999633,97.56542320002336,97.549136799993,0.4256691000191495,None,,,,,,,,,,,,,,,,,,,,,,,,,,,,,,,,,,,,,,,,,,,,,,,,,,,,,,,,,,,,,,,,,,,,,,,,,,,,,,,,,,,,B_5,001,2024-11-28_11h35.19.028,untitled,2024.1.5,None,2024-11-28 11h35.31.908811 +0530,
square.png,you,1,M,,,,,2,1,9,0,,,,,,,,,,,,,97.56542320002336,,,,,,,,,,,,,,,,,,,,,,,,,,,,,,,,,,97.54937489994336,97.56542320002336,98.04928389994893,98.04928389994893,98.04928389994893,98.04928389994893,98.06575069995597,98.3491218999261,98.3491218999261,98.3491218999261,,98.46664789994247,m,98.4668904999271,98.48272929992527,99.48326589993667,99.46698219992686,0.4017712000058964,None,,,,,,,,,,,,,,,,,,,,,,,,,,,,,,,,,,,,,,,,,,,,,,,,,,,,,,,,,,,,,,,,,,,,,,,,,,,,,,,,,,,,B_5,001,2024-11-28_11h35.19.028,untitled,2024.1.5,None,2024-11-28 11h35.31.908811 +0530,
square.png,stranger,0,Z,,,,,2,2,10,2,,,,,,,,,,,,,99.48326589993667,,,,,,,,,,,,,,,,,,,,,,,,,,,,,,,,,,99.46721549995709,99.48326589993667,99.96670979994815,99.96670979994815,99.96670979994815,99.96670979994815,99.98362369998358,100.26693559996784,100.26693559996784,100.26693559996784,,100.65109189995565,z,100.65133679995779,100.66723449993879,101.66775639995467,101.65133579995017,0.6688094000564888,None,,,,,,,,,,,,,,,,,,,,,,,,,,,,,,,,,,,,,,,,,,,,,,,,,,,,,,,,,,,,,,,,,,,,,,,,,,,,,,,,,,,,B_5,001,2024-11-28_11h35.19.028,untitled,2024.1.5,None,2024-11-28 11h35.31.908811 +0530,
triangle.png,you,0,Z,,,,,2,3,11,3,,,,,,,,,,,,,101.66775639995467,,,,,,,,,,,,,,,,,,,,,,,,,,,,,,,,,,101.65156689996365,101.66775639995467,102.15155249997042,102.15155249997042,102.15155249997042,102.15155249997042,102.1677826999221,102.45129180001095,102.45129180001095,102.45129180001095,,102.7856701000128,z,102.78591350000352,102.80141750001349,103.80215050000697,103.78583289997187,0.6200957000255585,None,,,,,,,,,,,,,,,,,,,,,,,,,,,,,,,,,,,,,,,,,,,,,,,,,,,,,,,,,,,,,,,,,,,,,,,,,,,,,,,,,,,,B_5,001,2024-11-28_11h35.19.028,untitled,2024.1.5,None,2024-11-28 11h35.31.908811 +0530,
square.png,stranger,0,Z,,,,,3,0,12,2,,,,,,,,,,,,,103.80215050000697,,,,,,,,,,,,,,,,,,,,,,,,,,,,,,,,,,103.7860622999724,103.80215050000697,104.28586569998879,104.28586569998879,104.28586569998879,104.28586569998879,104.30252000002656,104.5856520999223,104.5856520999223,104.5856520999223,,104.70334789995104,z,104.70358959992882,104.71919269999489,105.71979739994276,105.70348929997999,0.40222609997726977,None,,,,,,,,,,,,,,,,,,,,,,,,,,,,,,,,,,,,,,,,,,,,,,,,,,,,,,,,,,,,,,,,,,,,,,,,,,,,,,,,,,,,B_5,001,2024-11-28_11h35.19.028,untitled,2024.1.5,None,2024-11-28 11h35.31.908811 +0530,
triangle.png,you,0,Z,,,,,3,1,13,3,,,,,,,,,,,,,105.71979739994276,,,,,,,,,,,,,,,,,,,,,,,,,,,,,,,,,,105.70371679996606,105.71979739994276,106.20353179995436,106.20353179995436,106.20353179995436,106.20353179995436,106.2201090999879,106.50327440002002,106.50327440002002,106.50327440002002,,106.63769429991953,m,106.63793700002134,106.65353539993521,107.65402459993493,107.63787219999358,0.41948030004277825,None,,,,,,,,,,,,,,,,,,,,,,,,,,,,,,,,,,,,,,,,,,,,,,,,,,,,,,,,,,,,,,,,,,,,,,,,,,,,,,,,,,,,B_5,001,2024-11-28_11h35.19.028,untitled,2024.1.5,None,2024-11-28 11h35.31.908811 +0530,
triangle.png,stranger,1,M,,,,,3,2,14,1,,,,,,,,,,,,,107.65402459993493,,,,,,,,,,,,,,,,,,,,,,,,,,,,,,,,,,107.63810209999792,107.65402459993493,108.13753920001909,108.13753920001909,108.13753920001909,108.13753920001909,108.15418870002031,108.43768800003454,108.43768800003454,108.43768800003454,,108.60539919999428,m,108.6056412999751,108.62116999994032,109.62157079996541,109.60531299991999,0.4594271000241861,None,,,,,,,,,,,,,,,,,,,,,,,,,,,,,,,,,,,,,,,,,,,,,,,,,,,,,,,,,,,,,,,,,,,,,,,,,,,,,,,,,,,,B_5,001,2024-11-28_11h35.19.028,untitled,2024.1.5,None,2024-11-28 11h35.31.908811 +0530,
square.png,you,1,M,,,,,3,3,15,0,,,,,,,,,,,,,109.62157079996541,,,,,,,,,,,,,,,,,,,,,,,,,,,,,,,,,,109.60554100002628,109.62157079996541,110.10540030000266,110.10540030000266,110.10540030000266,110.10540030000266,110.12229039997328,110.40526060003322,110.40526060003322,110.40526060003322,,110.43943119992036,m,110.43967510003131,110.45536889997311,111.45585649996065,111.4398249000078,0.33087479998357594,None,,,,,,,,,,,,,,,,,,,,,,,,,,,,,,,,,,,,,,,,,,,,,,,,,,,,,,,,,,,,,,,,,,,,,,,,,,,,,,,,,,,,B_5,001,2024-11-28_11h35.19.028,untitled,2024.1.5,None,2024-11-28 11h35.31.908811 +0530,
square.png,you,1,M,,,,,4,0,16,0,,,,,,,,,,,,,111.45585649996065,,,,,,,,,,,,,,,,,,,,,,,,,,,,,,,,,,111.44005360000301,111.45585649996065,111.93977699999232,111.93977699999232,111.93977699999232,111.93977699999232,111.95637279993389,112.23987309995573,112.23987309995573,112.23987309995573,,112.37391059997026,m,112.37415409996174,112.38982679997571,113.3904760000296,113.37400940002408,0.4321095000486821,None,,,,,,,,,,,,,,,,,,,,,,,,,,,,,,,,,,,,,,,,,,,,,,,,,,,,,,,,,,,,,,,,,,,,,,,,,,,,,,,,,,,,B_5,001,2024-11-28_11h35.19.028,untitled,2024.1.5,None,2024-11-28 11h35.31.908811 +0530,
square.png,stranger,0,Z,,,,,4,1,17,2,,,,,,,,,,,,,113.3904760000296,,,,,,,,,,,,,,,,,,,,,,,,,,,,,,,,,,113.37423950002994,113.3904760000296,113.8741175000323,113.8741175000323,113.8741175000323,113.8741175000323,113.89066729997285,114.17408100003377,114.17408100003377,114.17408100003377,,114.32487999997102,z,114.32512249995489,114.34094959998038,115.34135819994844,115.32531049998943,0.44213849992956966,None,,,,,,,,,,,,,,,,,,,,,,,,,,,,,,,,,,,,,,,,,,,,,,,,,,,,,,,,,,,,,,,,,,,,,,,,,,,,,,,,,,,,B_5,001,2024-11-28_11h35.19.028,untitled,2024.1.5,None,2024-11-28 11h35.31.908811 +0530,
triangle.png,stranger,1,M,,,,,4,2,18,1,,,,,,,,,,,,,115.34135819994844,,,,,,,,,,,,,,,,,,,,,,,,,,,,,,,,,,115.32554160000291,115.34135819994844,115.82498339994345,115.82498339994345,115.82498339994345,115.82498339994345,115.84176360000856,,,,,116.09258369996678,m,116.09282599994913,116.10846090002451,117.10872549994383,117.09269900002982,0.2628804000560194,None,,,,,,,,,,,,,,,,,,,,,,,,,,,,,,,,,,,,,,,,,,,,,,,,,,,,,,,,,,,,,,,,,,,,,,,,,,,,,,,,,,,,B_5,001,2024-11-28_11h35.19.028,untitled,2024.1.5,None,2024-11-28 11h35.31.908811 +0530,
triangle.png,you,0,Z,,,,,4,3,19,3,,,,,,,,,,,,,117.10872549994383,,,,,,,,,,,,,,,,,,,,,,,,,,,,,,,,,,117.0929297999246,117.10872549994383,117.59266500000376,117.59266500000376,117.59266500000376,117.59266500000376,117.6089944000123,117.89262820000295,117.89262820000295,117.89262820000295,,117.91005349997431,m,117.91029729996808,117.92579919996206,118.92641800001729,118.91037179995328,0.3037290000356734,None,,,,,,,,,,,,,,,,,,,,,,,,,,,,,,,,,,,,,,,,,,,,,,,,,,,,,,,,,,,,,,,,,,,,,,,,,,,,,,,,,,,,B_5,001,2024-11-28_11h35.19.028,untitled,2024.1.5,None,2024-11-28 11h35.31.908811 +0530,
,,,,,,,,,,,,,,,,,,,,,,,,,,,,,,,,,,,,,,,,,,,,,,,,,,,,,,,,,,,,,,,,,,,,,,,,,,,,,118.9104203999741,118.92641800001729,118.92641800001729,119.86108910001349,space,0.9260105999419466,None,,,,,,,,,,,,,,,,,,,,,,,,,,,,,,,,,,,,,,,,,,,,,,,,,,,,,,,,,,,,,,,,,,,,,,,,,,,,,B_5,001,2024-11-28_11h35.19.028,untitled,2024.1.5,None,2024-11-28 11h35.31.908811 +0530,
square.png,you,1,M,,,,,,,,,0,0,0,0,,,,,,,,,119.87705000001006,,,,,,,,,,,,,,,,,,,,,,,,,,,,,,,,,,119.86628459999338,119.87705000001006,120.36072420002893,120.36072420002893,120.36072420002893,120.36072420002893,120.37706530001014,120.66080830001738,120.66080830001738,120.66080830001738,,120.87806519994047,m,120.87871940003242,120.89408460003324,121.89485859998967,121.87844440003391,0.5036253998987377,None,,,,,,,,,,,,,,,,,,,,,,,,,,,,,,,,,,,,,,,,,,,,,,,,,,,,,,,,,,,,,,,,,,,,,,,,,,,,,,,,,,,,B_5,001,2024-11-28_11h35.19.028,untitled,2024.1.5,None,2024-11-28 11h35.31.908811 +0530,
triangle.png,you,0,Z,,,,,,,,,0,1,1,3,,,,,,,,,121.89485859998967,,,,,,,,,,,,,,,,,,,,,,,,,,,,,,,,,,121.87880109995604,121.89485859998967,122.3783831000328,122.3783831000328,122.3783831000328,122.3783831000328,122.39475789992139,122.67829039995559,122.67829039995559,122.67829039995559,,122.92935300001409,m,122.92977489996701,122.94516210001893,123.94565340003464,123.92939970002044,0.5368601999944076,None,,,,,,,,,,,,,,,,,,,,,,,,,,,,,,,,,,,,,,,,,,,,,,,,,,,,,,,,,,,,,,,,,,,,,,,,,,,,,,,,,,,,B_5,001,2024-11-28_11h35.19.028,untitled,2024.1.5,None,2024-11-28 11h35.31.908811 +0530,
square.png,stranger,0,Z,,,,,,,,,0,2,2,2,,,,,,,,,123.94565340003464,,,,,,,,,,,,,,,,,,,,,,,,,,,,,,,,,,123.9297443999676,123.94565340003464,124.42938009998761,124.42938009998761,124.42938009998761,124.42938009998761,124.44596149993595,124.72940099996049,124.72940099996049,124.72940099996049,,124.74695870000869,m,124.74737749993801,124.7628195999423,125.76356049999595,125.74719969998114,0.3110264999559149,None,,,,,,,,,,,,,,,,,,,,,,,,,,,,,,,,,,,,,,,,,,,,,,,,,,,,,,,,,,,,,,,,,,,,,,,,,,,,,,,,,,,,B_5,001,2024-11-28_11h35.19.028,untitled,2024.1.5,None,2024-11-28 11h35.31.908811 +0530,
triangle.png,stranger,1,M,,,,,,,,,0,3,3,1,,,,,,,,,125.76356049999595,,,,,,,,,,,,,,,,,,,,,,,,,,,,,,,,,,125.74754849995952,125.76356049999595,126.24716219992843,126.24716219992843,126.24716219992843,126.24716219992843,126.26369829999749,126.5471671000123,126.5471671000123,126.5471671000123,,126.58120889996644,z,126.58162780001294,126.59701439994387,127.59788289992139,127.58160179993138,0.31966920010745525,None,,,,,,,,,,,,,,,,,,,,,,,,,,,,,,,,,,,,,,,,,,,,,,,,,,,,,,,,,,,,,,,,,,,,,,,,,,,,,,,,,,,,B_5,001,2024-11-28_11h35.19.028,untitled,2024.1.5,None,2024-11-28 11h35.31.908811 +0530,
triangle.png,stranger,1,M,,,,,,,,,1,0,4,1,,,,,,,,,127.59788289992139,,,,,,,,,,,,,,,,,,,,,,,,,,,,,,,,,,127.58194649999496,127.59788289992139,128.08113459998276,128.08113459998276,128.08113459998276,128.08113459998276,128.0978621999966,,,,,128.2988759999862,m,128.29930790001526,128.31455359992106,129.3151926000137,129.29884669999592,0.21140579995699227,None,,,,,,,,,,,,,,,,,,,,,,,,,,,,,,,,,,,,,,,,,,,,,,,,,,,,,,,,,,,,,,,,,,,,,,,,,,,,,,,,,,,,B_5,001,2024-11-28_11h35.19.028,untitled,2024.1.5,None,2024-11-28 11h35.31.908811 +0530,
square.png,you,1,M,,,,,,,,,1,1,5,0,,,,,,,,,129.3151926000137,,,,,,,,,,,,,,,,,,,,,,,,,,,,,,,,,,129.29919399996288,129.3151926000137,129.79899009992369,129.79899009992369,129.79899009992369,129.79899009992369,129.81560099998023,,,,,130.01636330003385,z,130.0167835999746,130.0322990999557,131.03297900001053,131.01659200002905,0.21357169991824776,None,,,,,,,,,,,,,,,,,,,,,,,,,,,,,,,,,,,,,,,,,,,,,,,,,,,,,,,,,,,,,,,,,,,,,,,,,,,,,,,,,,,,B_5,001,2024-11-28_11h35.19.028,untitled,2024.1.5,None,2024-11-28 11h35.31.908811 +0530,
square.png,stranger,0,Z,,,,,,,,,1,2,6,2,,,,,,,,,131.03297900001053,,,,,,,,,,,,,,,,,,,,,,,,,,,,,,,,,,131.0169379999861,131.03297900001053,131.51667389995418,131.51667389995418,131.51667389995418,131.51667389995418,131.53291599999648,131.81652829993982,131.81652829993982,131.81652829993982,,131.8173285999801,z,131.8177454000106,131.83307429996785,132.8336457000114,132.81743019993883,0.2869391000131145,None,,,,,,,,,,,,,,,,,,,,,,,,,,,,,,,,,,,,,,,,,,,,,,,,,,,,,,,,,,,,,,,,,,,,,,,,,,,,,,,,,,,,B_5,001,2024-11-28_11h35.19.028,untitled,2024.1.5,None,2024-11-28 11h35.31.908811 +0530,
triangle.png,you,0,Z,,,,,,,,,1,3,7,3,,,,,,,,,132.8336457000114,,,,,,,,,,,,,,,,,,,,,,,,,,,,,,,,,,132.81777989992406,132.8336457000114,133.31747899996117,133.31747899996117,133.31747899996117,133.31747899996117,133.33384350000415,133.6172835000325,133.6172835000325,133.6172835000325,,133.60155929997563,m,133.60197999991942,133.6172835000325,134.61784319998696,134.60172479995526,0.27492900006473064,None,,,,,,,,,,,,,,,,,,,,,,,,,,,,,,,,,,,,,,,,,,,,,,,,,,,,,,,,,,,,,,,,,,,,,,,,,,,,,,,,,,,,B_5,001,2024-11-28_11h35.19.028,untitled,2024.1.5,None,2024-11-28 11h35.31.908811 +0530,
triangle.png,you,0,Z,,,,,,,,,2,0,8,3,,,,,,,,,134.61784319998696,,,,,,,,,,,,,,,,,,,,,,,,,,,,,,,,,,134.60207070002798,134.61784319998696,135.1017135999864,135.1017135999864,135.1017135999864,135.1017135999864,135.11818210000638,,,,,135.35208520002197,m,135.35252309998032,135.36825739999767,136.3686881000176,136.35280829994008,0.24615350004751235,None,,,,,,,,,,,,,,,,,,,,,,,,,,,,,,,,,,,,,,,,,,,,,,,,,,,,,,,,,,,,,,,,,,,,,,,,,,,,,,,,,,,,B_5,001,2024-11-28_11h35.19.028,untitled,2024.1.5,None,2024-11-28 11h35.31.908811 +0530,
square.png,stranger,0,Z,,,,,,,,,2,1,9,2,,,,,,,,,136.3686881000176,,,,,,,,,,,,,,,,,,,,,,,,,,,,,,,,,,136.35315480001736,136.3686881000176,136.85240149998572,136.85240149998572,136.85240149998572,136.85240149998572,136.86922049999703,,,,,136.86997969995718,z,136.87039769999683,136.88586499996018,137.8862123999279,137.86990069993772,0.00802890001796186,None,,,,,,,,,,,,,,,,,,,,,,,,,,,,,,,,,,,,,,,,,,,,,,,,,,,,,,,,,,,,,,,,,,,,,,,,,,,,,,,,,,,,B_5,001,2024-11-28_11h35.19.028,untitled,2024.1.5,None,2024-11-28 11h35.31.908811 +0530,
square.png,you,1,M,,,,,,,,,2,2,10,0,,,,,,,,,137.8862123999279,,,,,,,,,,,,,,,,,,,,,,,,,,,,,,,,,,137.87025429995265,137.8862123999279,138.37005000002682,138.37005000002682,138.37005000002682,138.37005000002682,138.386586299981,138.6699516000226,138.6699516000226,138.6699516000226,,139.43780259997584,m,139.43822919996455,139.45360110001639,140.4542132000206,140.43791340000462,1.0546086999820545,None,,,,,,,,,,,,,,,,,,,,,,,,,,,,,,,,,,,,,,,,,,,,,,,,,,,,,,,,,,,,,,,,,,,,,,,,,,,,,,,,,,,,B_5,001,2024-11-28_11h35.19.028,untitled,2024.1.5,None,2024-11-28 11h35.31.908811 +0530,
triangle.png,stranger,1,M,,,,,,,,,2,3,11,1,,,,,,,,,140.4542132000206,,,,,,,,,,,,,,,,,,,,,,,,,,,,,,,,,,140.43825899995863,140.4542132000206,140.93771410000045,140.93771410000045,140.93771410000045,140.93771410000045,140.95431649999227,141.23786889994517,141.23786889994517,141.23786889994517,,141.4888969999738,z,141.4893119999906,141.50487529998645,142.50511979998555,142.48910849995445,0.5387383999768645,None,,,,,,,,,,,,,,,,,,,,,,,,,,,,,,,,,,,,,,,,,,,,,,,,,,,,,,,,,,,,,,,,,,,,,,,,,,,,,,,,,,,,B_5,001,2024-11-28_11h35.19.028,untitled,2024.1.5,None,2024-11-28 11h35.31.908811 +0530,
triangle.png,stranger,1,M,,,,,,,,,3,0,12,1,,,,,,,,,142.50511979998555,,,,,,,,,,,,,,,,,,,,,,,,,,,,,,,,,,142.48946589999832,142.50511979998555,142.9889675999293,142.9889675999293,142.9889675999293,142.9889675999293,143.0057673000265,143.28886630001944,143.28886630001944,143.28886630001944,,143.47299459995702,z,143.47341099998448,143.48921669996344,144.48947099992074,144.47341059998143,0.48272470000665635,None,,,,,,,,,,,,,,,,,,,,,,,,,,,,,,,,,,,,,,,,,,,,,,,,,,,,,,,,,,,,,,,,,,,,,,,,,,,,,,,,,,,,B_5,001,2024-11-28_11h35.19.028,untitled,2024.1.5,None,2024-11-28 11h35.31.908811 +0530,
square.png,you,1,M,,,,,,,,,3,1,13,0,,,,,,,,,144.48947099992074,,,,,,,,,,,,,,,,,,,,,,,,,,,,,,,,,,144.4737565999385,144.48947099992074,144.97326210001484,144.97326210001484,144.97326210001484,144.97326210001484,144.98986839991994,145.27319720003288,145.27319720003288,145.27319720003288,,145.6241149000125,m,145.6245589000173,145.64038400002755,146.64051239995752,146.62448729993775,0.6386800999753177,None,,,,,,,,,,,,,,,,,,,,,,,,,,,,,,,,,,,,,,,,,,,,,,,,,,,,,,,,,,,,,,,,,,,,,,,,,,,,,,,,,,,,B_5,001,2024-11-28_11h35.19.028,untitled,2024.1.5,None,2024-11-28 11h35.31.908811 +0530,
triangle.png,you,0,Z,,,,,,,,,3,2,14,3,,,,,,,,,146.64051239995752,,,,,,,,,,,,,,,,,,,,,,,,,,,,,,,,,,146.6248357000295,146.64051239995752,147.12458659999538,147.12458659999538,147.12458659999538,147.12458659999538,147.1409118999727,147.42452989995945,147.42452989995945,147.42452989995945,,147.74213799997233,m,147.74255790002644,147.75808970001526,148.75860149995424,148.74242389993742,0.615618500043638,None,,,,,,,,,,,,,,,,,,,,,,,,,,,,,,,,,,,,,,,,,,,,,,,,,,,,,,,,,,,,,,,,,,,,,,,,,,,,,,,,,,,,B_5,001,2024-11-28_11h35.19.028,untitled,2024.1.5,None,2024-11-28 11h35.31.908811 +0530,
square.png,stranger,0,Z,,,,,,,,,3,3,15,2,,,,,,,,,148.75860149995424,,,,,,,,,,,,,,,,,,,,,,,,,,,,,,,,,,148.74276799999643,148.75860149995424,149.2422482999973,149.2422482999973,149.2422482999973,149.2422482999973,149.25884449994192,149.54216559999622,149.54216559999622,149.54216559999622,,149.87644040002488,m,149.8768586999504,149.89234719995875,150.89294619997963,150.8768128999509,0.6327022999757901,None,,,,,,,,,,,,,,,,,,,,,,,,,,,,,,,,,,,,,,,,,,,,,,,,,,,,,,,,,,,,,,,,,,,,,,,,,,,,,,,,,,,,B_5,001,2024-11-28_11h35.19.028,untitled,2024.1.5,None,2024-11-28 11h35.31.908811 +0530,
square.png,stranger,0,Z,,,,,,,,,4,0,16,2,,,,,,,,,150.89294619997963,,,,,,,,,,,,,,,,,,,,,,,,,,,,,,,,,,150.87716169992927,150.89294619997963,151.37691350001842,151.37691350001842,151.37691350001842,151.37691350001842,151.39340349996928,151.676654699957,151.676654699957,151.676654699957,,151.9107098999666,m,151.91113799996674,151.92659189994447,152.92739989992697,152.9110230000224,0.5231375999283046,None,,,,,,,,,,,,,,,,,,,,,,,,,,,,,,,,,,,,,,,,,,,,,,,,,,,,,,,,,,,,,,,,,,,,,,,,,,,,,,,,,,,,B_5,001,2024-11-28_11h35.19.028,untitled,2024.1.5,None,2024-11-28 11h35.31.908811 +0530,
triangle.png,stranger,1,M,,,,,,,,,4,1,17,1,,,,,,,,,152.92739989992697,,,,,,,,,,,,,,,,,,,,,,,,,,,,,,,,,,152.9113706999924,152.92739989992697,153.41100660001393,153.41100660001393,153.41100660001393,153.41100660001393,153.4277296999935,153.71116299997084,153.71116299997084,153.71116299997084,,154.09533279994503,m,154.09577829996124,154.11111139995046,155.11163950001355,155.09539919998497,0.6720602000132203,None,,,,,,,,,,,,,,,,,,,,,,,,,,,,,,,,,,,,,,,,,,,,,,,,,,,,,,,,,,,,,,,,,,,,,,,,,,,,,,,,,,,,B_5,001,2024-11-28_11h35.19.028,untitled,2024.1.5,None,2024-11-28 11h35.31.908811 +0530,
triangle.png,you,0,Z,,,,,,,,,4,2,18,3,,,,,,,,,155.11163950001355,,,,,,,,,,,,,,,,,,,,,,,,,,,,,,,,,,155.09574779996183,155.11163950001355,155.59569859993644,155.59569859993644,155.59569859993644,155.59569859993644,155.61224749998655,155.89550129999407,155.89550129999407,155.89550129999407,,156.2961759000318,z,156.2965931999497,156.31246799998917,157.31278399995063,157.29662419995293,0.6838649000274017,None,,,,,,,,,,,,,,,,,,,,,,,,,,,,,,,,,,,,,,,,,,,,,,,,,,,,,,,,,,,,,,,,,,,,,,,,,,,,,,,,,,,,B_5,001,2024-11-28_11h35.19.028,untitled,2024.1.5,None,2024-11-28 11h35.31.908811 +0530,
square.png,you,1,M,,,,,,,,,4,3,19,0,,,,,,,,,157.31278399995063,,,,,,,,,,,,,,,,,,,,,,,,,,,,,,,,,,157.29697010002565,157.31278399995063,157.79641179996543,157.79641179996543,157.79641179996543,157.79641179996543,157.81313060002867,158.09675409994088,158.09675409994088,158.09675409994088,,158.4309694999829,m,158.4313871000195,158.44691880000755,159.44737750000786,159.43095479998738,0.6280706999823451,None,,,,,,,,,,,,,,,,,,,,,,,,,,,,,,,,,,,,,,,,,,,,,,,,,,,,,,,,,,,,,,,,,,,,,,,,,,,,,,,,,,,,B_5,001,2024-11-28_11h35.19.028,untitled,2024.1.5,None,2024-11-28 11h35.31.908811 +0530,
square.png,stranger,0,Z,,,,,,,,,5,0,20,2,,,,,,,,,159.44737750000786,,,,,,,,,,,,,,,,,,,,,,,,,,,,,,,,,,159.43130489997566,159.44737750000786,159.93097500002477,159.93097500002477,159.93097500002477,159.93097500002477,159.94799130002502,160.23114389996044,160.23114389996044,160.23114389996044,,160.9486549999565,z,160.94908839999698,160.96483489999082,161.96503930003382,161.94899790000636,1.0094066999154165,None,,,,,,,,,,,,,,,,,,,,,,,,,,,,,,,,,,,,,,,,,,,,,,,,,,,,,,,,,,,,,,,,,,,,,,,,,,,,,,,,,,,,B_5,001,2024-11-28_11h35.19.028,untitled,2024.1.5,None,2024-11-28 11h35.31.908811 +0530,
square.png,you,1,M,,,,,,,,,5,1,21,0,,,,,,,,,161.96503930003382,,,,,,,,,,,,,,,,,,,,,,,,,,,,,,,,,,161.94935160002206,161.96503930003382,162.4492386999773,162.4492386999773,162.4492386999773,162.4492386999773,162.4657710000174,162.74909739999566,162.74909739999566,162.74909739999566,,163.03325829992536,m,163.03367179993074,163.0493336999789,164.0499118999578,164.03356030001305,0.5786399999633431,None,,,,,,,,,,,,,,,,,,,,,,,,,,,,,,,,,,,,,,,,,,,,,,,,,,,,,,,,,,,,,,,,,,,,,,,,,,,,,,,,,,,,B_5,001,2024-11-28_11h35.19.028,untitled,2024.1.5,None,2024-11-28 11h35.31.908811 +0530,
triangle.png,stranger,1,M,,,,,,,,,5,2,22,1,,,,,,,,,164.0499118999578,,,,,,,,,,,,,,,,,,,,,,,,,,,,,,,,,,164.03390469995793,164.0499118999578,164.53350309992675,164.53350309992675,164.53350309992675,164.53350309992675,164.54991019994486,164.8335354999872,164.8335354999872,164.8335354999872,165.63375289994292,165.61766039999202,None,165.6178491000319,165.63375289994292,166.6344637000002,166.6181625999743,,,,,,,,,,,,,,,,,,,,,,,,,,,,,,,,,,,,,,,,,,,,,,,,,,,,,,,,,,,,,,,,,,,,,,,,,,,,,,,,,,,,,,B_5,001,2024-11-28_11h35.19.028,untitled,2024.1.5,None,2024-11-28 11h35.31.908811 +0530,
triangle.png,you,0,Z,,,,,,,,,5,3,23,3,,,,,,,,,166.6344637000002,,,,,,,,,,,,,,,,,,,,,,,,,,,,,,,,,,166.61851049994584,166.6344637000002,167.1346134999767,167.1346134999767,167.1346134999767,167.1346134999767,167.1346134999767,167.43460189993493,167.43460189993493,167.43460189993493,,167.95218699995894,m,167.952608600026,167.9683662999887,168.96891319996212,168.9526131999446,0.8042568999808282,None,,,,,,,,,,,,,,,,,,,,,,,,,,,,,,,,,,,,,,,,,,,,,,,,,,,,,,,,,,,,,,,,,,,,,,,,,,,,,,,,,,,,B_5,001,2024-11-28_11h35.19.028,untitled,2024.1.5,None,2024-11-28 11h35.31.908811 +0530,
square.png,stranger,0,Z,,,,,,,,,6,0,24,2,,,,,,,,,168.96891319996212,,,,,,,,,,,,,,,,,,,,,,,,,,,,,,,,,,168.95296209992375,168.96891319996212,169.4528197000036,169.4528197000036,169.4528197000036,169.4528197000036,169.4694045999786,169.75259829999413,169.75259829999413,169.75259829999413,,170.0536908999784,m,170.05411429994274,170.06947590003256,171.06990579992998,171.05375419999473,0.5947269999887794,None,,,,,,,,,,,,,,,,,,,,,,,,,,,,,,,,,,,,,,,,,,,,,,,,,,,,,,,,,,,,,,,,,,,,,,,,,,,,,,,,,,,,B_5,001,2024-11-28_11h35.19.028,untitled,2024.1.5,None,2024-11-28 11h35.31.908811 +0530,
triangle.png,stranger,1,M,,,,,,,,,6,1,25,1,,,,,,,,,171.06990579992998,,,,,,,,,,,,,,,,,,,,,,,,,,,,,,,,,,171.0540948000271,171.06990579992998,171.55392869992647,171.55392869992647,171.55392869992647,171.55392869992647,171.57018839998636,171.85354969999753,171.85354969999753,171.85354969999753,,171.9878179000225,z,171.98823869996704,172.00383599998895,173.00452650000807,172.98800110002048,0.4256254000356421,None,,,,,,,,,,,,,,,,,,,,,,,,,,,,,,,,,,,,,,,,,,,,,,,,,,,,,,,,,,,,,,,,,,,,,,,,,,,,,,,,,,,,B_5,001,2024-11-28_11h35.19.028,untitled,2024.1.5,None,2024-11-28 11h35.31.908811 +0530,
square.png,you,1,M,,,,,,,,,6,2,26,0,,,,,,,,,173.00452650000807,,,,,,,,,,,,,,,,,,,,,,,,,,,,,,,,,,172.9883474999806,173.00452650000807,173.48815659992397,173.48815659992397,173.48815659992397,173.48815659992397,173.5044672000222,173.78817770001478,173.78817770001478,173.78817770001478,,174.32233140000608,m,174.3227506999392,174.338434199919,175.33864370000083,175.32247090002056,0.8235456999391317,None,,,,,,,,,,,,,,,,,,,,,,,,,,,,,,,,,,,,,,,,,,,,,,,,,,,,,,,,,,,,,,,,,,,,,,,,,,,,,,,,,,,,B_5,001,2024-11-28_11h35.19.028,untitled,2024.1.5,None,2024-11-28 11h35.31.908811 +0530,
triangle.png,you,0,Z,,,,,,,,,6,3,27,3,,,,,,,,,175.33864370000083,,,,,,,,,,,,,,,,,,,,,,,,,,,,,,,,,,175.3228211000096,175.33864370000083,175.82235969998874,175.82235969998874,175.82235969998874,175.82235969998874,175.83925660001114,176.12260250002146,176.12260250002146,176.12260250002146,,176.6902257000329,z,176.6906426999485,176.70603200001642,177.7065548999235,177.69060360000003,0.8526577999582514,None,,,,,,,,,,,,,,,,,,,,,,,,,,,,,,,,,,,,,,,,,,,,,,,,,,,,,,,,,,,,,,,,,,,,,,,,,,,,,,,,,,,,B_5,001,2024-11-28_11h35.19.028,untitled,2024.1.5,None,2024-11-28 11h35.31.908811 +0530,
triangle.png,stranger,1,M,,,,,,,,,7,0,28,1,,,,,,,,,177.7065548999235,,,,,,,,,,,,,,,,,,,,,,,,,,,,,,,,,,177.69095099996775,177.7065548999235,178.19042679993436,178.19042679993436,178.19042679993436,178.19042679993436,178.2070658999728,178.49055400001816,178.49055400001816,178.49055400001816,179.29064749996178,179.27442539995536,None,179.27463579992764,179.29064749996178,180.2915229999926,180.27519900002517,,,,,,,,,,,,,,,,,,,,,,,,,,,,,,,,,,,,,,,,,,,,,,,,,,,,,,,,,,,,,,,,,,,,,,,,,,,,,,,,,,,,,,B_5,001,2024-11-28_11h35.19.028,untitled,2024.1.5,None,2024-11-28 11h35.31.908811 +0530,
triangle.png,you,0,Z,,,,,,,,,7,1,29,3,,,,,,,,,180.2915229999926,,,,,,,,,,,,,,,,,,,,,,,,,,,,,,,,,,180.275555399945,180.2915229999926,180.79186180001125,180.79186180001125,180.79186180001125,180.79186180001125,180.79186180001125,181.09183819999453,181.09183819999453,181.09183819999453,,181.59270969999488,z,181.59313039993867,181.6085705999285,182.60920149995945,182.59298920002766,0.7869567999150604,None,,,,,,,,,,,,,,,,,,,,,,,,,,,,,,,,,,,,,,,,,,,,,,,,,,,,,,,,,,,,,,,,,,,,,,,,,,,,,,,,,,,,B_5,001,2024-11-28_11h35.19.028,untitled,2024.1.5,None,2024-11-28 11h35.31.908811 +0530,
square.png,stranger,0,Z,,,,,,,,,7,2,30,2,,,,,,,,,182.60920149995945,,,,,,,,,,,,,,,,,,,,,,,,,,,,,,,,,,182.59334369993303,182.60920149995945,183.09288929996546,183.09288929996546,183.09288929996546,183.09288929996546,183.1094194999896,183.3930023999419,183.3930023999419,183.3930023999419,,183.92715509992559,m,183.92759059998207,183.9432373000309,184.94363140000496,184.9274881000165,0.8219889000756666,None,,,,,,,,,,,,,,,,,,,,,,,,,,,,,,,,,,,,,,,,,,,,,,,,,,,,,,,,,,,,,,,,,,,,,,,,,,,,,,,,,,,,B_5,001,2024-11-28_11h35.19.028,untitled,2024.1.5,None,2024-11-28 11h35.31.908811 +0530,
square.png,you,1,M,,,,,,,,,7,3,31,0,,,,,,,,,184.94363140000496,,,,,,,,,,,,,,,,,,,,,,,,,,,,,,,,,,184.92783539998345,184.94363140000496,185.42752669996116,185.42752669996116,185.42752669996116,185.42752669996116,185.4439719999209,185.72752770001534,185.72752770001534,185.72752770001534,,185.8950245999731,m,185.8954465999268,185.9110247999197,186.9114812000189,186.89528399996925,0.46098289999645203,None,,,,,,,,,,,,,,,,,,,,,,,,,,,,,,,,,,,,,,,,,,,,,,,,,,,,,,,,,,,,,,,,,,,,,,,,,,,,,,,,,,,,B_5,001,2024-11-28_11h35.19.028,untitled,2024.1.5,None,2024-11-28 11h35.31.908811 +0530,
triangle.png,you,0,Z,,,,,,,,,8,0,32,3,,,,,,,,,186.9114812000189,,,,,,,,,,,,,,,,,,,,,,,,,,,,,,,,,,186.8956325999461,186.9114812000189,187.39503899996635,187.39503899996635,187.39503899996635,187.39503899996635,187.41159339994192,187.6952203999972,187.6952203999972,187.6952203999972,188.49547439999878,188.47951939993072,None,188.47970609995537,188.49547439999878,189.49579900002573,189.47984839999117,,,,,,,,,,,,,,,,,,,,,,,,,,,,,,,,,,,,,,,,,,,,,,,,,,,,,,,,,,,,,,,,,,,,,,,,,,,,,,,,,,,,,,B_5,001,2024-11-28_11h35.19.028,untitled,2024.1.5,None,2024-11-28 11h35.31.908811 +0530,
triangle.png,stranger,1,M,,,,,,,,,8,1,33,1,,,,,,,,,189.49579900002573,,,,,,,,,,,,,,,,,,,,,,,,,,,,,,,,,,189.48020889994223,189.49579900002573,189.996490099933,189.996490099933,189.996490099933,189.996490099933,189.996490099933,190.29652750003152,190.29652750003152,190.29652750003152,,190.81412180000916,z,190.81454349996056,190.83006199996453,191.8306405999465,191.81436940003186,0.8117354999994859,None,,,,,,,,,,,,,,,,,,,,,,,,,,,,,,,,,,,,,,,,,,,,,,,,,,,,,,,,,,,,,,,,,,,,,,,,,,,,,,,,,,,,B_5,001,2024-11-28_11h35.19.028,untitled,2024.1.5,None,2024-11-28 11h35.31.908811 +0530,
square.png,you,1,M,,,,,,,,,8,2,34,0,,,,,,,,,191.8306405999465,,,,,,,,,,,,,,,,,,,,,,,,,,,,,,,,,,191.8147159999935,191.8306405999465,192.31411609996576,192.31411609996576,192.31411609996576,192.31411609996576,192.33086290000938,192.61434369999915,192.61434369999915,192.61434369999915,,192.96536030003335,m,192.96578329999465,192.98136620002333,193.9819150000112,193.96570409997366,0.6367776000406593,None,,,,,,,,,,,,,,,,,,,,,,,,,,,,,,,,,,,,,,,,,,,,,,,,,,,,,,,,,,,,,,,,,,,,,,,,,,,,,,,,,,,,B_5,001,2024-11-28_11h35.19.028,untitled,2024.1.5,None,2024-11-28 11h35.31.908811 +0530,
square.png,stranger,0,Z,,,,,,,,,8,3,35,2,,,,,,,,,193.9819150000112,,,,,,,,,,,,,,,,,,,,,,,,,,,,,,,,,,193.96605289995205,193.9819150000112,194.46526710002217,194.46526710002217,194.46526710002217,194.46526710002217,194.48217999993358,194.76546549994964,194.76546549994964,194.76546549994964,,195.53298879996873,m,195.53341539995745,195.54922079993412,196.54973359999713,196.53344229992945,1.0664692999562249,None,,,,,,,,,,,,,,,,,,,,,,,,,,,,,,,,,,,,,,,,,,,,,,,,,,,,,,,,,,,,,,,,,,,,,,,,,,,,,,,,,,,,B_5,001,2024-11-28_11h35.19.028,untitled,2024.1.5,None,2024-11-28 11h35.31.908811 +0530,
square.png,you,1,M,,,,,,,,,9,0,36,0,,,,,,,,,196.54973359999713,,,,,,,,,,,,,,,,,,,,,,,,,,,,,,,,,,196.53379439993296,196.54973359999713,197.03347979998216,197.03347979998216,197.03347979998216,197.03347979998216,197.049973999965,197.33327239996288,197.33327239996288,197.33327239996288,,197.86766370001715,z,197.8680958999321,197.8837610000046,198.8842250999296,198.8680052999407,0.8213685000082478,None,,,,,,,,,,,,,,,,,,,,,,,,,,,,,,,,,,,,,,,,,,,,,,,,,,,,,,,,,,,,,,,,,,,,,,,,,,,,,,,,,,,,B_5,001,2024-11-28_11h35.19.028,untitled,2024.1.5,None,2024-11-28 11h35.31.908811 +0530,
triangle.png,stranger,1,M,,,,,,,,,9,1,37,1,,,,,,,,,198.8842250999296,,,,,,,,,,,,,,,,,,,,,,,,,,,,,,,,,,198.86835220002104,198.8842250999296,199.3678452000022,199.3678452000022,199.3678452000022,199.3678452000022,199.38462709996384,199.66810140002053,199.66810140002053,199.66810140002053,,200.1188787999563,m,200.1192960999906,200.13471270003356,201.1354403999867,201.1193361999467,0.7479467999655753,None,,,,,,,,,,,,,,,,,,,,,,,,,,,,,,,,,,,,,,,,,,,,,,,,,,,,,,,,,,,,,,,,,,,,,,,,,,,,,,,,,,,,B_5,001,2024-11-28_11h35.19.028,untitled,2024.1.5,None,2024-11-28 11h35.31.908811 +0530,
triangle.png,you,0,Z,,,,,,,,,9,2,38,3,,,,,,,,,201.1354403999867,,,,,,,,,,,,,,,,,,,,,,,,,,,,,,,,,,201.11975930002518,201.1354403999867,201.61900569999125,201.61900569999125,201.61900569999125,201.61900569999125,201.6357190000126,201.91902349994052,201.91902349994052,201.91902349994052,,202.21991829993203,m,202.22034619993065,202.23587530001532,203.23638979997486,203.22037200001068,0.5933925999561325,None,,,,,,,,,,,,,,,,,,,,,,,,,,,,,,,,,,,,,,,,,,,,,,,,,,,,,,,,,,,,,,,,,,,,,,,,,,,,,,,,,,,,B_5,001,2024-11-28_11h35.19.028,untitled,2024.1.5,None,2024-11-28 11h35.31.908811 +0530,
square.png,stranger,0,Z,,,,,,,,,9,3,39,2,,,,,,,,,203.23638979997486,,,,,,,,,,,,,,,,,,,,,,,,,,,,,,,,,,203.22072189999744,203.23638979997486,203.72027039993554,203.72027039993554,203.72027039993554,203.72027039993554,203.7367125999881,204.02031679998618,204.02031679998618,204.02031679998618,,204.4212799000088,z,204.42171859997325,204.4370613999199,205.43767909996677,205.42121669999324,0.6958997000474483,None,,,,,,,,,,,,,,,,,,,,,,,,,,,,,,,,,,,,,,,,,,,,,,,,,,,,,,,,,,,,,,,,,,,,,,,,,,,,,,,,,,,,B_5,001,2024-11-28_11h35.19.028,untitled,2024.1.5,None,2024-11-28 11h35.31.908811 +0530,
triangle.png,you,0,Z,,,,,,,,,10,0,40,3,,,,,,,,,205.43767909996677,,,,,,,,,,,,,,,,,,,,,,,,,,,,,,,,,,205.42156519996934,205.43767909996677,205.9212352000177,205.9212352000177,205.9212352000177,205.9212352000177,205.93790939997416,206.22120859997813,206.22120859997813,206.22120859997813,,206.62217869993765,m,206.6225966999773,206.6381142999744,207.63859280000906,207.62250679999124,0.6977906000101939,None,,,,,,,,,,,,,,,,,,,,,,,,,,,,,,,,,,,,,,,,,,,,,,,,,,,,,,,,,,,,,,,,,,,,,,,,,,,,,,,,,,,,B_5,001,2024-11-28_11h35.19.028,untitled,2024.1.5,None,2024-11-28 11h35.31.908811 +0530,
square.png,you,1,M,,,,,,,,,10,1,41,0,,,,,,,,,207.63859280000906,,,,,,,,,,,,,,,,,,,,,,,,,,,,,,,,,,207.622854599962,207.63859280000906,208.12221359997056,208.12221359997056,208.12221359997056,208.12221359997056,208.13895059993956,208.42251649999525,208.42251649999525,208.42251649999525,,208.6897860999452,m,208.69020519999322,208.70607509999536,209.70642950001638,209.69014590000734,0.5569913000799716,None,,,,,,,,,,,,,,,,,,,,,,,,,,,,,,,,,,,,,,,,,,,,,,,,,,,,,,,,,,,,,,,,,,,,,,,,,,,,,,,,,,,,B_5,001,2024-11-28_11h35.19.028,untitled,2024.1.5,None,2024-11-28 11h35.31.908811 +0530,
square.png,stranger,0,Z,,,,,,,,,10,2,42,2,,,,,,,,,209.70642950001638,,,,,,,,,,,,,,,,,,,,,,,,,,,,,,,,,,209.69049519998953,209.70642950001638,210.19019430002663,210.19019430002663,210.19019430002663,210.19019430002663,210.20683049992658,210.49026959994808,210.49026959994808,210.49026959994808,,210.9577227999689,z,210.95814270002302,210.9738996999804,211.97447859996464,211.95793929998763,0.7607695999322459,None,,,,,,,,,,,,,,,,,,,,,,,,,,,,,,,,,,,,,,,,,,,,,,,,,,,,,,,,,,,,,,,,,,,,,,,,,,,,,,,,,,,,B_5,001,2024-11-28_11h35.19.028,untitled,2024.1.5,None,2024-11-28 11h35.31.908811 +0530,
triangle.png,stranger,1,M,,,,,,,,,10,3,43,1,,,,,,,,,211.97447859996464,,,,,,,,,,,,,,,,,,,,,,,,,,,,,,,,,,211.95828469994012,211.97447859996464,212.45826660003513,212.45826660003513,212.45826660003513,212.45826660003513,212.47474620002322,212.75825549999718,212.75825549999718,212.75825549999718,,213.30891419993713,m,213.30933259997983,213.32506830000784,214.3255503999535,214.3091108999215,0.8445495999185368,None,,,,,,,,,,,,,,,,,,,,,,,,,,,,,,,,,,,,,,,,,,,,,,,,,,,,,,,,,,,,,,,,,,,,,,,,,,,,,,,,,,,,B_5,001,2024-11-28_11h35.19.028,untitled,2024.1.5,None,2024-11-28 11h35.31.908811 +0530,
square.png,stranger,0,Z,,,,,,,,,11,0,44,2,,,,,,,,,214.3255503999535,,,,,,,,,,,,,,,,,,,,,,,,,,,,,,,,,,214.30945649999194,214.3255503999535,214.80928759998642,214.80928759998642,214.80928759998642,214.80928759998642,214.82572630001232,215.10915199993178,215.10915199993178,215.10915199993178,,215.6601732999552,z,215.66059650003444,215.6762427999638,216.67672719992697,216.66045620001387,0.8390332000562921,None,,,,,,,,,,,,,,,,,,,,,,,,,,,,,,,,,,,,,,,,,,,,,,,,,,,,,,,,,,,,,,,,,,,,,,,,,,,,,,,,,,,,B_5,001,2024-11-28_11h35.19.028,untitled,2024.1.5,None,2024-11-28 11h35.31.908811 +0530,
triangle.png,stranger,1,M,,,,,,,,,11,1,45,1,,,,,,,,,216.67672719992697,,,,,,,,,,,,,,,,,,,,,,,,,,,,,,,,,,216.66080339998007,216.67672719992697,217.16025660000741,217.16025660000741,217.16025660000741,217.16025660000741,217.17685249994975,217.4604538999265,217.4604538999265,217.4604538999265,218.26079309999477,218.2447022999404,None,218.24488869996276,218.26079309999477,219.26115849998314,219.24505329993553,,,,,,,,,,,,,,,,,,,,,,,,,,,,,,,,,,,,,,,,,,,,,,,,,,,,,,,,,,,,,,,,,,,,,,,,,,,,,,,,,,,,,,B_5,001,2024-11-28_11h35.19.028,untitled,2024.1.5,None,2024-11-28 11h35.31.908811 +0530,
square.png,you,1,M,,,,,,,,,11,2,46,0,,,,,,,,,219.26115849998314,,,,,,,,,,,,,,,,,,,,,,,,,,,,,,,,,,219.24542019993532,219.26115849998314,219.76190289994702,219.76190289994702,219.76190289994702,219.76190289994702,219.76190289994702,220.0616189999273,220.0616189999273,220.0616189999273,,220.42940999998245,m,220.4298333999468,220.44533349992707,221.44571450003423,221.42972160002682,0.6585566999856383,None,,,,,,,,,,,,,,,,,,,,,,,,,,,,,,,,,,,,,,,,,,,,,,,,,,,,,,,,,,,,,,,,,,,,,,,,,,,,,,,,,,,,B_5,001,2024-11-28_11h35.19.028,untitled,2024.1.5,None,2024-11-28 11h35.31.908811 +0530,
triangle.png,you,0,Z,,,,,,,,,11,3,47,3,,,,,,,,,221.44571450003423,,,,,,,,,,,,,,,,,,,,,,,,,,,,,,,,,,221.43007260002196,221.44571450003423,221.9297064000275,221.9297064000275,221.9297064000275,221.9297064000275,221.94627930002753,222.22940599999856,222.22940599999856,222.22940599999856,,222.84730709996074,z,222.84772489999887,222.86313359998167,223.86367689992767,223.84745739994105,0.9051792999962345,None,,,,,,,,,,,,,,,,,,,,,,,,,,,,,,,,,,,,,,,,,,,,,,,,,,,,,,,,,,,,,,,,,,,,,,,,,,,,,,,,,,,,B_5,001,2024-11-28_11h35.19.028,untitled,2024.1.5,None,2024-11-28 11h35.31.908811 +0530,
square.png,stranger,0,Z,,,,,,,,,12,0,48,2,,,,,,,,,223.86367689992767,,,,,,,,,,,,,,,,,,,,,,,,,,,,,,,,,,223.84780560003128,223.86367689992767,224.34760490001645,224.34760490001645,224.34760490001645,224.34760490001645,224.3641520999372,224.64737160003278,224.64737160003278,224.64737160003278,,225.14829849998932,z,225.1487167000305,225.16450219997205,226.16485719999764,226.1487609000178,0.7993171999696642,None,,,,,,,,,,,,,,,,,,,,,,,,,,,,,,,,,,,,,,,,,,,,,,,,,,,,,,,,,,,,,,,,,,,,,,,,,,,,,,,,,,,,B_5,001,2024-11-28_11h35.19.028,untitled,2024.1.5,None,2024-11-28 11h35.31.908811 +0530,
triangle.png,stranger,1,M,,,,,,,,,12,1,49,1,,,,,,,,,226.16485719999764,,,,,,,,,,,,,,,,,,,,,,,,,,,,,,,,,,226.14910229993984,226.16485719999764,226.64888649992645,226.64888649992645,226.64888649992645,226.64888649992645,226.66540749999695,226.94866140000522,226.94866140000522,226.94866140000522,,227.43308879993856,z,227.4335075999843,227.44917589996476,228.44957729999442,228.43316719995346,0.7791532999835908,None,,,,,,,,,,,,,,,,,,,,,,,,,,,,,,,,,,,,,,,,,,,,,,,,,,,,,,,,,,,,,,,,,,,,,,,,,,,,,,,,,,,,B_5,001,2024-11-28_11h35.19.028,untitled,2024.1.5,None,2024-11-28 11h35.31.908811 +0530,
square.png,you,1,M,,,,,,,,,12,2,50,0,,,,,,,,,228.44957729999442,,,,,,,,,,,,,,,,,,,,,,,,,,,,,,,,,,228.4335152999265,228.44957729999442,228.9333256999962,228.9333256999962,228.9333256999962,228.9333256999962,228.9496031999588,229.23325699998531,229.23325699998531,229.23325699998531,,229.53388160001487,m,229.53430119995028,229.5498915000353,230.55049279995728,230.53433689998928,0.5859814999857917,None,,,,,,,,,,,,,,,,,,,,,,,,,,,,,,,,,,,,,,,,,,,,,,,,,,,,,,,,,,,,,,,,,,,,,,,,,,,,,,,,,,,,B_5,001,2024-11-28_11h35.19.028,untitled,2024.1.5,None,2024-11-28 11h35.31.908811 +0530,
triangle.png,you,0,Z,,,,,,,,,12,3,51,3,,,,,,,,,230.55049279995728,,,,,,,,,,,,,,,,,,,,,,,,,,,,,,,,,,230.5346881999867,230.55049279995728,231.03424329997506,231.03424329997506,231.03424329997506,231.03424329997506,231.0506119999336,231.33410300000105,231.33410300000105,231.33410300000105,,231.71845559997018,z,231.71888539998326,231.7342442999361,232.7350887999637,232.71885669999756,0.6695766999619082,None,,,,,,,,,,,,,,,,,,,,,,,,,,,,,,,,,,,,,,,,,,,,,,,,,,,,,,,,,,,,,,,,,,,,,,,,,,,,,,,,,,,,B_5,001,2024-11-28_11h35.19.028,untitled,2024.1.5,None,2024-11-28 11h35.31.908811 +0530,
square.png,stranger,0,Z,,,,,,,,,13,0,52,2,,,,,,,,,232.7350887999637,,,,,,,,,,,,,,,,,,,,,,,,,,,,,,,,,,232.71920920000412,232.7350887999637,233.2184694999596,233.2184694999596,233.2184694999596,233.2184694999596,233.2352879999671,233.51858959998935,233.51858959998935,233.51858959998935,,234.11988439993002,m,234.12030640000012,234.13556089997292,235.13615739997476,235.11999759997707,0.8972887999843806,None,,,,,,,,,,,,,,,,,,,,,,,,,,,,,,,,,,,,,,,,,,,,,,,,,,,,,,,,,,,,,,,,,,,,,,,,,,,,,,,,,,,,B_5,001,2024-11-28_11h35.19.028,untitled,2024.1.5,None,2024-11-28 11h35.31.908811 +0530,
square.png,you,1,M,,,,,,,,,13,1,53,0,,,,,,,,,235.13615739997476,,,,,,,,,,,,,,,,,,,,,,,,,,,,,,,,,,235.1203485999722,235.13615739997476,235.62002949998714,235.62002949998714,235.62002949998714,235.62002949998714,235.6366393000353,235.91996059997473,235.91996059997473,235.91996059997473,,236.0872389000142,m,236.08765859995037,236.10334269993473,237.10387350001838,237.0877155000344,0.45149520004633814,None,,,,,,,,,,,,,,,,,,,,,,,,,,,,,,,,,,,,,,,,,,,,,,,,,,,,,,,,,,,,,,,,,,,,,,,,,,,,,,,,,,,,B_5,001,2024-11-28_11h35.19.028,untitled,2024.1.5,None,2024-11-28 11h35.31.908811 +0530,
triangle.png,you,0,Z,,,,,,,,,13,2,54,3,,,,,,,,,237.10387350001838,,,,,,,,,,,,,,,,,,,,,,,,,,,,,,,,,,237.0880632000044,237.10387350001838,237.58751849993132,237.58751849993132,237.58751849993132,237.58751849993132,237.60429859999567,237.88765980000608,237.88765980000608,237.88765980000608,,238.52209169999696,z,238.52251129993238,238.53785490000155,239.5387537999777,239.52212690003216,0.9196894998895004,None,,,,,,,,,,,,,,,,,,,,,,,,,,,,,,,,,,,,,,,,,,,,,,,,,,,,,,,,,,,,,,,,,,,,,,,,,,,,,,,,,,,,B_5,001,2024-11-28_11h35.19.028,untitled,2024.1.5,None,2024-11-28 11h35.31.908811 +0530,
triangle.png,stranger,1,M,,,,,,,,,13,3,55,1,,,,,,,,,239.5387537999777,,,,,,,,,,,,,,,,,,,,,,,,,,,,,,,,,,239.52247329999227,239.5387537999777,240.02248449996114,240.02248449996114,240.02248449996114,240.02248449996114,240.03869319998194,240.32215819996782,240.32215819996782,240.32215819996782,,240.97323559992947,m,240.97365289996378,240.9893309000181,241.9895662999479,241.97335099999327,0.9452104000374675,None,,,,,,,,,,,,,,,,,,,,,,,,,,,,,,,,,,,,,,,,,,,,,,,,,,,,,,,,,,,,,,,,,,,,,,,,,,,,,,,,,,,,B_5,001,2024-11-28_11h35.19.028,untitled,2024.1.5,None,2024-11-28 11h35.31.908811 +0530,
square.png,you,1,M,,,,,,,,,14,0,56,0,,,,,,,,,241.9895662999479,,,,,,,,,,,,,,,,,,,,,,,,,,,,,,,,,,241.9736944999313,241.9895662999479,242.47330700000748,242.47330700000748,242.47330700000748,242.47330700000748,242.49018740002066,242.7734146999428,242.7734146999428,242.7734146999428,,243.22461179993115,z,243.22503049997613,243.24050229997374,244.24091359996237,244.22446129994933,0.7388092000037432,None,,,,,,,,,,,,,,,,,,,,,,,,,,,,,,,,,,,,,,,,,,,,,,,,,,,,,,,,,,,,,,,,,,,,,,,,,,,,,,,,,,,,B_5,001,2024-11-28_11h35.19.028,untitled,2024.1.5,None,2024-11-28 11h35.31.908811 +0530,
triangle.png,stranger,1,M,,,,,,,,,14,1,57,1,,,,,,,,,244.24091359996237,,,,,,,,,,,,,,,,,,,,,,,,,,,,,,,,,,244.22481119993608,244.24091359996237,244.72476080001798,244.72476080001798,244.72476080001798,244.72476080001798,244.74125670001376,245.0245949999662,245.0245949999662,245.0245949999662,,245.60911039996427,m,245.60953040001914,245.62510469998233,246.62527560000308,246.60922909993678,0.8796829999191687,None,,,,,,,,,,,,,,,,,,,,,,,,,,,,,,,,,,,,,,,,,,,,,,,,,,,,,,,,,,,,,,,,,,,,,,,,,,,,,,,,,,,,B_5,001,2024-11-28_11h35.19.028,untitled,2024.1.5,None,2024-11-28 11h35.31.908811 +0530,
square.png,stranger,0,Z,,,,,,,,,14,2,58,2,,,,,,,,,246.62527560000308,,,,,,,,,,,,,,,,,,,,,,,,,,,,,,,,,,246.60957079997752,246.62527560000308,247.10913529992104,247.10913529992104,247.10913529992104,247.10913529992104,247.1257048000116,247.40906229999382,247.40906229999382,247.40906229999382,,247.94347820000257,z,247.943904499989,247.9595629000105,248.96012599999085,248.94367690000217,0.8187722999136895,None,,,,,,,,,,,,,,,,,,,,,,,,,,,,,,,,,,,,,,,,,,,,,,,,,,,,,,,,,,,,,,,,,,,,,,,,,,,,,,,,,,,,B_5,001,2024-11-28_11h35.19.028,untitled,2024.1.5,None,2024-11-28 11h35.31.908811 +0530,
triangle.png,you,0,Z,,,,,,,,,14,3,59,3,,,,,,,,,248.96012599999085,,,,,,,,,,,,,,,,,,,,,,,,,,,,,,,,,,248.9440255999798,248.96012599999085,249.44375249999575,249.44375249999575,249.44375249999575,249.44375249999575,249.46043879992794,249.7437810000265,249.7437810000265,249.7437810000265,250.5437602000311,250.5274241999723,None,250.52760539995506,250.5437602000311,251.54457629995886,251.52840539999306,,,,,,,,,,,,,,,,,,,,,,,,,,,,,,,,,,,,,,,,,,,,,,,,,,,,,,,,,,,,,,,,,,,,,,,,,,,,,,,,,,,,,,B_5,001,2024-11-28_11h35.19.028,untitled,2024.1.5,None,2024-11-28 11h35.31.908811 +0530,
triangle.png,you,0,Z,,,,,,,,,15,0,60,3,,,,,,,,,251.54457629995886,,,,,,,,,,,,,,,,,,,,,,,,,,,,,,,,,,251.52875990001485,251.54457629995886,252.0450748000294,252.0450748000294,252.0450748000294,252.0450748000294,252.0450748000294,252.34495269996114,252.34495269996114,252.34495269996114,,252.77919239993207,z,252.77961500000674,252.79531299998052,253.79566669999622,253.77981209999416,0.7305618000682443,None,,,,,,,,,,,,,,,,,,,,,,,,,,,,,,,,,,,,,,,,,,,,,,,,,,,,,,,,,,,,,,,,,,,,,,,,,,,,,,,,,,,,B_5,001,2024-11-28_11h35.19.028,untitled,2024.1.5,None,2024-11-28 11h35.31.908811 +0530,
triangle.png,stranger,1,M,,,,,,,,,15,1,61,1,,,,,,,,,253.79566669999622,,,,,,,,,,,,,,,,,,,,,,,,,,,,,,,,,,253.7801617999794,253.79566669999622,254.27955229999498,254.27955229999498,254.27955229999498,254.27955229999498,254.2959784999257,254.57936029997654,254.57936029997654,254.57936029997654,,255.08059819997288,m,255.0810173000209,255.09648750000633,256.0971496999264,256.0809347999748,0.7913026999449357,None,,,,,,,,,,,,,,,,,,,,,,,,,,,,,,,,,,,,,,,,,,,,,,,,,,,,,,,,,,,,,,,,,,,,,,,,,,,,,,,,,,,,B_5,001,2024-11-28_11h35.19.028,untitled,2024.1.5,None,2024-11-28 11h35.31.908811 +0530,
square.png,you,1,M,,,,,,,,,15,2,62,0,,,,,,,,,256.0971496999264,,,,,,,,,,,,,,,,,,,,,,,,,,,,,,,,,,256.0812803999288,256.0971496999264,256.58054240001366,256.58054240001366,256.58054240001366,256.58054240001366,256.5971532999538,256.88055190001614,256.88055190001614,256.88055190001614,,257.3150186999701,m,257.31544129992835,257.3308125999756,258.3314699999755,258.3152328999713,0.7316204999806359,None,,,,,,,,,,,,,,,,,,,,,,,,,,,,,,,,,,,,,,,,,,,,,,,,,,,,,,,,,,,,,,,,,,,,,,,,,,,,,,,,,,,,B_5,001,2024-11-28_11h35.19.028,untitled,2024.1.5,None,2024-11-28 11h35.31.908811 +0530,
square.png,stranger,0,Z,,,,,,,,,15,3,63,2,,,,,,,,,258.3314699999755,,,,,,,,,,,,,,,,,,,,,,,,,,,,,,,,,,258.31560019997414,258.3314699999755,258.8152771999594,258.8152771999594,258.8152771999594,258.8152771999594,258.8318976999726,259.1152223999379,259.1152223999379,259.1152223999379,,259.6995504000224,z,259.69997149996925,259.7156332000159,260.7159582999302,260.6999305000063,0.8769533999729902,None,,,,,,,,,,,,,,,,,,,,,,,,,,,,,,,,,,,,,,,,,,,,,,,,,,,,,,,,,,,,,,,,,,,,,,,,,,,,,,,,,,,,B_5,001,2024-11-28_11h35.19.028,untitled,2024.1.5,None,2024-11-28 11h35.31.908811 +0530,
square.png,stranger,0,Z,,,,,,,,,16,0,64,2,,,,,,,,,260.7159582999302,,,,,,,,,,,,,,,,,,,,,,,,,,,,,,,,,,260.70027779997326,260.7159582999302,261.1996989999898,261.1996989999898,261.1996989999898,261.1996989999898,261.21627650002483,261.49978620000184,261.49978620000184,261.49978620000184,,261.95055109995883,z,261.9509656999726,261.96668109996244,262.9670248000184,262.9507876000134,0.7350909999804571,None,,,,,,,,,,,,,,,,,,,,,,,,,,,,,,,,,,,,,,,,,,,,,,,,,,,,,,,,,,,,,,,,,,,,,,,,,,,,,,,,,,,,B_5,001,2024-11-28_11h35.19.028,untitled,2024.1.5,None,2024-11-28 11h35.31.908811 +0530,
triangle.png,stranger,1,M,,,,,,,,,16,1,65,1,,,,,,,,,262.9670248000184,,,,,,,,,,,,,,,,,,,,,,,,,,,,,,,,,,262.9511325999629,262.9670248000184,263.4510093999561,263.4510093999561,263.4510093999561,263.4510093999561,263.46742240001913,263.7508116000099,263.7508116000099,263.7508116000099,,264.0852013999829,m,264.0856272999663,264.10105579998344,265.10150180000346,265.0852574999444,0.6324038000311702,None,,,,,,,,,,,,,,,,,,,,,,,,,,,,,,,,,,,,,,,,,,,,,,,,,,,,,,,,,,,,,,,,,,,,,,,,,,,,,,,,,,,,B_5,001,2024-11-28_11h35.19.028,untitled,2024.1.5,None,2024-11-28 11h35.31.908811 +0530,
square.png,you,1,M,,,,,,,,,16,2,66,0,,,,,,,,,265.10150180000346,,,,,,,,,,,,,,,,,,,,,,,,,,,,,,,,,,265.0856042000232,265.10150180000346,265.58517340000253,265.58517340000253,265.58517340000253,265.58517340000253,265.6020028999774,265.8851737999357,265.8851737999357,265.8851737999357,,266.26957609993406,m,266.2699948999798,266.28561969997827,267.28617320000194,267.269884099951,0.6751076999353245,None,,,,,,,,,,,,,,,,,,,,,,,,,,,,,,,,,,,,,,,,,,,,,,,,,,,,,,,,,,,,,,,,,,,,,,,,,,,,,,,,,,,,B_5,001,2024-11-28_11h35.19.028,untitled,2024.1.5,None,2024-11-28 11h35.31.908811 +0530,
triangle.png,you,0,Z,,,,,,,,,16,3,67,3,,,,,,,,,267.28617320000194,,,,,,,,,,,,,,,,,,,,,,,,,,,,,,,,,,267.27023279992864,267.28617320000194,267.7697077000048,267.7697077000048,267.7697077000048,267.7697077000048,267.78631519991904,268.0695972000249,268.0695972000249,268.0695972000249,,268.4206411000341,z,268.4210645999992,268.43656069994904,269.43718040001113,269.4208967000013,0.6450833999551833,None,,,,,,,,,,,,,,,,,,,,,,,,,,,,,,,,,,,,,,,,,,,,,,,,,,,,,,,,,,,,,,,,,,,,,,,,,,,,,,,,,,,,B_5,001,2024-11-28_11h35.19.028,untitled,2024.1.5,None,2024-11-28 11h35.31.908811 +0530,
square.png,you,1,M,,,,,,,,,17,0,68,0,,,,,,,,,269.43718040001113,,,,,,,,,,,,,,,,,,,,,,,,,,,,,,,,,,269.421250400017,269.43718040001113,269.9207328000339,269.9207328000339,269.9207328000339,269.9207328000339,269.9375165000092,270.22076900000684,270.22076900000684,270.22076900000684,,270.7387455999851,m,270.7391785000218,270.754557200009,271.7551243000198,271.73884200002067,0.8152149999514222,None,,,,,,,,,,,,,,,,,,,,,,,,,,,,,,,,,,,,,,,,,,,,,,,,,,,,,,,,,,,,,,,,,,,,,,,,,,,,,,,,,,,,B_5,001,2024-11-28_11h35.19.028,untitled,2024.1.5,None,2024-11-28 11h35.31.908811 +0530,
square.png,stranger,0,Z,,,,,,,,,17,1,69,2,,,,,,,,,271.7551243000198,,,,,,,,,,,,,,,,,,,,,,,,,,,,,,,,,,271.7391910000006,271.7551243000198,272.2385562999407,272.2385562999407,272.2385562999407,272.2385562999407,272.25538709992543,272.53864839999005,272.53864839999005,272.53864839999005,,272.97310970001854,z,272.97352719993796,272.9890984999947,273.9894488999853,273.9731958999764,0.7332408000947908,None,,,,,,,,,,,,,,,,,,,,,,,,,,,,,,,,,,,,,,,,,,,,,,,,,,,,,,,,,,,,,,,,,,,,,,,,,,,,,,,,,,,,B_5,001,2024-11-28_11h35.19.028,untitled,2024.1.5,None,2024-11-28 11h35.31.908811 +0530,
triangle.png,you,0,Z,,,,,,,,,17,2,70,3,,,,,,,,,273.9894488999853,,,,,,,,,,,,,,,,,,,,,,,,,,,,,,,,,,273.9735461999662,273.9894488999853,274.4734181999229,274.4734181999229,274.4734181999229,274.4734181999229,274.4898019999964,274.77313669992145,274.77313669992145,274.77313669992145,,275.40746609994676,z,275.4078867000062,275.42351599992253,276.4241727000335,276.40779710002244,0.9261287999106571,None,,,,,,,,,,,,,,,,,,,,,,,,,,,,,,,,,,,,,,,,,,,,,,,,,,,,,,,,,,,,,,,,,,,,,,,,,,,,,,,,,,,,B_5,001,2024-11-28_11h35.19.028,untitled,2024.1.5,None,2024-11-28 11h35.31.908811 +0530,
triangle.png,stranger,1,M,,,,,,,,,17,3,71,1,,,,,,,,,276.4241727000335,,,,,,,,,,,,,,,,,,,,,,,,,,,,,,,,,,276.4081422999734,276.4241727000335,276.9079640000127,276.9079640000127,276.9079640000127,276.9079640000127,276.9243144999491,277.20753050001804,277.20753050001804,277.20753050001804,278.00823719997425,277.99211619992275,None,277.9923036999535,278.00823719997425,279.0086186999688,278.99263799993787,,,,,,,,,,,,,,,,,,,,,,,,,,,,,,,,,,,,,,,,,,,,,,,,,,,,,,,,,,,,,,,,,,,,,,,,,,,,,,,,,,,,,,B_5,001,2024-11-28_11h35.19.028,untitled,2024.1.5,None,2024-11-28 11h35.31.908811 +0530,
triangle.png,you,0,Z,,,,,,,,,18,0,72,3,,,,,,,,,279.0086186999688,,,,,,,,,,,,,,,,,,,,,,,,,,,,,,,,,,278.99298759992234,279.0086186999688,279.5090376000153,279.5090376000153,279.5090376000153,279.5090376000153,279.5090376000153,279.80900240002666,279.80900240002666,279.80900240002666,,280.3600995999295,z,280.3605380000081,280.37617159995716,281.37669449998066,281.36051869997755,0.8418517999816686,None,,,,,,,,,,,,,,,,,,,,,,,,,,,,,,,,,,,,,,,,,,,,,,,,,,,,,,,,,,,,,,,,,,,,,,,,,,,,,,,,,,,,B_5,001,2024-11-28_11h35.19.028,untitled,2024.1.5,None,2024-11-28 11h35.31.908811 +0530,
square.png,you,1,M,,,,,,,,,18,1,73,0,,,,,,,,,281.37669449998066,,,,,,,,,,,,,,,,,,,,,,,,,,,,,,,,,,281.3608672999544,281.37669449998066,281.8604193999199,281.8604193999199,281.8604193999199,281.8604193999199,281.8767814999446,282.1602340999525,282.1602340999525,282.1602340999525,,282.4278646999737,m,282.42828170000575,282.44395019998774,283.44425469997805,283.4280194999883,0.5599246999481693,None,,,,,,,,,,,,,,,,,,,,,,,,,,,,,,,,,,,,,,,,,,,,,,,,,,,,,,,,,,,,,,,,,,,,,,,,,,,,,,,,,,,,B_5,001,2024-11-28_11h35.19.028,untitled,2024.1.5,None,2024-11-28 11h35.31.908811 +0530,
square.png,stranger,0,Z,,,,,,,,,18,2,74,2,,,,,,,,,283.44425469997805,,,,,,,,,,,,,,,,,,,,,,,,,,,,,,,,,,283.42836449993774,283.44425469997805,283.9281682999572,283.9281682999572,283.9281682999572,283.9281682999572,283.9448238000041,284.22820629994385,284.22820629994385,284.22820629994385,,284.895913299988,z,284.8963362999493,284.9117597999284,285.9122086999705,285.8961946000345,0.9521885000867769,None,,,,,,,,,,,,,,,,,,,,,,,,,,,,,,,,,,,,,,,,,,,,,,,,,,,,,,,,,,,,,,,,,,,,,,,,,,,,,,,,,,,,B_5,001,2024-11-28_11h35.19.028,untitled,2024.1.5,None,2024-11-28 11h35.31.908811 +0530,
triangle.png,stranger,1,M,,,,,,,,,18,3,75,1,,,,,,,,,285.9122086999705,,,,,,,,,,,,,,,,,,,,,,,,,,,,,,,,,,285.8965454000281,285.9122086999705,286.39606870000716,286.39606870000716,286.39606870000716,286.39606870000716,286.4125287999632,286.69610119995195,286.69610119995195,286.69610119995195,,287.44708670000546,m,287.44751440000255,287.46309700002894,288.46360789996106,288.4473998999456,1.0346876999828964,None,,,,,,,,,,,,,,,,,,,,,,,,,,,,,,,,,,,,,,,,,,,,,,,,,,,,,,,,,,,,,,,,,,,,,,,,,,,,,,,,,,,,B_5,001,2024-11-28_11h35.19.028,untitled,2024.1.5,None,2024-11-28 11h35.31.908811 +0530,
square.png,you,1,M,,,,,,,,,19,0,76,0,,,,,,,,,288.46360789996106,,,,,,,,,,,,,,,,,,,,,,,,,,,,,,,,,,288.4477464000229,288.46360789996106,288.94744220003486,288.94744220003486,288.94744220003486,288.94744220003486,288.9637350999983,289.24736889998894,289.24736889998894,289.24736889998894,290.04794079996645,290.031257799943,None,290.03144699998666,290.04794079996645,291.0483446000144,291.031903999974,,,,,,,,,,,,,,,,,,,,,,,,,,,,,,,,,,,,,,,,,,,,,,,,,,,,,,,,,,,,,,,,,,,,,,,,,,,,,,,,,,,,,,B_5,001,2024-11-28_11h35.19.028,untitled,2024.1.5,None,2024-11-28 11h35.31.908811 +0530,
square.png,stranger,0,Z,,,,,,,,,19,1,77,2,,,,,,,,,291.0483446000144,,,,,,,,,,,,,,,,,,,,,,,,,,,,,,,,,,291.0322551999707,291.0483446000144,291.5487157999305,291.5487157999305,291.5487157999305,291.5487157999305,291.5487157999305,291.8487346000038,291.8487346000038,291.8487346000038,,292.3329904000275,z,292.3334244999569,292.3488748000236,293.3495317000197,293.3330288999714,0.7682340000756085,None,,,,,,,,,,,,,,,,,,,,,,,,,,,,,,,,,,,,,,,,,,,,,,,,,,,,,,,,,,,,,,,,,,,,,,,,,,,,,,,,,,,,B_5,001,2024-11-28_11h35.19.028,untitled,2024.1.5,None,2024-11-28 11h35.31.908811 +0530,
triangle.png,you,0,Z,,,,,,,,,19,2,78,3,,,,,,,,,293.3495317000197,,,,,,,,,,,,,,,,,,,,,,,,,,,,,,,,,,293.33338169998024,293.3495317000197,293.8331613999326,293.8331613999326,293.8331613999326,293.8331613999326,293.84990499995183,294.13320479996037,294.13320479996037,294.13320479996037,,294.55066619999707,m,294.55109049996827,294.5667706999229,295.5672575000208,295.5510527000297,0.705687600071542,None,,,,,,,,,,,,,,,,,,,,,,,,,,,,,,,,,,,,,,,,,,,,,,,,,,,,,,,,,,,,,,,,,,,,,,,,,,,,,,,,,,,,B_5,001,2024-11-28_11h35.19.028,untitled,2024.1.5,None,2024-11-28 11h35.31.908811 +0530,
triangle.png,stranger,1,M,,,,,,,,,19,3,79,1,,,,,,,,,295.5672575000208,,,,,,,,,,,,,,,,,,,,,,,,,,,,,,,,,,295.551401100005,295.5672575000208,296.0510680000298,296.0510680000298,296.0510680000298,296.0510680000298,296.0676586999325,296.35097949998453,296.35097949998453,296.35097949998453,,296.7852615999291,z,296.7856813999824,296.801246899995,297.80187399999704,297.78538719995413,0.7206237999489531,None,,,,,,,,,,,,,,,,,,,,,,,,,,,,,,,,,,,,,,,,,,,,,,,,,,,,,,,,,,,,,,,,,,,,,,,,,,,,,,,,,,,,B_5,001,2024-11-28_11h35.19.028,untitled,2024.1.5,None,2024-11-28 11h35.31.908811 +0530,
square.png,stranger,0,Z,,,,,,,,,20,0,80,2,,,,,,,,,297.80187399999704,,,,,,,,,,,,,,,,,,,,,,,,,,,,,,,,,,297.7857421999797,297.80187399999704,298.2855012000073,298.2855012000073,298.2855012000073,298.2855012000073,298.301982200006,298.58557929995004,298.58557929995004,298.58557929995004,,299.1364688000176,z,299.1368962000124,299.1523116999306,300.15299480000976,300.1366543000331,0.8387062000110745,None,,,,,,,,,,,,,,,,,,,,,,,,,,,,,,,,,,,,,,,,,,,,,,,,,,,,,,,,,,,,,,,,,,,,,,,,,,,,,,,,,,,,B_5,001,2024-11-28_11h35.19.028,untitled,2024.1.5,None,2024-11-28 11h35.31.908811 +0530,
triangle.png,you,0,Z,,,,,,,,,20,1,81,3,,,,,,,,,300.15299480000976,,,,,,,,,,,,,,,,,,,,,,,,,,,,,,,,,,300.13700170000084,300.15299480000976,300.63676050002687,300.63676050002687,300.63676050002687,300.63676050002687,300.6533353999257,300.93654379993677,300.93654379993677,300.93654379993677,,301.537587699946,m,301.5380125999218,301.55374459992163,302.55429769994225,302.5377640000079,0.8871873000171036,None,,,,,,,,,,,,,,,,,,,,,,,,,,,,,,,,,,,,,,,,,,,,,,,,,,,,,,,,,,,,,,,,,,,,,,,,,,,,,,,,,,,,B_5,001,2024-11-28_11h35.19.028,untitled,2024.1.5,None,2024-11-28 11h35.31.908811 +0530,
square.png,you,1,M,,,,,,,,,20,2,82,0,,,,,,,,,302.55429769994225,,,,,,,,,,,,,,,,,,,,,,,,,,,,,,,,,,302.5381158000091,302.55429769994225,303.0378443999216,303.0378443999216,303.0378443999216,303.0378443999216,303.0543632999761,303.33782419993076,303.33782419993076,303.33782419993076,,303.62214759993367,m,303.62256729998626,303.63785259996075,304.63855499995407,304.6226535999449,0.5771471000043675,None,,,,,,,,,,,,,,,,,,,,,,,,,,,,,,,,,,,,,,,,,,,,,,,,,,,,,,,,,,,,,,,,,,,,,,,,,,,,,,,,,,,,B_5,001,2024-11-28_11h35.19.028,untitled,2024.1.5,None,2024-11-28 11h35.31.908811 +0530,
triangle.png,stranger,1,M,,,,,,,,,20,3,83,1,,,,,,,,,304.63855499995407,,,,,,,,,,,,,,,,,,,,,,,,,,,,,,,,,,304.6230033999309,304.63855499995407,305.12212750001345,305.12212750001345,305.12212750001345,305.12212750001345,305.13873899995815,305.4223460999783,305.4223460999783,305.4223460999783,,305.8231593000237,m,305.82357360003516,305.83927210001275,306.8397409999743,306.8234045000281,0.6975117999827489,None,,,,,,,,,,,,,,,,,,,,,,,,,,,,,,,,,,,,,,,,,,,,,,,,,,,,,,,,,,,,,,,,,,,,,,,,,,,,,,,,,,,,B_5,001,2024-11-28_11h35.19.028,untitled,2024.1.5,None,2024-11-28 11h35.31.908811 +0530,
square.png,you,1,M,,,,,,,,,21,0,84,0,,,,,,,,,306.8397409999743,,,,,,,,,,,,,,,,,,,,,,,,,,,,,,,,,,306.8237522999989,306.8397409999743,307.3232836999232,307.3232836999232,307.3232836999232,307.3232836999232,307.34009770001285,307.6234987999778,307.6234987999778,307.6234987999778,,308.057694899966,m,308.05811859993264,308.0734678999288,309.07433039997704,309.0577522999374,0.7323230999754742,None,,,,,,,,,,,,,,,,,,,,,,,,,,,,,,,,,,,,,,,,,,,,,,,,,,,,,,,,,,,,,,,,,,,,,,,,,,,,,,,,,,,,B_5,001,2024-11-28_11h35.19.028,untitled,2024.1.5,None,2024-11-28 11h35.31.908811 +0530,
square.png,stranger,0,Z,,,,,,,,,21,1,85,2,,,,,,,,,309.07433039997704,,,,,,,,,,,,,,,,,,,,,,,,,,,,,,,,,,309.0581001000246,309.07433039997704,309.5577347999206,309.5577347999206,309.5577347999206,309.5577347999206,309.5744787999429,309.8577799999621,309.8577799999621,309.8577799999621,,310.12532560003456,z,310.12574549997225,310.14149079995696,311.1419275000226,311.1255508000031,0.5627940999111161,None,,,,,,,,,,,,,,,,,,,,,,,,,,,,,,,,,,,,,,,,,,,,,,,,,,,,,,,,,,,,,,,,,,,,,,,,,,,,,,,,,,,,B_5,001,2024-11-28_11h35.19.028,untitled,2024.1.5,None,2024-11-28 11h35.31.908811 +0530,
triangle.png,stranger,1,M,,,,,,,,,21,2,86,1,,,,,,,,,311.1419275000226,,,,,,,,,,,,,,,,,,,,,,,,,,,,,,,,,,311.1258987999754,311.1419275000226,311.62560989998747,311.62560989998747,311.62560989998747,311.62560989998747,311.6420932000037,311.9257992999628,311.9257992999628,311.9257992999628,312.7260025999276,312.70987349993084,None,312.71006239997223,312.7260025999276,313.72640479996335,313.7102903999621,,,,,,,,,,,,,,,,,,,,,,,,,,,,,,,,,,,,,,,,,,,,,,,,,,,,,,,,,,,,,,,,,,,,,,,,,,,,,,,,,,,,,,B_5,001,2024-11-28_11h35.19.028,untitled,2024.1.5,None,2024-11-28 11h35.31.908811 +0530,
triangle.png,you,0,Z,,,,,,,,,21,3,87,3,,,,,,,,,313.72640479996335,,,,,,,,,,,,,,,,,,,,,,,,,,,,,,,,,,313.71064629999455,313.72640479996335,314.2268948999699,314.2268948999699,314.2268948999699,314.2268948999699,314.2268948999699,314.52683500002604,314.52683500002604,314.52683500002604,,314.711111899931,m,314.7115357000148,314.72711530001834,315.72747099993285,315.7112594000064,0.4772952999919653,None,,,,,,,,,,,,,,,,,,,,,,,,,,,,,,,,,,,,,,,,,,,,,,,,,,,,,,,,,,,,,,,,,,,,,,,,,,,,,,,,,,,,B_5,001,2024-11-28_11h35.19.028,untitled,2024.1.5,None,2024-11-28 11h35.31.908811 +0530,
triangle.png,you,0,Z,,,,,,,,,22,0,88,3,,,,,,,,,315.72747099993285,,,,,,,,,,,,,,,,,,,,,,,,,,,,,,,,,,315.7116109000053,315.72747099993285,316.2112693999661,316.2112693999661,316.2112693999661,316.2112693999661,316.2278932000045,316.51121639995836,316.51121639995836,316.51121639995836,,316.91214079991914,z,316.9125623999862,316.92832830001134,317.92882089992054,317.9125511000166,0.6956891000736505,None,,,,,,,,,,,,,,,,,,,,,,,,,,,,,,,,,,,,,,,,,,,,,,,,,,,,,,,,,,,,,,,,,,,,,,,,,,,,,,,,,,,,B_5,001,2024-11-28_11h35.19.028,untitled,2024.1.5,None,2024-11-28 11h35.31.908811 +0530,
square.png,stranger,0,Z,,,,,,,,,22,1,89,2,,,,,,,,,317.92882089992054,,,,,,,,,,,,,,,,,,,,,,,,,,,,,,,,,,317.91290300001856,317.92882089992054,318.4125004999805,318.4125004999805,318.4125004999805,318.4125004999805,318.42912410001736,318.71235099993646,318.71235099993646,318.71235099993646,,319.21361769991927,z,319.2140414000023,319.22949870000593,320.2297670999542,320.21381620003376,0.7992516000522301,None,,,,,,,,,,,,,,,,,,,,,,,,,,,,,,,,,,,,,,,,,,,,,,,,,,,,,,,,,,,,,,,,,,,,,,,,,,,,,,,,,,,,B_5,001,2024-11-28_11h35.19.028,untitled,2024.1.5,None,2024-11-28 11h35.31.908811 +0530,
triangle.png,stranger,1,M,,,,,,,,,22,2,90,1,,,,,,,,,320.2297670999542,,,,,,,,,,,,,,,,,,,,,,,,,,,,,,,,,,320.21416269999463,320.2297670999542,320.71380199992564,320.71380199992564,320.71380199992564,320.71380199992564,320.73044459999073,321.0137387999566,321.0137387999566,321.0137387999566,,321.7647069999948,m,321.76512959995307,321.7808517999947,322.7813250999898,322.76504119997844,1.0451383999316022,None,,,,,,,,,,,,,,,,,,,,,,,,,,,,,,,,,,,,,,,,,,,,,,,,,,,,,,,,,,,,,,,,,,,,,,,,,,,,,,,,,,,,B_5,001,2024-11-28_11h35.19.028,untitled,2024.1.5,None,2024-11-28 11h35.31.908811 +0530,
square.png,you,1,M,,,,,,,,,22,3,91,0,,,,,,,,,322.7813250999898,,,,,,,,,,,,,,,,,,,,,,,,,,,,,,,,,,322.7653921999736,322.7813250999898,323.2650987999514,323.2650987999514,323.2650987999514,323.2650987999514,323.2814481999958,323.5650294999359,323.5650294999359,323.5650294999359,,323.9492564999964,m,323.9496718000155,323.9650115999393,324.9655676999828,324.94953729992267,0.6739333000732586,None,,,,,,,,,,,,,,,,,,,,,,,,,,,,,,,,,,,,,,,,,,,,,,,,,,,,,,,,,,,,,,,,,,,,,,,,,,,,,,,,,,,,B_5,001,2024-11-28_11h35.19.028,untitled,2024.1.5,None,2024-11-28 11h35.31.908811 +0530,
triangle.png,you,0,Z,,,,,,,,,23,0,92,3,,,,,,,,,324.9655676999828,,,,,,,,,,,,,,,,,,,,,,,,,,,,,,,,,,324.94991750002373,324.9655676999828,325.44928409997374,325.44928409997374,325.44928409997374,325.44928409997374,325.4660887999926,325.7494615999749,325.7494615999749,325.7494615999749,,326.1171005999204,z,326.1175194999669,326.13288739998825,327.1333964000223,327.1172456999775,0.6615262000123039,None,,,,,,,,,,,,,,,,,,,,,,,,,,,,,,,,,,,,,,,,,,,,,,,,,,,,,,,,,,,,,,,,,,,,,,,,,,,,,,,,,,,,B_5,001,2024-11-28_11h35.19.028,untitled,2024.1.5,None,2024-11-28 11h35.31.908811 +0530,
square.png,stranger,0,Z,,,,,,,,,23,1,93,2,,,,,,,,,327.1333964000223,,,,,,,,,,,,,,,,,,,,,,,,,,,,,,,,,,327.11759559996426,327.1333964000223,327.61733089992777,327.61733089992777,327.61733089992777,327.61733089992777,327.6337004000088,327.91709959995933,327.91709959995933,327.91709959995933,,328.6516809000168,m,328.6521027999697,328.6675754999742,329.6680046999827,329.65189859992824,1.0230686999857426,None,,,,,,,,,,,,,,,,,,,,,,,,,,,,,,,,,,,,,,,,,,,,,,,,,,,,,,,,,,,,,,,,,,,,,,,,,,,,,,,,,,,,B_5,001,2024-11-28_11h35.19.028,untitled,2024.1.5,None,2024-11-28 11h35.31.908811 +0530,
triangle.png,stranger,1,M,,,,,,,,,23,2,94,1,,,,,,,,,329.6680046999827,,,,,,,,,,,,,,,,,,,,,,,,,,,,,,,,,,329.652250599931,329.6680046999827,330.1517723000143,330.1517723000143,330.1517723000143,330.1517723000143,330.16840900003444,330.4518817999633,330.4518817999633,330.4518817999633,,330.9529632999329,m,330.9533829999855,330.968654199969,331.9693805000279,331.95319010003004,0.792488000006415,None,,,,,,,,,,,,,,,,,,,,,,,,,,,,,,,,,,,,,,,,,,,,,,,,,,,,,,,,,,,,,,,,,,,,,,,,,,,,,,,,,,,,B_5,001,2024-11-28_11h35.19.028,untitled,2024.1.5,None,2024-11-28 11h35.31.908811 +0530,
square.png,you,1,M,,,,,,,,,23,3,95,0,,,,,,,,,331.9693805000279,,,,,,,,,,,,,,,,,,,,,,,,,,,,,,,,,,331.9535358999856,331.9693805000279,332.45311220001895,332.45311220001895,332.45311220001895,332.45311220001895,332.4694202999817,332.75302800000645,332.75302800000645,332.75302800000645,,333.40415319998283,m,333.4045765999472,333.4202695999993,334.42080989992246,334.4044022000162,0.9469454999780282,None,,,,,,,,,,,,,,,,,,,,,,,,,,,,,,,,,,,,,,,,,,,,,,,,,,,,,,,,,,,,,,,,,,,,,,,,,,,,,,,,,,,,B_5,001,2024-11-28_11h35.19.028,untitled,2024.1.5,None,2024-11-28 11h35.31.908811 +0530,
triangle.png,you,0,Z,,,,,,,,,24,0,96,3,,,,,,,,,334.42080989992246,,,,,,,,,,,,,,,,,,,,,,,,,,,,,,,,,,334.4047514999984,334.42080989992246,334.9041819999693,334.9041819999693,334.9041819999693,334.9041819999693,334.92076649994124,335.20428009994794,335.20428009994794,335.20428009994794,,335.73865059996024,z,335.7390727000311,335.75445130001754,336.75492320000194,336.7390799999703,0.8282808000221848,None,,,,,,,,,,,,,,,,,,,,,,,,,,,,,,,,,,,,,,,,,,,,,,,,,,,,,,,,,,,,,,,,,,,,,,,,,,,,,,,,,,,,B_5,001,2024-11-28_11h35.19.028,untitled,2024.1.5,None,2024-11-28 11h35.31.908811 +0530,
square.png,stranger,0,Z,,,,,,,,,24,1,97,2,,,,,,,,,336.75492320000194,,,,,,,,,,,,,,,,,,,,,,,,,,,,,,,,,,336.739429499954,336.75492320000194,337.23864340002183,337.23864340002183,337.23864340002183,337.23864340002183,337.2553201999981,337.5386054000119,337.5386054000119,337.5386054000119,,338.0732463999884,z,338.0736693999497,338.0891842999263,339.089675599942,339.0734486000147,0.8326907999580726,None,,,,,,,,,,,,,,,,,,,,,,,,,,,,,,,,,,,,,,,,,,,,,,,,,,,,,,,,,,,,,,,,,,,,,,,,,,,,,,,,,,,,B_5,001,2024-11-28_11h35.19.028,untitled,2024.1.5,None,2024-11-28 11h35.31.908811 +0530,
triangle.png,stranger,1,M,,,,,,,,,24,2,98,1,,,,,,,,,339.089675599942,,,,,,,,,,,,,,,,,,,,,,,,,,,,,,,,,,339.073792799958,339.089675599942,339.57323129998986,339.57323129998986,339.57323129998986,339.57323129998986,339.58959160000086,339.8730751000112,339.8730751000112,339.8730751000112,340.673634900013,340.6572772000218,None,340.6574696999742,340.673634900013,341.67429370002355,341.65801180002745,,,,,,,,,,,,,,,,,,,,,,,,,,,,,,,,,,,,,,,,,,,,,,,,,,,,,,,,,,,,,,,,,,,,,,,,,,,,,,,,,,,,,,B_5,001,2024-11-28_11h35.19.028,untitled,2024.1.5,None,2024-11-28 11h35.31.908811 +0530,
square.png,you,1,M,,,,,,,,,24,3,99,0,,,,,,,,,341.67429370002355,,,,,,,,,,,,,,,,,,,,,,,,,,,,,,,,,,341.65836080000736,341.67429370002355,342.17449160001706,342.17449160001706,342.17449160001706,342.17449160001706,342.17449160001706,342.474664999987,342.474664999987,342.474664999987,,342.75879969995003,m,342.75922090001404,342.7748631000286,343.7752404999919,343.7592203000095,0.5683806999586523,None,,,,,,,,,,,,,,,,,,,,,,,,,,,,,,,,,,,,,,,,,,,,,,,,,,,,,,,,,,,,,,,,,,,,,,,,,,,,,,,,,,,,B_5,001,2024-11-28_11h35.19.028,untitled,2024.1.5,None,2024-11-28 11h35.31.908811 +0530,
square.png,stranger,0,Z,,,,,,,,,25,0,100,2,,,,,,,,,343.7752404999919,,,,,,,,,,,,,,,,,,,,,,,,,,,,,,,,,,343.7595713000046,343.7752404999919,344.2592921999749,344.2592921999749,344.2592921999749,344.2592921999749,344.2756242000032,344.55910690000746,344.55910690000746,344.55910690000746,,344.92657749995124,z,344.9270120000001,344.94260069995653,345.9432220000308,345.9267625999637,0.6604040999663994,None,,,,,,,,,,,,,,,,,,,,,,,,,,,,,,,,,,,,,,,,,,,,,,,,,,,,,,,,,,,,,,,,,,,,,,,,,,,,,,,,,,,,B_5,001,2024-11-28_11h35.19.028,untitled,2024.1.5,None,2024-11-28 11h35.31.908811 +0530,
triangle.png,stranger,1,M,,,,,,,,,25,1,101,1,,,,,,,,,345.9432220000308,,,,,,,,,,,,,,,,,,,,,,,,,,,,,,,,,,345.927115199971,345.9432220000308,346.4267273999285,346.4267273999285,346.4267273999285,346.4267273999285,346.4436120999744,346.72682749992236,346.72682749992236,346.72682749992236,,347.344622900011,m,347.345047699986,347.36040150001645,348.3608626999194,348.34486259997357,0.9010421000421047,None,,,,,,,,,,,,,,,,,,,,,,,,,,,,,,,,,,,,,,,,,,,,,,,,,,,,,,,,,,,,,,,,,,,,,,,,,,,,,,,,,,,,B_5,001,2024-11-28_11h35.19.028,untitled,2024.1.5,None,2024-11-28 11h35.31.908811 +0530,
triangle.png,you,0,Z,,,,,,,,,25,2,102,3,,,,,,,,,348.3608626999194,,,,,,,,,,,,,,,,,,,,,,,,,,,,,,,,,,348.3452111999504,348.3608626999194,348.84454910003114,348.84454910003114,348.84454910003114,348.84454910003114,348.8612665999681,349.14486539992504,349.14486539992504,349.14486539992504,349.94512319995556,349.9290070999414,None,349.9291971999919,349.94512319995556,350.9458373999223,350.9293410999235,,,,,,,,,,,,,,,,,,,,,,,,,,,,,,,,,,,,,,,,,,,,,,,,,,,,,,,,,,,,,,,,,,,,,,,,,,,,,,,,,,,,,,B_5,001,2024-11-28_11h35.19.028,untitled,2024.1.5,None,2024-11-28 11h35.31.908811 +0530,
square.png,you,1,M,,,,,,,,,25,3,103,0,,,,,,,,,350.9458373999223,,,,,,,,,,,,,,,,,,,,,,,,,,,,,,,,,,350.9296835999703,350.9458373999223,351.4459344999632,351.4459344999632,351.4459344999632,351.4459344999632,351.4459344999632,351.7460365999723,351.7460365999723,351.7460365999723,,352.06376819999423,m,352.06418630003463,352.07968939992134,353.0801593000069,353.06387449998874,0.6063509000232443,None,,,,,,,,,,,,,,,,,,,,,,,,,,,,,,,,,,,,,,,,,,,,,,,,,,,,,,,,,,,,,,,,,,,,,,,,,,,,,,,,,,,,B_5,001,2024-11-28_11h35.19.028,untitled,2024.1.5,None,2024-11-28 11h35.31.908811 +0530,
square.png,stranger,0,Z,,,,,,,,,26,0,104,2,,,,,,,,,353.0801593000069,,,,,,,,,,,,,,,,,,,,,,,,,,,,,,,,,,353.0642256999854,353.0801593000069,353.5640522999456,353.5640522999456,353.5640522999456,353.5640522999456,353.5802988000214,353.8638385999948,353.8638385999948,353.8638385999948,,354.2646425999701,z,354.2650570999831,354.28088219999336,355.2813004000345,355.2647855000105,0.6990139000117779,None,,,,,,,,,,,,,,,,,,,,,,,,,,,,,,,,,,,,,,,,,,,,,,,,,,,,,,,,,,,,,,,,,,,,,,,,,,,,,,,,,,,,B_5,001,2024-11-28_11h35.19.028,untitled,2024.1.5,None,2024-11-28 11h35.31.908811 +0530,
triangle.png,you,0,Z,,,,,,,,,26,1,105,3,,,,,,,,,355.2813004000345,,,,,,,,,,,,,,,,,,,,,,,,,,,,,,,,,,355.2651426999364,355.2813004000345,355.7650780000258,355.7650780000258,355.7650780000258,355.7650780000258,355.7813945999369,356.0648878000211,356.0648878000211,356.0648878000211,,356.73269520001486,z,356.73311639996246,356.7484974999679,357.74906479998026,357.73278109997045,0.9554411999415606,None,,,,,,,,,,,,,,,,,,,,,,,,,,,,,,,,,,,,,,,,,,,,,,,,,,,,,,,,,,,,,,,,,,,,,,,,,,,,,,,,,,,,B_5,001,2024-11-28_11h35.19.028,untitled,2024.1.5,None,2024-11-28 11h35.31.908811 +0530,
triangle.png,stranger,1,M,,,,,,,,,26,2,106,1,,,,,,,,,357.74906479998026,,,,,,,,,,,,,,,,,,,,,,,,,,,,,,,,,,357.7331278999336,357.74906479998026,358.233114499948,358.233114499948,358.233114499948,358.233114499948,358.24943939992227,358.5329857999459,358.5329857999459,358.5329857999459,,359.167467799969,m,359.1678855000064,359.18312069994863,360.1838221999351,360.1676978999749,0.9271744000725448,None,,,,,,,,,,,,,,,,,,,,,,,,,,,,,,,,,,,,,,,,,,,,,,,,,,,,,,,,,,,,,,,,,,,,,,,,,,,,,,,,,,,,B_5,001,2024-11-28_11h35.19.028,untitled,2024.1.5,None,2024-11-28 11h35.31.908811 +0530,
square.png,you,1,M,,,,,,,,,26,3,107,0,,,,,,,,,360.1838221999351,,,,,,,,,,,,,,,,,,,,,,,,,,,,,,,,,,360.16804829996545,360.1838221999351,360.6675542999292,360.6675542999292,360.6675542999292,360.6675542999292,360.6840276999865,360.9674909999594,360.9674909999594,360.9674909999594,,361.5853142000269,m,361.58573369996157,361.60105499997735,362.60159650002606,362.58549440000206,0.9072648999281228,None,,,,,,,,,,,,,,,,,,,,,,,,,,,,,,,,,,,,,,,,,,,,,,,,,,,,,,,,,,,,,,,,,,,,,,,,,,,,,,,,,,,,B_5,001,2024-11-28_11h35.19.028,untitled,2024.1.5,None,2024-11-28 11h35.31.908811 +0530,
triangle.png,you,0,Z,,,,,,,,,27,0,108,3,,,,,,,,,362.60159650002606,,,,,,,,,,,,,,,,,,,,,,,,,,,,,,,,,,362.5858403999591,362.60159650002606,363.0853117000079,363.0853117000079,363.0853117000079,363.0853117000079,363.1019277999876,363.38552250002977,363.38552250002977,363.38552250002977,,364.0530712000327,z,364.05348999996204,364.06928569998126,365.0696801999584,365.05327109992504,0.9590081999776885,None,,,,,,,,,,,,,,,,,,,,,,,,,,,,,,,,,,,,,,,,,,,,,,,,,,,,,,,,,,,,,,,,,,,,,,,,,,,,,,,,,,,,B_5,001,2024-11-28_11h35.19.028,untitled,2024.1.5,None,2024-11-28 11h35.31.908811 +0530,
triangle.png,stranger,1,M,,,,,,,,,27,1,109,1,,,,,,,,,365.0696801999584,,,,,,,,,,,,,,,,,,,,,,,,,,,,,,,,,,365.0536189000122,365.0696801999584,365.55325220001396,365.55325220001396,365.55325220001396,365.55325220001396,365.5698782999534,365.8532953999238,365.8532953999238,365.8532953999238,366.65356629993767,366.637690500007,None,366.637908799923,366.65356629993767,367.6543419000227,367.63795250002295,,,,,,,,,,,,,,,,,,,,,,,,,,,,,,,,,,,,,,,,,,,,,,,,,,,,,,,,,,,,,,,,,,,,,,,,,,,,,,,,,,,,,,B_5,001,2024-11-28_11h35.19.028,untitled,2024.1.5,None,2024-11-28 11h35.31.908811 +0530,
square.png,you,1,M,,,,,,,,,27,2,110,0,,,,,,,,,367.6543419000227,,,,,,,,,,,,,,,,,,,,,,,,,,,,,,,,,,367.63830719992984,367.6543419000227,368.15471509995405,368.15471509995405,368.15471509995405,368.15471509995405,368.15471509995405,368.4547778000124,368.4547778000124,368.4547778000124,,368.7390241000103,m,368.73944819997996,368.7547657999676,369.7553157999646,369.738915599999,0.5814748000120744,None,,,,,,,,,,,,,,,,,,,,,,,,,,,,,,,,,,,,,,,,,,,,,,,,,,,,,,,,,,,,,,,,,,,,,,,,,,,,,,,,,,,,B_5,001,2024-11-28_11h35.19.028,untitled,2024.1.5,None,2024-11-28 11h35.31.908811 +0530,
square.png,stranger,0,Z,,,,,,,,,27,3,111,2,,,,,,,,,369.7553157999646,,,,,,,,,,,,,,,,,,,,,,,,,,,,,,,,,,369.73926890001167,369.7553157999646,370.2390307999449,370.2390307999449,370.2390307999449,370.2390307999449,370.2556751000229,370.53914899996016,370.53914899996016,370.53914899996016,,370.8900473000249,z,370.89047350001056,370.9058847000124,371.9063529999694,371.8901501999935,0.6373737000394613,None,,,,,,,,,,,,,,,,,,,,,,,,,,,,,,,,,,,,,,,,,,,,,,,,,,,,,,,,,,,,,,,,,,,,,,,,,,,,,,,,,,,,B_5,001,2024-11-28_11h35.19.028,untitled,2024.1.5,None,2024-11-28 11h35.31.908811 +0530,
square.png,stranger,0,Z,,,,,,,,,28,0,112,2,,,,,,,,,371.9063529999694,,,,,,,,,,,,,,,,,,,,,,,,,,,,,,,,,,371.89049779996276,371.9063529999694,372.39011669997126,372.39011669997126,372.39011669997126,372.39011669997126,372.4067793999566,372.69004010001663,372.69004010001663,372.69004010001663,,373.3745243999874,m,373.3749408000149,373.3904316999251,374.39116090000607,374.3749906999292,0.9808976000640541,None,,,,,,,,,,,,,,,,,,,,,,,,,,,,,,,,,,,,,,,,,,,,,,,,,,,,,,,,,,,,,,,,,,,,,,,,,,,,,,,,,,,,B_5,001,2024-11-28_11h35.19.028,untitled,2024.1.5,None,2024-11-28 11h35.31.908811 +0530,
triangle.png,stranger,1,M,,,,,,,,,28,1,113,1,,,,,,,,,374.39116090000607,,,,,,,,,,,,,,,,,,,,,,,,,,,,,,,,,,374.37533860001713,374.39116090000607,374.8746878999518,374.8746878999518,374.8746878999518,374.8746878999518,374.89130070002284,375.1746754000196,375.1746754000196,375.1746754000196,,375.6758639999898,z,375.6763328999514,375.69156990002375,376.6923741999781,376.67592449998483,0.7984338999958709,None,,,,,,,,,,,,,,,,,,,,,,,,,,,,,,,,,,,,,,,,,,,,,,,,,,,,,,,,,,,,,,,,,,,,,,,,,,,,,,,,,,,,B_5,001,2024-11-28_11h35.19.028,untitled,2024.1.5,None,2024-11-28 11h35.31.908811 +0530,
triangle.png,you,0,Z,,,,,,,,,28,2,114,3,,,,,,,,,376.6923741999781,,,,,,,,,,,,,,,,,,,,,,,,,,,,,,,,,,376.6762750999769,376.6923741999781,377.17592940002214,377.17592940002214,377.17592940002214,377.17592940002214,377.19277560000774,377.47610029997304,377.47610029997304,377.47610029997304,,377.97702390002087,z,377.9774418999441,377.9932310000295,378.9934279000154,378.97742489993107,0.7998364999657497,None,,,,,,,,,,,,,,,,,,,,,,,,,,,,,,,,,,,,,,,,,,,,,,,,,,,,,,,,,,,,,,,,,,,,,,,,,,,,,,,,,,,,B_5,001,2024-11-28_11h35.19.028,untitled,2024.1.5,None,2024-11-28 11h35.31.908811 +0530,
square.png,you,1,M,,,,,,,,,28,3,115,0,,,,,,,,,378.9934279000154,,,,,,,,,,,,,,,,,,,,,,,,,,,,,,,,,,378.97780679992866,378.9934279000154,379.4772831000155,379.4772831000155,379.4772831000155,379.4772831000155,379.4936297999229,379.77725879999343,379.77725879999343,379.77725879999343,,380.47822910000104,m,380.4786508999532,380.494239200023,381.4947454999201,381.478403499932,0.9909746999619529,None,,,,,,,,,,,,,,,,,,,,,,,,,,,,,,,,,,,,,,,,,,,,,,,,,,,,,,,,,,,,,,,,,,,,,,,,,,,,,,,,,,,,B_5,001,2024-11-28_11h35.19.028,untitled,2024.1.5,None,2024-11-28 11h35.31.908811 +0530,
triangle.png,stranger,1,M,,,,,,,,,29,0,116,1,,,,,,,,,381.4947454999201,,,,,,,,,,,,,,,,,,,,,,,,,,,,,,,,,,381.47875300003216,381.4947454999201,381.9783442999469,381.9783442999469,381.9783442999469,381.9783442999469,381.99535290000495,382.2784121999284,382.2784121999284,382.2784121999284,,382.9130542000057,z,382.91351099999156,382.928943399922,383.92917150002904,383.91321889997926,0.9327044999226928,None,,,,,,,,,,,,,,,,,,,,,,,,,,,,,,,,,,,,,,,,,,,,,,,,,,,,,,,,,,,,,,,,,,,,,,,,,,,,,,,,,,,,B_5,001,2024-11-28_11h35.19.028,untitled,2024.1.5,None,2024-11-28 11h35.31.908811 +0530,
triangle.png,you,0,Z,,,,,,,,,29,1,117,3,,,,,,,,,383.92917150002904,,,,,,,,,,,,,,,,,,,,,,,,,,,,,,,,,,383.91357129998505,383.92917150002904,384.41277729999274,384.41277729999274,384.41277729999274,384.41277729999274,384.4293983000098,384.71287629997823,384.71287629997823,384.71287629997823,,385.14726170001086,z,385.14768419996835,385.16335629997775,386.1639775999356,386.14768579998054,0.7307975000003353,None,,,,,,,,,,,,,,,,,,,,,,,,,,,,,,,,,,,,,,,,,,,,,,,,,,,,,,,,,,,,,,,,,,,,,,,,,,,,,,,,,,,,B_5,001,2024-11-28_11h35.19.028,untitled,2024.1.5,None,2024-11-28 11h35.31.908811 +0530,
square.png,stranger,0,Z,,,,,,,,,29,2,118,2,,,,,,,,,386.1639775999356,,,,,,,,,,,,,,,,,,,,,,,,,,,,,,,,,,386.14803089993075,386.1639775999356,386.64739389996976,386.64739389996976,386.64739389996976,386.64739389996976,386.6642409999622,386.9474089000141,386.9474089000141,386.9474089000141,,387.61512510001194,z,387.61554339993745,387.63132049993146,388.63187679997645,388.6154394999612,0.9636459000175819,None,,,,,,,,,,,,,,,,,,,,,,,,,,,,,,,,,,,,,,,,,,,,,,,,,,,,,,,,,,,,,,,,,,,,,,,,,,,,,,,,,,,,B_5,001,2024-11-28_11h35.19.028,untitled,2024.1.5,None,2024-11-28 11h35.31.908811 +0530,
square.png,you,1,M,,,,,,,,,29,3,119,0,,,,,,,,,388.63187679997645,,,,,,,,,,,,,,,,,,,,,,,,,,,,,,,,,,388.6157856999198,388.63187679997645,389.1154443999985,389.1154443999985,389.1154443999985,389.1154443999985,389.13196679996327,389.4154863000149,389.4154863000149,389.4154863000149,,389.69956400000956,m,389.7000336999772,389.715619900031,390.7162595000118,390.69973530003335,0.580872799968347,None,,,,,,,,,,,,,,,,,,,,,,,,,,,,,,,,,,,,,,,,,,,,,,,,,,,,,,,,,,,,,,,,,,,,,,,,,,,,,,,,,,,,B_5,001,2024-11-28_11h35.19.028,untitled,2024.1.5,None,2024-11-28 11h35.31.908811 +0530,
square.png,stranger,0,Z,,,,,,,,,30,0,120,2,,,,,,,,,390.7162595000118,,,,,,,,,,,,,,,,,,,,,,,,,,,,,,,,,,390.7000800999813,390.7162595000118,391.1996949999593,391.1996949999593,391.1996949999593,391.1996949999593,391.21636910003144,391.4997275000205,391.4997275000205,391.4997275000205,,392.08442820003256,z,392.08484529994894,392.1002688999288,393.10068469995167,393.08455139992293,0.8837387000676244,None,,,,,,,,,,,,,,,,,,,,,,,,,,,,,,,,,,,,,,,,,,,,,,,,,,,,,,,,,,,,,,,,,,,,,,,,,,,,,,,,,,,,B_5,001,2024-11-28_11h35.19.028,untitled,2024.1.5,None,2024-11-28 11h35.31.908811 +0530,
triangle.png,you,0,Z,,,,,,,,,30,1,121,3,,,,,,,,,393.10068469995167,,,,,,,,,,,,,,,,,,,,,,,,,,,,,,,,,,393.08489890000783,393.10068469995167,393.5843431999674,393.5843431999674,393.5843431999674,393.5843431999674,393.60093239997514,393.8842341999989,393.8842341999989,393.8842341999989,,394.3521302000154,m,394.3525491999462,394.3681348999962,395.36858110001776,395.3522407999262,0.7637050000485033,None,,,,,,,,,,,,,,,,,,,,,,,,,,,,,,,,,,,,,,,,,,,,,,,,,,,,,,,,,,,,,,,,,,,,,,,,,,,,,,,,,,,,B_5,001,2024-11-28_11h35.19.028,untitled,2024.1.5,None,2024-11-28 11h35.31.908811 +0530,
square.png,you,1,M,,,,,,,,,30,2,122,0,,,,,,,,,395.36858110001776,,,,,,,,,,,,,,,,,,,,,,,,,,,,,,,,,,395.35259179992136,395.36858110001776,395.8523215999594,395.8523215999594,395.8523215999594,395.8523215999594,395.86893300001975,396.1520970999263,396.1520970999263,396.1520970999263,,396.669779799995,m,396.670273500029,396.6857159999199,397.68645019992255,397.67006639996544,0.8073724000714719,None,,,,,,,,,,,,,,,,,,,,,,,,,,,,,,,,,,,,,,,,,,,,,,,,,,,,,,,,,,,,,,,,,,,,,,,,,,,,,,,,,,,,B_5,001,2024-11-28_11h35.19.028,untitled,2024.1.5,None,2024-11-28 11h35.31.908811 +0530,
triangle.png,stranger,1,M,,,,,,,,,30,3,123,1,,,,,,,,,397.68645019992255,,,,,,,,,,,,,,,,,,,,,,,,,,,,,,,,,,397.6704175999621,397.68645019992255,398.17003269994166,398.17003269994166,398.17003269994166,398.17003269994166,398.18686439993326,398.4700112999417,398.4700112999417,398.4700112999417,,399.18800179997925,m,399.1884361000266,399.2038008000236,400.2042948999442,400.1880554999225,1.0095534001011401,None,,,,,,,,,,,,,,,,,,,,,,,,,,,,,,,,,,,,,,,,,,,,,,,,,,,,,,,,,,,,,,,,,,,,,,,,,,,,,,,,,,,,B_5,001,2024-11-28_11h35.19.028,untitled,2024.1.5,None,2024-11-28 11h35.31.908811 +0530,
triangle.png,stranger,1,M,,,,,,,,,31,0,124,1,,,,,,,,,400.2042948999442,,,,,,,,,,,,,,,,,,,,,,,,,,,,,,,,,,400.18841269996483,400.2042948999442,400.68815569998696,400.68815569998696,400.68815569998696,400.68815569998696,400.70478050003294,400.9880463000154,400.9880463000154,400.9880463000154,,401.4555064999731,z,401.45599459996447,401.47159089997876,402.47229259996675,402.45594449993223,0.7639202000573277,None,,,,,,,,,,,,,,,,,,,,,,,,,,,,,,,,,,,,,,,,,,,,,,,,,,,,,,,,,,,,,,,,,,,,,,,,,,,,,,,,,,,,B_5,001,2024-11-28_11h35.19.028,untitled,2024.1.5,None,2024-11-28 11h35.31.908811 +0530,
triangle.png,you,0,Z,,,,,,,,,31,1,125,3,,,,,,,,,402.47229259996675,,,,,,,,,,,,,,,,,,,,,,,,,,,,,,,,,,402.4563015999738,402.47229259996675,402.9557707000058,402.9557707000058,402.9557707000058,402.9557707000058,402.972565199947,403.2558286000276,403.2558286000276,403.2558286000276,,403.77353439992294,z,403.7739657999482,403.7896046999376,404.7901407999452,404.7738815000048,0.8032769999699667,None,,,,,,,,,,,,,,,,,,,,,,,,,,,,,,,,,,,,,,,,,,,,,,,,,,,,,,,,,,,,,,,,,,,,,,,,,,,,,,,,,,,,B_5,001,2024-11-28_11h35.19.028,untitled,2024.1.5,None,2024-11-28 11h35.31.908811 +0530,
square.png,stranger,0,Z,,,,,,,,,31,2,126,2,,,,,,,,,404.7901407999452,,,,,,,,,,,,,,,,,,,,,,,,,,,,,,,,,,404.77422799996566,404.7901407999452,405.27351009997074,405.27351009997074,405.27351009997074,405.27351009997074,405.29032599995844,405.5736923000077,405.5736923000077,405.5736923000077,406.3742266999325,406.3579755999381,None,406.3581638999749,406.3742266999325,407.3747847999912,407.35831949999556,,,,,,,,,,,,,,,,,,,,,,,,,,,,,,,,,,,,,,,,,,,,,,,,,,,,,,,,,,,,,,,,,,,,,,,,,,,,,,,,,,,,,,B_5,001,2024-11-28_11h35.19.028,untitled,2024.1.5,None,2024-11-28 11h35.31.908811 +0530,
square.png,you,1,M,,,,,,,,,31,3,127,0,,,,,,,,,407.3747847999912,,,,,,,,,,,,,,,,,,,,,,,,,,,,,,,,,,407.35866749996785,407.3747847999912,407.87516419996973,407.87516419996973,407.87516419996973,407.87516419996973,407.87516419996973,408.1751719999593,408.1751719999593,408.1751719999593,,408.52581299992744,m,408.5262316999724,408.54207470000256,409.54229379992466,409.526078099967,0.64932540000882,None,,,,,,,,,,,,,,,,,,,,,,,,,,,,,,,,,,,,,,,,,,,,,,,,,,,,,,,,,,,,,,,,,,,,,,,,,,,,,,,,,,,,B_5,001,2024-11-28_11h35.19.028,untitled,2024.1.5,None,2024-11-28 11h35.31.908811 +0530,
square.png,stranger,0,Z,,,,,,,,,32,0,128,2,,,,,,,,,409.54229379992466,,,,,,,,,,,,,,,,,,,,,,,,,,,,,,,,,,409.5264246999286,409.54229379992466,410.0262703000335,410.0262703000335,410.0262703000335,410.0262703000335,410.0429102999624,410.32611639995594,410.32611639995594,410.32611639995594,,410.76058849995025,z,410.76100759999827,410.7764774999814,411.77704640000593,411.76087719993666,0.7217214999254793,None,,,,,,,,,,,,,,,,,,,,,,,,,,,,,,,,,,,,,,,,,,,,,,,,,,,,,,,,,,,,,,,,,,,,,,,,,,,,,,,,,,,,B_5,001,2024-11-28_11h35.19.028,untitled,2024.1.5,None,2024-11-28 11h35.31.908811 +0530,
triangle.png,stranger,1,M,,,,,,,,,32,1,129,1,,,,,,,,,411.77704640000593,,,,,,,,,,,,,,,,,,,,,,,,,,,,,,,,,,411.7612248000223,411.77704640000593,412.260565900011,412.260565900011,412.260565900011,412.260565900011,412.27737589995377,412.56066269997973,412.56066269997973,412.56066269997973,,413.2116642999463,z,413.2120988999959,413.2276713999454,414.22826659993734,414.21188950003125,0.9394838999724016,None,,,,,,,,,,,,,,,,,,,,,,,,,,,,,,,,,,,,,,,,,,,,,,,,,,,,,,,,,,,,,,,,,,,,,,,,,,,,,,,,,,,,B_5,001,2024-11-28_11h35.19.028,untitled,2024.1.5,None,2024-11-28 11h35.31.908811 +0530,
triangle.png,you,0,Z,,,,,,,,,32,2,130,3,,,,,,,,,414.22826659993734,,,,,,,,,,,,,,,,,,,,,,,,,,,,,,,,,,414.2122359999921,414.22826659993734,414.7119669999229,414.7119669999229,414.7119669999229,414.7119669999229,414.7286508999532,415.01183370000217,415.01183370000217,415.01183370000217,,415.52966030000243,z,415.53008009993937,415.5454157999484,416.54604879999533,416.52975909993984,0.8154859999194741,None,,,,,,,,,,,,,,,,,,,,,,,,,,,,,,,,,,,,,,,,,,,,,,,,,,,,,,,,,,,,,,,,,,,,,,,,,,,,,,,,,,,,B_5,001,2024-11-28_11h35.19.028,untitled,2024.1.5,None,2024-11-28 11h35.31.908811 +0530,
square.png,you,1,M,,,,,,,,,32,3,131,0,,,,,,,,,416.54604879999533,,,,,,,,,,,,,,,,,,,,,,,,,,,,,,,,,,416.5301107999403,416.54604879999533,417.0298917000182,417.0298917000182,417.0298917000182,417.0298917000182,417.0465512999799,417.32960299996193,417.32960299996193,417.32960299996193,,417.8140245999675,m,417.81444210000336,417.8300522000063,418.83057039999403,418.8144171999302,0.7786153999622911,None,,,,,,,,,,,,,,,,,,,,,,,,,,,,,,,,,,,,,,,,,,,,,,,,,,,,,,,,,,,,,,,,,,,,,,,,,,,,,,,,,,,,B_5,001,2024-11-28_11h35.19.028,untitled,2024.1.5,None,2024-11-28 11h35.31.908811 +0530,
triangle.png,you,0,Z,,,,,,,,,33,0,132,3,,,,,,,,,418.83057039999403,,,,,,,,,,,,,,,,,,,,,,,,,,,,,,,,,,418.8147606999846,418.83057039999403,419.3141562999226,419.3141562999226,419.3141562999226,419.3141562999226,419.3307662999723,419.6144299999578,419.6144299999578,419.6144299999578,,420.2986970000202,z,420.29912189999595,420.31476059998386,421.31534949992783,421.2990298999939,0.9739375000353903,None,,,,,,,,,,,,,,,,,,,,,,,,,,,,,,,,,,,,,,,,,,,,,,,,,,,,,,,,,,,,,,,,,,,,,,,,,,,,,,,,,,,,B_5,001,2024-11-28_11h35.19.028,untitled,2024.1.5,None,2024-11-28 11h35.31.908811 +0530,
square.png,you,1,M,,,,,,,,,33,1,133,0,,,,,,,,,421.31534949992783,,,,,,,,,,,,,,,,,,,,,,,,,,,,,,,,,,421.29937879997306,421.31534949992783,421.79879479995,421.79879479995,421.79879479995,421.79879479995,421.8153418999864,422.09892719995696,422.09892719995696,422.09892719995696,,422.6833523999667,z,422.68376949999947,422.69919399998616,423.6998229000019,423.6836494000163,0.8768893000669777,None,,,,,,,,,,,,,,,,,,,,,,,,,,,,,,,,,,,,,,,,,,,,,,,,,,,,,,,,,,,,,,,,,,,,,,,,,,,,,,,,,,,,B_5,001,2024-11-28_11h35.19.028,untitled,2024.1.5,None,2024-11-28 11h35.31.908811 +0530,
square.png,stranger,0,Z,,,,,,,,,33,2,134,2,,,,,,,,,423.6998229000019,,,,,,,,,,,,,,,,,,,,,,,,,,,,,,,,,,423.68400350003503,423.6998229000019,424.1836168000009,424.1836168000009,424.1836168000009,424.1836168000009,424.1999603000004,424.4836183999432,424.4836183999432,424.4836183999432,,425.1344668000238,m,425.13488269993104,425.1504889000207,426.15107319992967,426.1348966999212,0.9484449999872595,None,,,,,,,,,,,,,,,,,,,,,,,,,,,,,,,,,,,,,,,,,,,,,,,,,,,,,,,,,,,,,,,,,,,,,,,,,,,,,,,,,,,,B_5,001,2024-11-28_11h35.19.028,untitled,2024.1.5,None,2024-11-28 11h35.31.908811 +0530,
triangle.png,stranger,1,M,,,,,,,,,33,3,135,1,,,,,,,,,426.15107319992967,,,,,,,,,,,,,,,,,,,,,,,,,,,,,,,,,,426.13524440000765,426.15107319992967,426.63464960001875,426.63464960001875,426.63464960001875,426.63464960001875,426.65127349994145,426.93466709996574,426.93466709996574,426.93466709996574,,427.0855791999493,m,427.08600130002014,427.10137940000277,428.1020359999966,428.0856198000256,0.4453131000045687,None,,,,,,,,,,,,,,,,,,,,,,,,,,,,,,,,,,,,,,,,,,,,,,,,,,,,,,,,,,,,,,,,,,,,,,,,,,,,,,,,,,,,B_5,001,2024-11-28_11h35.19.028,untitled,2024.1.5,None,2024-11-28 11h35.31.908811 +0530,
square.png,stranger,0,Z,,,,,,,,,34,0,136,2,,,,,,,,,428.1020359999966,,,,,,,,,,,,,,,,,,,,,,,,,,,,,,,,,,428.08596820000093,428.1020359999966,428.58577459992375,428.58577459992375,428.58577459992375,428.58577459992375,428.6022464999696,428.88556780002546,428.88556780002546,428.88556780002546,,429.2365870999638,z,429.2370450999588,429.25286170002073,430.25309629994445,430.2367389999563,0.6426298000151291,None,,,,,,,,,,,,,,,,,,,,,,,,,,,,,,,,,,,,,,,,,,,,,,,,,,,,,,,,,,,,,,,,,,,,,,,,,,,,,,,,,,,,B_5,001,2024-11-28_11h35.19.028,untitled,2024.1.5,None,2024-11-28 11h35.31.908811 +0530,
triangle.png,you,0,Z,,,,,,,,,34,1,137,3,,,,,,,,,430.25309629994445,,,,,,,,,,,,,,,,,,,,,,,,,,,,,,,,,,430.23708579991944,430.25309629994445,430.7367665999336,430.7367665999336,430.7367665999336,430.7367665999336,430.75354910001624,431.0368412999669,431.0368412999669,431.0368412999669,,431.67130879999604,z,431.67172510002274,431.68728990003,432.68756709992886,432.6714532999322,0.9316262000938877,None,,,,,,,,,,,,,,,,,,,,,,,,,,,,,,,,,,,,,,,,,,,,,,,,,,,,,,,,,,,,,,,,,,,,,,,,,,,,,,,,,,,,B_5,001,2024-11-28_11h35.19.028,untitled,2024.1.5,None,2024-11-28 11h35.31.908811 +0530,
triangle.png,stranger,1,M,,,,,,,,,34,2,138,1,,,,,,,,,432.68756709992886,,,,,,,,,,,,,,,,,,,,,,,,,,,,,,,,,,432.67180170002393,432.68756709992886,433.1716623000102,433.1716623000102,433.1716623000102,433.1716623000102,433.1879313000245,433.4715586999664,433.4715586999664,433.4715586999664,,434.03905639995355,z,434.0394841999514,434.0550699000014,435.05551580002066,435.0392380999401,0.8518637999659404,None,,,,,,,,,,,,,,,,,,,,,,,,,,,,,,,,,,,,,,,,,,,,,,,,,,,,,,,,,,,,,,,,,,,,,,,,,,,,,,,,,,,,B_5,001,2024-11-28_11h35.19.028,untitled,2024.1.5,None,2024-11-28 11h35.31.908811 +0530,
square.png,you,1,M,,,,,,,,,34,3,139,0,,,,,,,,,435.05551580002066,,,,,,,,,,,,,,,,,,,,,,,,,,,,,,,,,,435.03958450001664,435.05551580002066,435.5392564999638,435.5392564999638,435.5392564999638,435.5392564999638,435.5558134999592,435.8390543999849,435.8390543999849,435.8390543999849,,436.27343349996954,m,436.2738586999476,436.289339800016,437.29006989998743,437.27397470001597,0.7284051000606269,None,,,,,,,,,,,,,,,,,,,,,,,,,,,,,,,,,,,,,,,,,,,,,,,,,,,,,,,,,,,,,,,,,,,,,,,,,,,,,,,,,,,,B_5,001,2024-11-28_11h35.19.028,untitled,2024.1.5,None,2024-11-28 11h35.31.908811 +0530,
square.png,you,1,M,,,,,,,,,35,0,140,0,,,,,,,,,437.29006989998743,,,,,,,,,,,,,,,,,,,,,,,,,,,,,,,,,,437.27432069997303,437.29006989998743,437.7738993000239,437.7738993000239,437.7738993000239,437.7738993000239,437.790555399959,438.0738039999269,438.0738039999269,438.0738039999269,,438.6914168000221,m,438.69183609995525,438.70742410002276,439.7082704999484,439.6919106999412,0.905666199978441,None,,,,,,,,,,,,,,,,,,,,,,,,,,,,,,,,,,,,,,,,,,,,,,,,,,,,,,,,,,,,,,,,,,,,,,,,,,,,,,,,,,,,B_5,001,2024-11-28_11h35.19.028,untitled,2024.1.5,None,2024-11-28 11h35.31.908811 +0530,
square.png,stranger,0,Z,,,,,,,,,35,1,141,2,,,,,,,,,439.7082704999484,,,,,,,,,,,,,,,,,,,,,,,,,,,,,,,,,,439.6922649999615,439.7082704999484,440.1915016999701,440.1915016999701,440.1915016999701,440.1915016999701,440.2080859999405,440.4918530000141,440.4918530000141,440.4918530000141,,441.0760487000225,z,441.07647259999067,441.0920131999301,442.09262669994496,442.0764680999564,0.871505800052546,None,,,,,,,,,,,,,,,,,,,,,,,,,,,,,,,,,,,,,,,,,,,,,,,,,,,,,,,,,,,,,,,,,,,,,,,,,,,,,,,,,,,,B_5,001,2024-11-28_11h35.19.028,untitled,2024.1.5,None,2024-11-28 11h35.31.908811 +0530,
triangle.png,you,0,Z,,,,,,,,,35,2,142,3,,,,,,,,,442.09262669994496,,,,,,,,,,,,,,,,,,,,,,,,,,,,,,,,,,442.0768138000276,442.09262669994496,442.57636319997255,442.57636319997255,442.57636319997255,442.57636319997255,442.5930570999626,442.87620289996266,442.87620289996266,442.87620289996266,,443.29367909999564,z,443.29409739992116,443.30987100000493,444.3101669999305,444.2943127999315,0.7105944000650197,None,,,,,,,,,,,,,,,,,,,,,,,,,,,,,,,,,,,,,,,,,,,,,,,,,,,,,,,,,,,,,,,,,,,,,,,,,,,,,,,,,,,,B_5,001,2024-11-28_11h35.19.028,untitled,2024.1.5,None,2024-11-28 11h35.31.908811 +0530,
triangle.png,stranger,1,M,,,,,,,,,35,3,143,1,,,,,,,,,444.3101669999305,,,,,,,,,,,,,,,,,,,,,,,,,,,,,,,,,,444.294660900021,444.3101669999305,444.79398389998823,444.79398389998823,444.79398389998823,444.79398389998823,444.8105418999912,445.0942300999304,445.0942300999304,445.0942300999304,,445.4282592999516,m,445.42867860000115,445.44411989999935,446.44486889999826,446.428544000024,0.6221025999402627,None,,,,,,,,,,,,,,,,,,,,,,,,,,,,,,,,,,,,,,,,,,,,,,,,,,,,,,,,,,,,,,,,,,,,,,,,,,,,,,,,,,,,B_5,001,2024-11-28_11h35.19.028,untitled,2024.1.5,None,2024-11-28 11h35.31.908811 +0530,
square.png,you,1,M,,,,,,,,,36,0,144,0,,,,,,,,,446.44486889999826,,,,,,,,,,,,,,,,,,,,,,,,,,,,,,,,,,446.4288871999597,446.44486889999826,446.92854919994716,446.92854919994716,446.92854919994716,446.92854919994716,446.9451103999745,447.22854829998687,447.22854829998687,447.22854829998687,,447.6794057999505,m,447.6798238999909,447.6952614999609,448.6959394000005,448.6797174999956,0.7396830000216141,None,,,,,,,,,,,,,,,,,,,,,,,,,,,,,,,,,,,,,,,,,,,,,,,,,,,,,,,,,,,,,,,,,,,,,,,,,,,,,,,,,,,,B_5,001,2024-11-28_11h35.19.028,untitled,2024.1.5,None,2024-11-28 11h35.31.908811 +0530,
