stimulus_b,label_b,is_match_b,shouldpress_b,stimulus_2b,label_2b,is_match_2b,shouldpress_2b,p_trials.thisRepN,p_trials.thisTrialN,p_trials.thisN,p_trials.thisIndex,trials.thisRepN,trials.thisTrialN,trials.thisN,trials.thisIndex,p_trials_2.thisRepN,p_trials_2.thisTrialN,p_trials_2.thisN,p_trials_2.thisIndex,trials_2.thisRepN,trials_2.thisTrialN,trials_2.thisN,trials_2.thisIndex,thisRow.t,notes,Intruduction.started,text_3.started,key_resp_2.started,Intruduction.stopped,key_resp_2.keys,key_resp_2.rt,key_resp_2.duration,self_other_instructions.started,text_4.started,key_resp_3.started,self_other_instructions.stopped,key_resp_3.keys,key_resp_3.rt,key_resp_3.duration,self_other_info.started,square_image.started,triangle_image.started,self_label.started,other_label.started,key_resp_4.started,text_5.started,self_other_info.stopped,key_resp_4.keys,key_resp_4.rt,key_resp_4.duration,self_other_starting_2.started,text_6.started,key_resp_5.started,self_other_starting_2.stopped,key_resp_5.keys,key_resp_5.rt,key_resp_5.duration,b1.started,p_fication.started,p_fixation_3.started,p_text.started,key_resp_p.started,p_image.started,p_fication.stopped,p_fixation_3.stopped,p_text.stopped,p_image.stopped,b1.stopped,key_resp_p.keys,key_resp_p.rt,key_resp_p.duration,b_feedback.started,text_15.started,text_15.stopped,b_feedback.stopped,start2.started,start_2.started,key_resp_11.started,start2.stopped,key_resp_11.keys,key_resp_11.rt,key_resp_11.duration,key_resp_p.stopped,break_3.started,text_13.started,text_13.stopped,text_14.started,key_resp_10.started,break_3.stopped,key_resp_10.keys,key_resp_10.rt,key_resp_10.duration,self_instructions_2.started,text_10.started,key_resp_7.started,self_instructions_2.stopped,key_resp_7.keys,key_resp_7.rt,key_resp_7.duration,self_intro_2.started,circle_image.started,diamond_image.started,Disgusting_self_lable.started,Desirable_self_lable.started,key_resp_8.started,text_11.started,self_intro_2.stopped,key_resp_8.keys,key_resp_8.rt,key_resp_8.duration,self_starting_3.started,text_12.started,key_resp_9.started,self_starting_3.stopped,key_resp_9.keys,key_resp_9.rt,key_resp_9.duration,practice2.started,p_fixation_2.started,p_fixation_2.stopped,p_fixation_4.started,p_text_8.started,key_resp_6_p.started,p_image_2.started,p_fixation_4.stopped,p_text_8.stopped,p_image_2.stopped,practice2.stopped,key_resp_6_p.keys,key_resp_6_p.rt,key_resp_6_p.duration,feedback_2_p.started,text_16.started,text_16.stopped,feedback_2_p.stopped,trial_2.started,fixation_2.started,fixation_4.started,text_8.started,key_resp_6.started,image_2.started,fixation_2.stopped,fixation_4.stopped,text_8.stopped,image_2.stopped,trial_2.stopped,key_resp_6.keys,key_resp_6.rt,key_resp_6.duration,feedback_2.started,text_9.started,text_9.stopped,feedback_2.stopped,key_resp_6.stopped,Thank_you.started,text_7.started,text_7.stopped,Thank_you.stopped,participant,session,date,expName,psychopyVersion,frameRate,expStart,
,,,,,,,,,,,,,,,,,,,,,,,,,,0.002699799952097237,0.006465799990110099,0.006465799990110099,4.502299299929291,space,4.465521899983287,None,,,,,,,,,,,,,,,,,,,,,,,,,,,,,,,,,,,,,,,,,,,,,,,,,,,,,,,,,,,,,,,,,,,,,,,,,,,,,,,,,,,,,,,,,,,,,,,,,,,,,,,,,,,,,,,,,,,,,,,,,,,,,,,b_6,001,2024-11-28_12h44.01.141,untitled,2024.1.5,None,2024-11-28 12h44.14.089208 +0530,
,,,,,,,,,,,,,,,,,,,,,,,,,,,,,,,,,4.502326900023036,4.507451399927959,4.507451399927959,7.484527099994011,space,2.9755327000748366,None,,,,,,,,,,,,,,,,,,,,,,,,,,,,,,,,,,,,,,,,,,,,,,,,,,,,,,,,,,,,,,,,,,,,,,,,,,,,,,,,,,,,,,,,,,,,,,,,,,,,,,,,,,,,,,,,,,,,,,,,b_6,001,2024-11-28_12h44.01.141,untitled,2024.1.5,None,2024-11-28 12h44.14.089208 +0530,
,,,,,,,,,,,,,,,,,,,,,,,,,,,,,,,,,,,,,,,,7.484551299945451,7.517201400012709,7.517201400012709,7.517201400012709,7.517201400012709,7.517201400012709,7.517201400012709,12.0861278999364,space,4.56177759997081,None,,,,,,,,,,,,,,,,,,,,,,,,,,,,,,,,,,,,,,,,,,,,,,,,,,,,,,,,,,,,,,,,,,,,,,,,,,,,,,,,,,,,,,,,,,,,,,,,,,,,,,,,,,,,,b_6,001,2024-11-28_12h44.01.141,untitled,2024.1.5,None,2024-11-28 12h44.14.089208 +0530,
,,,,,,,,,,,,,,,,,,,,,,,,,,,,,,,,,,,,,,,,,,,,,,,,,,,12.086153500014916,12.101938499952666,12.101938499952666,15.604338999954052,space,3.489196299924515,None,,,,,,,,,,,,,,,,,,,,,,,,,,,,,,,,,,,,,,,,,,,,,,,,,,,,,,,,,,,,,,,,,,,,,,,,,,,,,,,,,,,,,,,,,,,,,,,,,,,,,,b_6,001,2024-11-28_12h44.01.141,untitled,2024.1.5,None,2024-11-28 12h44.14.089208 +0530,
triangle.png,you,0,Z,,,,,0,0,0,3,,,,,,,,,,,,,15.620046900003217,,,,,,,,,,,,,,,,,,,,,,,,,,,,,,,,,,15.609976999927312,15.620046900003217,16.103539400035515,16.103539400035515,16.103539400035515,16.103539400035515,16.120326999924146,16.403792000026442,16.403792000026442,16.403792000026442,16.771286300034262,z,0.6602759999223053,None,16.771679099998437,16.78721889993176,17.78762529999949,17.77141089993529,,,,,,,,,,,,,,,,,,,,,,,,,,,,,,,,,,,,,,,,,,,,,,,,,,,,,,,,,,,,,,,,,,,,,,,,,,,,,,,,,,,,b_6,001,2024-11-28_12h44.01.141,untitled,2024.1.5,None,2024-11-28 12h44.14.089208 +0530,
square.png,stranger,0,Z,,,,,0,1,1,2,,,,,,,,,,,,,17.78762529999949,,,,,,,,,,,,,,,,,,,,,,,,,,,,,,,,,,17.771650500013493,17.78762529999949,18.271466800011694,18.271466800011694,18.271466800011694,18.271466800011694,18.287959399982356,18.57124219997786,18.57124219997786,18.57124219997786,18.905534100020304,z,0.620511999935843,None,18.905812399927527,18.921723800012842,19.92224859993439,19.905684099998325,,,,,,,,,,,,,,,,,,,,,,,,,,,,,,,,,,,,,,,,,,,,,,,,,,,,,,,,,,,,,,,,,,,,,,,,,,,,,,,,,,,,b_6,001,2024-11-28_12h44.01.141,untitled,2024.1.5,None,2024-11-28 12h44.14.089208 +0530,
triangle.png,stranger,1,M,,,,,0,2,2,1,,,,,,,,,,,,,19.92224859993439,,,,,,,,,,,,,,,,,,,,,,,,,,,,,,,,,,19.905925399973057,19.92224859993439,20.40598159993533,20.40598159993533,20.40598159993533,20.40598159993533,20.422374599962495,20.705950499977916,20.705950499977916,20.705950499977916,20.956713199964724,m,0.5491423999192193,None,20.956956999958493,20.97277619992383,21.973261500010267,21.956725999945775,,,,,,,,,,,,,,,,,,,,,,,,,,,,,,,,,,,,,,,,,,,,,,,,,,,,,,,,,,,,,,,,,,,,,,,,,,,,,,,,,,,,b_6,001,2024-11-28_12h44.01.141,untitled,2024.1.5,None,2024-11-28 12h44.14.089208 +0530,
square.png,you,1,M,,,,,0,3,3,0,,,,,,,,,,,,,21.973261500010267,,,,,,,,,,,,,,,,,,,,,,,,,,,,,,,,,,21.95695959997829,21.973261500010267,22.457095899968408,22.457095899968408,22.457095899968408,22.457095899968408,22.47341570002027,22.75689970003441,22.75689970003441,22.75689970003441,22.95766369998455,m,0.48605499998666346,None,22.957909099990502,22.97385639999993,23.974086300004274,23.95799819997046,,,,,,,,,,,,,,,,,,,,,,,,,,,,,,,,,,,,,,,,,,,,,,,,,,,,,,,,,,,,,,,,,,,,,,,,,,,,,,,,,,,,b_6,001,2024-11-28_12h44.01.141,untitled,2024.1.5,None,2024-11-28 12h44.14.089208 +0530,
triangle.png,you,0,Z,,,,,1,0,4,3,,,,,,,,,,,,,23.974086300004274,,,,,,,,,,,,,,,,,,,,,,,,,,,,,,,,,,23.958229499985464,23.974086300004274,24.457773000001907,24.457773000001907,24.457773000001907,24.457773000001907,24.47433490003459,24.75796039996203,24.75796039996203,24.75796039996203,24.875509100034833,z,0.40468839998357,None,24.875753000029363,24.891629499965347,25.891965099959634,25.87552629993297,,,,,,,,,,,,,,,,,,,,,,,,,,,,,,,,,,,,,,,,,,,,,,,,,,,,,,,,,,,,,,,,,,,,,,,,,,,,,,,,,,,,b_6,001,2024-11-28_12h44.01.141,untitled,2024.1.5,None,2024-11-28 12h44.14.089208 +0530,
square.png,you,1,M,,,,,1,1,5,0,,,,,,,,,,,,,25.891965099959634,,,,,,,,,,,,,,,,,,,,,,,,,,,,,,,,,,25.87575729994569,25.891965099959634,26.375474700005725,26.375474700005725,26.375474700005725,26.375474700005725,26.392047000001185,26.675695099984296,26.675695099984296,26.675695099984296,26.843126600026153,m,0.46371659997384995,None,26.84336960001383,26.85904709994793,27.8595736999996,27.843323200009763,,,,,,,,,,,,,,,,,,,,,,,,,,,,,,,,,,,,,,,,,,,,,,,,,,,,,,,,,,,,,,,,,,,,,,,,,,,,,,,,,,,,b_6,001,2024-11-28_12h44.01.141,untitled,2024.1.5,None,2024-11-28 12h44.14.089208 +0530,
triangle.png,stranger,1,M,,,,,1,2,6,1,,,,,,,,,,,,,27.8595736999996,,,,,,,,,,,,,,,,,,,,,,,,,,,,,,,,,,27.84355550003238,27.8595736999996,28.343150199973024,28.343150199973024,28.343150199973024,28.343150199973024,28.359838799922727,28.643372799968347,28.643372799968347,28.643372799968347,28.67745980003383,z,0.3279646000592038,None,28.677703400026076,28.693279600003734,29.6940018000314,29.677502800012007,,,,,,,,,,,,,,,,,,,,,,,,,,,,,,,,,,,,,,,,,,,,,,,,,,,,,,,,,,,,,,,,,,,,,,,,,,,,,,,,,,,,b_6,001,2024-11-28_12h44.01.141,untitled,2024.1.5,None,2024-11-28 12h44.14.089208 +0530,
square.png,stranger,0,Z,,,,,1,3,7,2,,,,,,,,,,,,,29.6940018000314,,,,,,,,,,,,,,,,,,,,,,,,,,,,,,,,,,29.677733800024725,29.6940018000314,30.17748539999593,30.17748539999593,30.17748539999593,30.17748539999593,30.194241699995473,,,,30.361831199959852,m,0.17769100004807115,None,30.36207639996428,30.377707300009206,31.377864599926397,31.36159210000187,,,,,,,,,,,,,,,,,,,,,,,,,,,,,,,,,,,,,,,,,,,,,,,,,,,,,,,,,,,,,,,,,,,,,,,,,,,,,,,,,,,,b_6,001,2024-11-28_12h44.01.141,untitled,2024.1.5,None,2024-11-28 12h44.14.089208 +0530,
square.png,stranger,0,Z,,,,,2,0,8,2,,,,,,,,,,,,,31.377864599926397,,,,,,,,,,,,,,,,,,,,,,,,,,,,,,,,,,31.36182250001002,31.377864599926397,31.861650999984704,31.861650999984704,31.861650999984704,31.861650999984704,31.878364600008354,32.16171779995784,32.16171779995784,32.16171779995784,32.31285500002559,z,0.44922710000537336,None,32.31311170000117,32.328613899997436,33.3290074999677,33.31283449998591,,,,,,,,,,,,,,,,,,,,,,,,,,,,,,,,,,,,,,,,,,,,,,,,,,,,,,,,,,,,,,,,,,,,,,,,,,,,,,,,,,,,b_6,001,2024-11-28_12h44.01.141,untitled,2024.1.5,None,2024-11-28 12h44.14.089208 +0530,
triangle.png,you,0,Z,,,,,2,1,9,3,,,,,,,,,,,,,33.3290074999677,,,,,,,,,,,,,,,,,,,,,,,,,,,,,,,,,,33.31306499999482,33.3290074999677,33.81258149992209,33.81258149992209,33.81258149992209,33.81258149992209,33.82956480002031,34.11249820003286,34.11249820003286,34.11249820003286,34.31369730003644,m,0.48652979999314994,None,34.31394459994044,34.329596400028095,35.330317899934016,35.31386150000617,,,,,,,,,,,,,,,,,,,,,,,,,,,,,,,,,,,,,,,,,,,,,,,,,,,,,,,,,,,,,,,,,,,,,,,,,,,,,,,,,,,,b_6,001,2024-11-28_12h44.01.141,untitled,2024.1.5,None,2024-11-28 12h44.14.089208 +0530,
square.png,you,1,M,,,,,2,2,10,0,,,,,,,,,,,,,35.330317899934016,,,,,,,,,,,,,,,,,,,,,,,,,,,,,,,,,,35.314093800028786,35.330317899934016,35.81393019994721,35.81393019994721,35.81393019994721,35.81393019994721,35.83035499998368,36.113644600030966,36.113644600030966,36.113644600030966,36.18112039996777,z,0.3621229000855237,None,36.181371100014076,36.19707190000918,37.19769920001272,37.18134709994774,,,,,,,,,,,,,,,,,,,,,,,,,,,,,,,,,,,,,,,,,,,,,,,,,,,,,,,,,,,,,,,,,,,,,,,,,,,,,,,,,,,,b_6,001,2024-11-28_12h44.01.141,untitled,2024.1.5,None,2024-11-28 12h44.14.089208 +0530,
triangle.png,stranger,1,M,,,,,2,3,11,1,,,,,,,,,,,,,37.19769920001272,,,,,,,,,,,,,,,,,,,,,,,,,,,,,,,,,,37.18157949997112,37.19769920001272,37.681566299987026,37.681566299987026,37.681566299987026,37.681566299987026,37.69816609995905,37.98123189993203,37.98123189993203,37.98123189993203,38.16549980000127,z,0.4823974999599159,None,38.16574650001712,38.18162679998204,39.18221789994277,39.16573599993717,,,,,,,,,,,,,,,,,,,,,,,,,,,,,,,,,,,,,,,,,,,,,,,,,,,,,,,,,,,,,,,,,,,,,,,,,,,,,,,,,,,,b_6,001,2024-11-28_12h44.01.141,untitled,2024.1.5,None,2024-11-28 12h44.14.089208 +0530,
triangle.png,stranger,1,M,,,,,3,0,12,1,,,,,,,,,,,,,39.18221789994277,,,,,,,,,,,,,,,,,,,,,,,,,,,,,,,,,,39.16596639994532,39.18221789994277,39.66576829995029,39.66576829995029,39.66576829995029,39.66576829995029,39.68238659994677,39.96537360001821,39.96537360001821,39.96537360001821,40.16614689992275,m,0.48482030001468956,None,40.166396599961445,40.182184000033885,41.18315229995642,41.1667125999229,,,,,,,,,,,,,,,,,,,,,,,,,,,,,,,,,,,,,,,,,,,,,,,,,,,,,,,,,,,,,,,,,,,,,,,,,,,,,,,,,,,,b_6,001,2024-11-28_12h44.01.141,untitled,2024.1.5,None,2024-11-28 12h44.14.089208 +0530,
square.png,you,1,M,,,,,3,1,13,0,,,,,,,,,,,,,41.18315229995642,,,,,,,,,,,,,,,,,,,,,,,,,,,,,,,,,,41.166947999969125,41.18315229995642,41.66665869997814,41.66665869997814,41.66665869997814,41.66665869997814,41.683208400034346,41.966694099945016,41.966694099945016,41.966694099945016,42.034219500026666,z,0.3570420000469312,None,42.03446909994818,42.05007029999979,43.05068759992719,43.03426949994173,,,,,,,,,,,,,,,,,,,,,,,,,,,,,,,,,,,,,,,,,,,,,,,,,,,,,,,,,,,,,,,,,,,,,,,,,,,,,,,,,,,,b_6,001,2024-11-28_12h44.01.141,untitled,2024.1.5,None,2024-11-28 12h44.14.089208 +0530,
square.png,stranger,0,Z,,,,,3,2,14,2,,,,,,,,,,,,,43.05068759992719,,,,,,,,,,,,,,,,,,,,,,,,,,,,,,,,,,43.03450880001765,43.05068759992719,43.53428369993344,43.53428369993344,43.53428369993344,43.53428369993344,43.55109670001548,,,,43.76850829995237,m,0.220371599891223,None,43.76875259994995,43.78439049993176,44.78497619996779,44.768627299927175,,,,,,,,,,,,,,,,,,,,,,,,,,,,,,,,,,,,,,,,,,,,,,,,,,,,,,,,,,,,,,,,,,,,,,,,,,,,,,,,,,,,b_6,001,2024-11-28_12h44.01.141,untitled,2024.1.5,None,2024-11-28 12h44.14.089208 +0530,
triangle.png,you,0,Z,,,,,3,3,15,3,,,,,,,,,,,,,44.78497619996779,,,,,,,,,,,,,,,,,,,,,,,,,,,,,,,,,,44.76885649992619,44.78497619996779,45.26870859996416,45.26870859996416,45.26870859996416,45.26870859996416,45.285105900024064,45.56870539998636,45.56870539998636,45.56870539998636,45.65269759995863,z,0.3776062000542879,None,45.65294379997067,45.668808899936266,46.66920250002295,46.653062899946235,,,,,,,,,,,,,,,,,,,,,,,,,,,,,,,,,,,,,,,,,,,,,,,,,,,,,,,,,,,,,,,,,,,,,,,,,,,,,,,,,,,,b_6,001,2024-11-28_12h44.01.141,untitled,2024.1.5,None,2024-11-28 12h44.14.089208 +0530,
triangle.png,stranger,1,M,,,,,4,0,16,1,,,,,,,,,,,,,46.66920250002295,,,,,,,,,,,,,,,,,,,,,,,,,,,,,,,,,,46.65329349995591,46.66920250002295,47.153006899985485,47.153006899985485,47.153006899985485,47.153006899985485,47.16965259995777,47.45294139999896,47.45294139999896,47.45294139999896,47.60374309995677,m,0.4381159000331536,None,47.60398949997034,47.619583099964075,48.62027680000756,48.6038164999336,,,,,,,,,,,,,,,,,,,,,,,,,,,,,,,,,,,,,,,,,,,,,,,,,,,,,,,,,,,,,,,,,,,,,,,,,,,,,,,,,,,,b_6,001,2024-11-28_12h44.01.141,untitled,2024.1.5,None,2024-11-28 12h44.14.089208 +0530,
square.png,stranger,0,Z,,,,,4,1,17,2,,,,,,,,,,,,,48.62027680000756,,,,,,,,,,,,,,,,,,,,,,,,,,,,,,,,,,48.60404479992576,48.62027680000756,49.1038001999259,49.1038001999259,49.1038001999259,49.1038001999259,49.12067570001818,49.40398990001995,49.40398990001995,49.40398990001995,49.504597799968906,z,0.39952089998405427,None,49.504840199952014,49.52069559996016,50.52130090002902,50.504990999936126,,,,,,,,,,,,,,,,,,,,,,,,,,,,,,,,,,,,,,,,,,,,,,,,,,,,,,,,,,,,,,,,,,,,,,,,,,,,,,,,,,,,b_6,001,2024-11-28_12h44.01.141,untitled,2024.1.5,None,2024-11-28 12h44.14.089208 +0530,
square.png,you,1,M,,,,,4,2,18,0,,,,,,,,,,,,,50.52130090002902,,,,,,,,,,,,,,,,,,,,,,,,,,,,,,,,,,50.5052215999458,50.52130090002902,51.00505669997074,51.00505669997074,51.00505669997074,51.00505669997074,51.021426099934615,51.30501629994251,51.30501629994251,51.30501629994251,51.322366099921055,m,0.31458610005211085,None,51.32260910002515,51.33845829998609,52.338713499950245,52.3226461999584,,,,,,,,,,,,,,,,,,,,,,,,,,,,,,,,,,,,,,,,,,,,,,,,,,,,,,,,,,,,,,,,,,,,,,,,,,,,,,,,,,,,b_6,001,2024-11-28_12h44.01.141,untitled,2024.1.5,None,2024-11-28 12h44.14.089208 +0530,
triangle.png,you,0,Z,,,,,4,3,19,3,,,,,,,,,,,,,52.338713499950245,,,,,,,,,,,,,,,,,,,,,,,,,,,,,,,,,,52.322877099970356,52.338713499950245,52.822514200001024,52.822514200001024,52.822514200001024,52.822514200001024,52.83918969996739,53.1224795000162,53.1224795000162,53.1224795000162,53.17335139994975,z,0.3365913999732584,None,53.17359589994885,53.18911189993378,54.189895699964836,54.17337560001761,,,,,,,,,,,,,,,,,,,,,,,,,,,,,,,,,,,,,,,,,,,,,,,,,,,,,,,,,,,,,,,,,,,,,,,,,,,,,,,,,,,,b_6,001,2024-11-28_12h44.01.141,untitled,2024.1.5,None,2024-11-28 12h44.14.089208 +0530,
,,,,,,,,,,,,,,,,,,,,,,,,,,,,,,,,,,,,,,,,,,,,,,,,,,,,,,,,,,,,,,,,,,,,,,,,,,,,54.17342399992049,54.189895699964836,54.189895699964836,69.48173919995315,space,15.281372400000691,None,,,,,,,,,,,,,,,,,,,,,,,,,,,,,,,,,,,,,,,,,,,,,,,,,,,,,,,,,,,,,,,,,,,,,,,,,,,,,b_6,001,2024-11-28_12h44.01.141,untitled,2024.1.5,None,2024-11-28 12h44.14.089208 +0530,
triangle.png,stranger,1,M,,,,,,,,,0,0,0,1,,,,,,,,,69.49748050002381,,,,,,,,,,,,,,,,,,,,,,,,,,,,,,,,,,69.48739110003226,69.49748050002381,69.9812461999245,69.9812461999245,69.9812461999245,69.9812461999245,69.99801730003674,70.28126710001379,70.28126710001379,70.28126710001379,70.41551279998384,z,0.4266950999153778,None,70.4161842999747,70.43141960003413,71.43198679992929,71.4157300000079,,,,,,,,,,,,,,,,,,,,,,,,,,,,,,,,,,,,,,,,,,,,,,,,,,,,,,,,,,,,,,,,,,,,,,,,,,,,,,,,,,,,b_6,001,2024-11-28_12h44.01.141,untitled,2024.1.5,None,2024-11-28 12h44.14.089208 +0530,
triangle.png,you,0,Z,,,,,,,,,0,1,1,3,,,,,,,,,71.43198679992929,,,,,,,,,,,,,,,,,,,,,,,,,,,,,,,,,,71.41608440002892,71.43198679992929,71.91573589993641,71.91573589993641,71.91573589993641,71.91573589993641,71.93209150002804,72.21551539993379,72.21551539993379,72.21551539993379,72.3167311999714,m,0.39865790004841983,None,72.31716400000732,72.33247120003216,73.33295980002731,73.3167395000346,,,,,,,,,,,,,,,,,,,,,,,,,,,,,,,,,,,,,,,,,,,,,,,,,,,,,,,,,,,,,,,,,,,,,,,,,,,,,,,,,,,,b_6,001,2024-11-28_12h44.01.141,untitled,2024.1.5,None,2024-11-28 12h44.14.089208 +0530,
square.png,you,1,M,,,,,,,,,0,2,2,0,,,,,,,,,73.33295980002731,,,,,,,,,,,,,,,,,,,,,,,,,,,,,,,,,,73.31708459998481,73.33295980002731,73.81650600000285,73.81650600000285,73.81650600000285,73.81650600000285,73.83314370003063,74.11662520002574,74.11662520002574,74.11662520002574,74.25077559996862,m,0.41864489996805787,None,74.25120039994363,74.26671729993541,75.26735759992152,75.25086639996152,,,,,,,,,,,,,,,,,,,,,,,,,,,,,,,,,,,,,,,,,,,,,,,,,,,,,,,,,,,,,,,,,,,,,,,,,,,,,,,,,,,,b_6,001,2024-11-28_12h44.01.141,untitled,2024.1.5,None,2024-11-28 12h44.14.089208 +0530,
square.png,stranger,0,Z,,,,,,,,,0,3,3,2,,,,,,,,,75.26735759992152,,,,,,,,,,,,,,,,,,,,,,,,,,,,,,,,,,75.25121639994904,75.26735759992152,75.75071149994619,75.75071149994619,75.75071149994619,75.75071149994619,75.76760209992062,76.05095990002155,76.05095990002155,76.05095990002155,76.26864909997676,m,0.505411299993284,None,76.26907389995176,76.28435929992702,77.28506899997592,77.26853729994036,,,,,,,,,,,,,,,,,,,,,,,,,,,,,,,,,,,,,,,,,,,,,,,,,,,,,,,,,,,,,,,,,,,,,,,,,,,,,,,,,,,,b_6,001,2024-11-28_12h44.01.141,untitled,2024.1.5,None,2024-11-28 12h44.14.089208 +0530,
triangle.png,you,0,Z,,,,,,,,,1,0,4,3,,,,,,,,,77.28506899997592,,,,,,,,,,,,,,,,,,,,,,,,,,,,,,,,,,77.2688887999393,77.28506899997592,77.76850609993562,77.76850609993562,77.76850609993562,77.76850609993562,77.78530210000463,78.06856649997644,78.06856649997644,78.06856649997644,78.08623309992254,z,0.31547159992624074,None,78.08666289993562,78.10188580001704,79.10262110002805,79.08645009994507,,,,,,,,,,,,,,,,,,,,,,,,,,,,,,,,,,,,,,,,,,,,,,,,,,,,,,,,,,,,,,,,,,,,,,,,,,,,,,,,,,,,b_6,001,2024-11-28_12h44.01.141,untitled,2024.1.5,None,2024-11-28 12h44.14.089208 +0530,
square.png,stranger,0,Z,,,,,,,,,1,1,5,2,,,,,,,,,79.10262110002805,,,,,,,,,,,,,,,,,,,,,,,,,,,,,,,,,,79.08680409996305,79.10262110002805,79.58631369995419,79.58631369995419,79.58631369995419,79.58631369995419,79.60273549996782,79.88643399998546,79.88643399998546,79.88643399998546,80.02027330000419,z,0.42100950004532933,None,80.02070849994197,80.03616339992732,81.03676990000531,81.0207464999985,,,,,,,,,,,,,,,,,,,,,,,,,,,,,,,,,,,,,,,,,,,,,,,,,,,,,,,,,,,,,,,,,,,,,,,,,,,,,,,,,,,,b_6,001,2024-11-28_12h44.01.141,untitled,2024.1.5,None,2024-11-28 12h44.14.089208 +0530,
square.png,you,1,M,,,,,,,,,1,2,6,0,,,,,,,,,81.03676990000531,,,,,,,,,,,,,,,,,,,,,,,,,,,,,,,,,,81.02109799999744,81.03676990000531,81.5205575999571,81.5205575999571,81.5205575999571,81.5205575999571,81.5375073000323,81.82043129997328,81.82043129997328,81.82043129997328,81.92140430002473,z,0.3993780000600964,None,81.92182499996852,81.93741040001623,82.93786059995182,82.92158900003415,,,,,,,,,,,,,,,,,,,,,,,,,,,,,,,,,,,,,,,,,,,,,,,,,,,,,,,,,,,,,,,,,,,,,,,,,,,,,,,,,,,,b_6,001,2024-11-28_12h44.01.141,untitled,2024.1.5,None,2024-11-28 12h44.14.089208 +0530,
triangle.png,stranger,1,M,,,,,,,,,1,3,7,1,,,,,,,,,82.93786059995182,,,,,,,,,,,,,,,,,,,,,,,,,,,,,,,,,,82.92193910002243,82.93786059995182,83.4217639999697,83.4217639999697,83.4217639999697,83.4217639999697,83.43821259995457,83.7215978000313,83.7215978000313,83.7215978000313,83.87241189996712,z,0.4421808000188321,None,83.87283210002352,83.88833410001826,84.88872319995426,84.87263270001858,,,,,,,,,,,,,,,,,,,,,,,,,,,,,,,,,,,,,,,,,,,,,,,,,,,,,,,,,,,,,,,,,,,,,,,,,,,,,,,,,,,,b_6,001,2024-11-28_12h44.01.141,untitled,2024.1.5,None,2024-11-28 12h44.14.089208 +0530,
square.png,stranger,0,Z,,,,,,,,,2,0,8,2,,,,,,,,,84.88872319995426,,,,,,,,,,,,,,,,,,,,,,,,,,,,,,,,,,84.87297559995204,84.88872319995426,85.37243769993074,85.37243769993074,85.37243769993074,85.37243769993074,85.3892006999813,85.67253600002732,85.67253600002732,85.67253600002732,85.75659300002735,m,0.37004399998113513,None,85.75701619999018,85.77252330002375,86.7729779999936,86.75693369994406,,,,,,,,,,,,,,,,,,,,,,,,,,,,,,,,,,,,,,,,,,,,,,,,,,,,,,,,,,,,,,,,,,,,,,,,,,,,,,,,,,,,b_6,001,2024-11-28_12h44.01.141,untitled,2024.1.5,None,2024-11-28 12h44.14.089208 +0530,
triangle.png,stranger,1,M,,,,,,,,,2,1,9,1,,,,,,,,,86.7729779999936,,,,,,,,,,,,,,,,,,,,,,,,,,,,,,,,,,86.75728279992472,86.7729779999936,87.2570098999422,87.2570098999422,87.2570098999422,87.2570098999422,87.2736159999622,87.55692090000957,87.55692090000957,87.55692090000957,87.57411719998345,m,0.3016038000350818,None,87.57454029994551,87.5903731000144,88.59068749996368,88.57461300003342,,,,,,,,,,,,,,,,,,,,,,,,,,,,,,,,,,,,,,,,,,,,,,,,,,,,,,,,,,,,,,,,,,,,,,,,,,,,,,,,,,,,b_6,001,2024-11-28_12h44.01.141,untitled,2024.1.5,None,2024-11-28 12h44.14.089208 +0530,
square.png,you,1,M,,,,,,,,,2,2,10,0,,,,,,,,,88.59068749996368,,,,,,,,,,,,,,,,,,,,,,,,,,,,,,,,,,88.5749692999525,88.59068749996368,89.07456740003545,89.07456740003545,89.07456740003545,89.07456740003545,89.09124610002618,89.37453109992202,89.37453109992202,89.37453109992202,89.40876130003016,m,0.33193039998877794,None,89.40919249993749,89.42450149997603,90.42524689994752,90.40878769999836,,,,,,,,,,,,,,,,,,,,,,,,,,,,,,,,,,,,,,,,,,,,,,,,,,,,,,,,,,,,,,,,,,,,,,,,,,,,,,,,,,,,b_6,001,2024-11-28_12h44.01.141,untitled,2024.1.5,None,2024-11-28 12h44.14.089208 +0530,
triangle.png,you,0,Z,,,,,,,,,2,3,11,3,,,,,,,,,90.42524689994752,,,,,,,,,,,,,,,,,,,,,,,,,,,,,,,,,,90.40913859999273,90.42524689994752,90.90884599997662,90.90884599997662,90.90884599997662,90.90884599997662,90.92545360000804,91.2086117999861,91.2086117999861,91.2086117999861,91.29292719997466,m,0.36974930006545037,None,91.29335169994738,91.30889139999636,92.30960589996539,92.29323199996725,,,,,,,,,,,,,,,,,,,,,,,,,,,,,,,,,,,,,,,,,,,,,,,,,,,,,,,,,,,,,,,,,,,,,,,,,,,,,,,,,,,,b_6,001,2024-11-28_12h44.01.141,untitled,2024.1.5,None,2024-11-28 12h44.14.089208 +0530,
triangle.png,you,0,Z,,,,,,,,,3,0,12,3,,,,,,,,,92.30960589996539,,,,,,,,,,,,,,,,,,,,,,,,,,,,,,,,,,92.29358539998066,92.30960589996539,92.79326509998646,92.79326509998646,92.79326509998646,92.79326509998646,92.80963849998079,93.09319569997024,93.09319569997024,93.09319569997024,93.22704979998525,z,0.4213150000432506,None,93.22747179993894,93.243183100014,94.24362409999594,94.22744209994562,,,,,,,,,,,,,,,,,,,,,,,,,,,,,,,,,,,,,,,,,,,,,,,,,,,,,,,,,,,,,,,,,,,,,,,,,,,,,,,,,,,,b_6,001,2024-11-28_12h44.01.141,untitled,2024.1.5,None,2024-11-28 12h44.14.089208 +0530,
square.png,stranger,0,Z,,,,,,,,,3,1,13,2,,,,,,,,,94.24362409999594,,,,,,,,,,,,,,,,,,,,,,,,,,,,,,,,,,94.22780160000548,94.24362409999594,94.72751539992169,94.72751539992169,94.72751539992169,94.72751539992169,94.7440924999537,95.02735610003583,95.02735610003583,95.02735610003583,95.04490290000103,m,0.31557549990247935,None,95.04533260001335,95.06065240001772,96.0614193000365,96.04502189997584,,,,,,,,,,,,,,,,,,,,,,,,,,,,,,,,,,,,,,,,,,,,,,,,,,,,,,,,,,,,,,,,,,,,,,,,,,,,,,,,,,,,b_6,001,2024-11-28_12h44.01.141,untitled,2024.1.5,None,2024-11-28 12h44.14.089208 +0530,
triangle.png,stranger,1,M,,,,,,,,,3,2,14,1,,,,,,,,,96.0614193000365,,,,,,,,,,,,,,,,,,,,,,,,,,,,,,,,,,96.04538309993222,96.0614193000365,96.54488109995145,96.54488109995145,96.54488109995145,96.54488109995145,96.56168669997714,96.84501950000413,96.84501950000413,96.84501950000413,96.86225959996227,z,0.3142868001013994,None,96.86268739996012,96.87845329998527,97.87896759994328,97.86258269997779,,,,,,,,,,,,,,,,,,,,,,,,,,,,,,,,,,,,,,,,,,,,,,,,,,,,,,,,,,,,,,,,,,,,,,,,,,,,,,,,,,,,b_6,001,2024-11-28_12h44.01.141,untitled,2024.1.5,None,2024-11-28 12h44.14.089208 +0530,
square.png,you,1,M,,,,,,,,,3,3,15,0,,,,,,,,,97.87896759994328,,,,,,,,,,,,,,,,,,,,,,,,,,,,,,,,,,97.8629308999516,97.87896759994328,98.36240350001026,98.36240350001026,98.36240350001026,98.36240350001026,98.37901219993364,98.66275749995839,98.66275749995839,98.66275749995839,98.7466129999375,m,0.3807246999349445,None,98.74703540001065,98.76269719994161,99.7633182000136,99.74682250001933,,,,,,,,,,,,,,,,,,,,,,,,,,,,,,,,,,,,,,,,,,,,,,,,,,,,,,,,,,,,,,,,,,,,,,,,,,,,,,,,,,,,b_6,001,2024-11-28_12h44.01.141,untitled,2024.1.5,None,2024-11-28 12h44.14.089208 +0530,
triangle.png,you,0,Z,,,,,,,,,4,0,16,3,,,,,,,,,99.7633182000136,,,,,,,,,,,,,,,,,,,,,,,,,,,,,,,,,,99.74717190000229,99.7633182000136,100.24686590000056,100.24686590000056,100.24686590000056,100.24686590000056,100.2633737999713,100.54690830002073,100.54690830002073,100.54690830002073,100.63129589997698,z,0.3835022000130266,None,100.63182679994497,100.64706540002953,101.64742729999125,101.63139929994941,,,,,,,,,,,,,,,,,,,,,,,,,,,,,,,,,,,,,,,,,,,,,,,,,,,,,,,,,,,,,,,,,,,,,,,,,,,,,,,,,,,,b_6,001,2024-11-28_12h44.01.141,untitled,2024.1.5,None,2024-11-28 12h44.14.089208 +0530,
square.png,stranger,0,Z,,,,,,,,,4,1,17,2,,,,,,,,,101.64742729999125,,,,,,,,,,,,,,,,,,,,,,,,,,,,,,,,,,101.6317503999453,101.64742729999125,102.13126409996767,102.13126409996767,102.13126409996767,102.13126409996767,102.14789499994367,102.43126039998606,102.43126039998606,102.43126039998606,102.56523409998044,z,0.4272375999717042,None,102.56565889995545,102.5812710999744,103.58168339997064,103.56579289992806,,,,,,,,,,,,,,,,,,,,,,,,,,,,,,,,,,,,,,,,,,,,,,,,,,,,,,,,,,,,,,,,,,,,,,,,,,,,,,,,,,,,b_6,001,2024-11-28_12h44.01.141,untitled,2024.1.5,None,2024-11-28 12h44.14.089208 +0530,
triangle.png,stranger,1,M,,,,,,,,,4,2,18,1,,,,,,,,,103.58168339997064,,,,,,,,,,,,,,,,,,,,,,,,,,,,,,,,,,103.56614280003123,103.58168339997064,104.06538819998968,104.06538819998968,104.06538819998968,104.06538819998968,104.08223860000726,104.36560969997663,104.36560969997663,104.36560969997663,104.44969409995247,m,0.36965700006112456,None,104.45011590002105,104.46564169996418,105.46598029998131,105.45010959997308,,,,,,,,,,,,,,,,,,,,,,,,,,,,,,,,,,,,,,,,,,,,,,,,,,,,,,,,,,,,,,,,,,,,,,,,,,,,,,,,,,,,b_6,001,2024-11-28_12h44.01.141,untitled,2024.1.5,None,2024-11-28 12h44.14.089208 +0530,
square.png,you,1,M,,,,,,,,,4,3,19,0,,,,,,,,,105.46598029998131,,,,,,,,,,,,,,,,,,,,,,,,,,,,,,,,,,105.4504569999408,105.46598029998131,105.94994489999954,105.94994489999954,105.94994489999954,105.94994489999954,105.96645009994972,106.24986119999085,106.24986119999085,106.24986119999085,106.28396090003662,z,0.3243802000069991,None,106.2843863000162,106.29993019998074,107.30042179999873,107.28421019995585,,,,,,,,,,,,,,,,,,,,,,,,,,,,,,,,,,,,,,,,,,,,,,,,,,,,,,,,,,,,,,,,,,,,,,,,,,,,,,,,,,,,b_6,001,2024-11-28_12h44.01.141,untitled,2024.1.5,None,2024-11-28 12h44.14.089208 +0530,
square.png,you,1,M,,,,,,,,,5,0,20,0,,,,,,,,,107.30042179999873,,,,,,,,,,,,,,,,,,,,,,,,,,,,,,,,,,107.28455849993043,107.30042179999873,107.78384910000023,107.78384910000023,107.78384910000023,107.78384910000023,107.80072840000503,108.08423019992188,108.08423019992188,108.08423019992188,108.06831330002751,m,0.27964790002442896,None,108.06874479993712,108.08423019992188,109.08460729999933,109.0684242999414,,,,,,,,,,,,,,,,,,,,,,,,,,,,,,,,,,,,,,,,,,,,,,,,,,,,,,,,,,,,,,,,,,,,,,,,,,,,,,,,,,,,b_6,001,2024-11-28_12h44.01.141,untitled,2024.1.5,None,2024-11-28 12h44.14.089208 +0530,
triangle.png,you,0,Z,,,,,,,,,5,1,21,3,,,,,,,,,109.08460729999933,,,,,,,,,,,,,,,,,,,,,,,,,,,,,,,,,,109.06877499993425,109.08460729999933,109.56843979994301,109.56843979994301,109.56843979994301,109.56843979994301,109.58501299994532,109.86830999993253,109.86830999993253,109.86830999993253,109.85249740001746,m,0.2786828000098467,None,109.85291749995667,109.86830999993253,110.86892059992533,110.85272409999743,,,,,,,,,,,,,,,,,,,,,,,,,,,,,,,,,,,,,,,,,,,,,,,,,,,,,,,,,,,,,,,,,,,,,,,,,,,,,,,,,,,,b_6,001,2024-11-28_12h44.01.141,untitled,2024.1.5,None,2024-11-28 12h44.14.089208 +0530,
triangle.png,stranger,1,M,,,,,,,,,5,2,22,1,,,,,,,,,110.86892059992533,,,,,,,,,,,,,,,,,,,,,,,,,,,,,,,,,,110.85307509999257,110.86892059992533,111.35270179994404,111.35270179994404,111.35270179994404,111.35270179994404,111.36896709993016,111.65265709999949,111.65265709999949,111.65265709999949,111.73671820003074,z,0.3788155000656843,None,111.73713779996615,111.75254060002044,112.75321410002653,112.73686349997297,,,,,,,,,,,,,,,,,,,,,,,,,,,,,,,,,,,,,,,,,,,,,,,,,,,,,,,,,,,,,,,,,,,,,,,,,,,,,,,,,,,,b_6,001,2024-11-28_12h44.01.141,untitled,2024.1.5,None,2024-11-28 12h44.14.089208 +0530,
square.png,stranger,0,Z,,,,,,,,,5,3,23,2,,,,,,,,,112.75321410002653,,,,,,,,,,,,,,,,,,,,,,,,,,,,,,,,,,112.73720660002436,112.75321410002653,113.23681739997119,113.23681739997119,113.23681739997119,113.23681739997119,113.25356019998435,113.53678470000159,113.53678470000159,113.53678470000159,113.57097529992461,m,0.32952280004974455,None,113.57139279996045,113.58703079994302,114.58754500001669,114.57108609995339,,,,,,,,,,,,,,,,,,,,,,,,,,,,,,,,,,,,,,,,,,,,,,,,,,,,,,,,,,,,,,,,,,,,,,,,,,,,,,,,,,,,b_6,001,2024-11-28_12h44.01.141,untitled,2024.1.5,None,2024-11-28 12h44.14.089208 +0530,
triangle.png,stranger,1,M,,,,,,,,,6,0,24,1,,,,,,,,,114.58754500001669,,,,,,,,,,,,,,,,,,,,,,,,,,,,,,,,,,114.571436899947,114.58754500001669,115.07125559996348,115.07125559996348,115.07125559996348,115.07125559996348,115.0879208999686,115.37108890002128,115.37108890002128,115.37108890002128,115.3886935999617,z,0.3112529000500217,None,115.38911320001353,115.40464620001148,116.40501540002879,116.38889019994531,,,,,,,,,,,,,,,,,,,,,,,,,,,,,,,,,,,,,,,,,,,,,,,,,,,,,,,,,,,,,,,,,,,,,,,,,,,,,,,,,,,,b_6,001,2024-11-28_12h44.01.141,untitled,2024.1.5,None,2024-11-28 12h44.14.089208 +0530,
triangle.png,you,0,Z,,,,,,,,,6,1,25,3,,,,,,,,,116.40501540002879,,,,,,,,,,,,,,,,,,,,,,,,,,,,,,,,,,116.38924089993816,116.40501540002879,116.88881619996391,116.88881619996391,116.88881619996391,116.88881619996391,116.90523409994785,,,,117.0562360000331,z,0.16301730007398874,None,117.0566708999686,117.07194980001077,118.07246479997411,118.05650009994861,,,,,,,,,,,,,,,,,,,,,,,,,,,,,,,,,,,,,,,,,,,,,,,,,,,,,,,,,,,,,,,,,,,,,,,,,,,,,,,,,,,,b_6,001,2024-11-28_12h44.01.141,untitled,2024.1.5,None,2024-11-28 12h44.14.089208 +0530,
square.png,stranger,0,Z,,,,,,,,,6,2,26,2,,,,,,,,,118.07246479997411,,,,,,,,,,,,,,,,,,,,,,,,,,,,,,,,,,118.05684919992927,118.07246479997411,118.55640589992981,118.55640589992981,118.55640589992981,118.55640589992981,118.5730329999933,118.85616059997119,118.85616059997119,118.85616059997119,119.02391520002857,m,0.4594741999171674,None,119.02435940003488,119.03989389992785,120.04040499997791,120.02396629995201,,,,,,,,,,,,,,,,,,,,,,,,,,,,,,,,,,,,,,,,,,,,,,,,,,,,,,,,,,,,,,,,,,,,,,,,,,,,,,,,,,,,b_6,001,2024-11-28_12h44.01.141,untitled,2024.1.5,None,2024-11-28 12h44.14.089208 +0530,
square.png,you,1,M,,,,,,,,,6,3,27,0,,,,,,,,,120.04040499997791,,,,,,,,,,,,,,,,,,,,,,,,,,,,,,,,,,120.02431779995095,120.04040499997791,120.52422259992454,120.52422259992454,120.52422259992454,120.52422259992454,120.5405005000066,120.8238559999736,120.8238559999736,120.8238559999736,120.85792360000778,m,0.323477300000377,None,120.8583480999805,120.87392459996045,121.87468439992517,121.85813599999528,,,,,,,,,,,,,,,,,,,,,,,,,,,,,,,,,,,,,,,,,,,,,,,,,,,,,,,,,,,,,,,,,,,,,,,,,,,,,,,,,,,,b_6,001,2024-11-28_12h44.01.141,untitled,2024.1.5,None,2024-11-28 12h44.14.089208 +0530,
square.png,you,1,M,,,,,,,,,7,0,28,0,,,,,,,,,121.87468439992517,,,,,,,,,,,,,,,,,,,,,,,,,,,,,,,,,,121.85848689998966,121.87468439992517,122.358263000031,122.358263000031,122.358263000031,122.358263000031,122.37497749994509,122.6583638000302,122.6583638000302,122.6583638000302,122.69236620003358,z,0.3248437999282032,None,122.69279060000554,122.70825569995213,123.7088725999929,123.69264939997811,,,,,,,,,,,,,,,,,,,,,,,,,,,,,,,,,,,,,,,,,,,,,,,,,,,,,,,,,,,,,,,,,,,,,,,,,,,,,,,,,,,,b_6,001,2024-11-28_12h44.01.141,untitled,2024.1.5,None,2024-11-28 12h44.14.089208 +0530,
triangle.png,you,0,Z,,,,,,,,,7,1,29,3,,,,,,,,,123.7088725999929,,,,,,,,,,,,,,,,,,,,,,,,,,,,,,,,,,123.69299759995192,123.7088725999929,124.19261949998327,124.19261949998327,124.19261949998327,124.19261949998327,124.20917169994209,124.49250759999268,124.49250759999268,124.49250759999268,124.54312679998111,z,0.33890059997793287,None,124.54354500002228,124.55912829993758,125.55972549994476,125.54343459999654,,,,,,,,,,,,,,,,,,,,,,,,,,,,,,,,,,,,,,,,,,,,,,,,,,,,,,,,,,,,,,,,,,,,,,,,,,,,,,,,,,,,b_6,001,2024-11-28_12h44.01.141,untitled,2024.1.5,None,2024-11-28 12h44.14.089208 +0530,
square.png,stranger,0,Z,,,,,,,,,7,2,30,2,,,,,,,,,125.55972549994476,,,,,,,,,,,,,,,,,,,,,,,,,,,,,,,,,,125.54378690000158,125.55972549994476,126.04337909992319,126.04337909992319,126.04337909992319,126.04337909992319,126.06000339996535,126.34357769996859,126.34357769996859,126.34357769996859,126.44411049992777,m,0.38708829996176064,None,126.44453149999026,126.46026630001143,127.46054639993235,127.44451619999018,,,,,,,,,,,,,,,,,,,,,,,,,,,,,,,,,,,,,,,,,,,,,,,,,,,,,,,,,,,,,,,,,,,,,,,,,,,,,,,,,,,,b_6,001,2024-11-28_12h44.01.141,untitled,2024.1.5,None,2024-11-28 12h44.14.089208 +0530,
triangle.png,stranger,1,M,,,,,,,,,7,3,31,1,,,,,,,,,127.46054639993235,,,,,,,,,,,,,,,,,,,,,,,,,,,,,,,,,,127.44487390003633,127.46054639993235,127.94446979998611,127.94446979998611,127.94446979998611,127.94446979998611,127.9609551000176,,,,128.17866560001858,z,0.23109340004157275,None,128.17909360001795,128.19425179995596,129.19482370000333,129.17868429992814,,,,,,,,,,,,,,,,,,,,,,,,,,,,,,,,,,,,,,,,,,,,,,,,,,,,,,,,,,,,,,,,,,,,,,,,,,,,,,,,,,,,b_6,001,2024-11-28_12h44.01.141,untitled,2024.1.5,None,2024-11-28 12h44.14.089208 +0530,
triangle.png,you,0,Z,,,,,,,,,8,0,32,3,,,,,,,,,129.19482370000333,,,,,,,,,,,,,,,,,,,,,,,,,,,,,,,,,,129.17902779998258,129.19482370000333,129.67857689992525,129.67857689992525,129.67857689992525,129.67857689992525,129.6951846999582,129.97848369996063,129.97848369996063,129.97848369996063,129.96275850001257,m,0.2769817999796942,None,129.96318259998225,129.97848369996063,130.978978500003,130.96299729996826,,,,,,,,,,,,,,,,,,,,,,,,,,,,,,,,,,,,,,,,,,,,,,,,,,,,,,,,,,,,,,,,,,,,,,,,,,,,,,,,,,,,b_6,001,2024-11-28_12h44.01.141,untitled,2024.1.5,None,2024-11-28 12h44.14.089208 +0530,
square.png,stranger,0,Z,,,,,,,,,8,1,33,2,,,,,,,,,130.978978500003,,,,,,,,,,,,,,,,,,,,,,,,,,,,,,,,,,130.9633571000304,130.978978500003,131.46299060003366,131.46299060003366,131.46299060003366,131.46299060003366,131.47961449995637,131.76289949996863,131.76289949996863,131.76289949996863,131.9304954999825,z,0.4612702999729663,None,131.93091919994913,131.94629059999716,132.94668229995295,132.93062919995282,,,,,,,,,,,,,,,,,,,,,,,,,,,,,,,,,,,,,,,,,,,,,,,,,,,,,,,,,,,,,,,,,,,,,,,,,,,,,,,,,,,,b_6,001,2024-11-28_12h44.01.141,untitled,2024.1.5,None,2024-11-28 12h44.14.089208 +0530,
square.png,you,1,M,,,,,,,,,8,2,34,0,,,,,,,,,132.94668229995295,,,,,,,,,,,,,,,,,,,,,,,,,,,,,,,,,,132.93098669999745,132.94668229995295,133.4307166999206,133.4307166999206,133.4307166999206,133.4307166999206,133.44717599998694,133.73045000003185,133.73045000003185,133.73045000003185,133.84811499994248,z,0.40527210000436753,None,133.84853519999888,133.86394549999386,134.86462280002888,134.848230100004,,,,,,,,,,,,,,,,,,,,,,,,,,,,,,,,,,,,,,,,,,,,,,,,,,,,,,,,,,,,,,,,,,,,,,,,,,,,,,,,,,,,b_6,001,2024-11-28_12h44.01.141,untitled,2024.1.5,None,2024-11-28 12h44.14.089208 +0530,
triangle.png,stranger,1,M,,,,,,,,,8,3,35,1,,,,,,,,,134.86462280002888,,,,,,,,,,,,,,,,,,,,,,,,,,,,,,,,,,134.84857899998315,134.86462280002888,135.3481767999474,135.3481767999474,135.3481767999474,135.3481767999474,135.36489219998475,135.6480700999964,135.6480700999964,135.6480700999964,135.69898400001694,m,0.34758629999123514,None,135.6994013999356,135.7148739999393,136.71547119994648,136.69914079993032,,,,,,,,,,,,,,,,,,,,,,,,,,,,,,,,,,,,,,,,,,,,,,,,,,,,,,,,,,,,,,,,,,,,,,,,,,,,,,,,,,,,b_6,001,2024-11-28_12h44.01.141,untitled,2024.1.5,None,2024-11-28 12h44.14.089208 +0530,
square.png,stranger,0,Z,,,,,,,,,9,0,36,2,,,,,,,,,136.71547119994648,,,,,,,,,,,,,,,,,,,,,,,,,,,,,,,,,,136.69949189992622,136.71547119994648,137.1993502000114,137.1993502000114,137.1993502000114,137.1993502000114,137.21568579995073,137.4991233999608,137.4991233999608,137.4991233999608,138.28344589995686,None,,,138.28363279998302,138.2996810999466,139.30007899994962,139.28393509995658,,,,,,,,138.2996810999466,,,,,,,,,,,,,,,,,,,,,,,,,,,,,,,,,,,,,,,,,,,,,,,,,,,,,,,,,,,,,,,,,,,,,,,,,,,,b_6,001,2024-11-28_12h44.01.141,untitled,2024.1.5,None,2024-11-28 12h44.14.089208 +0530,
square.png,you,1,M,,,,,,,,,9,1,37,0,,,,,,,,,139.30007899994962,,,,,,,,,,,,,,,,,,,,,,,,,,,,,,,,,,139.2842899999814,139.30007899994962,139.80057570000645,139.80057570000645,139.80057570000645,139.80057570000645,139.80057570000645,140.1006029000273,140.1006029000273,140.1006029000273,140.11794130003545,m,0.3097720999503508,None,140.11836409999523,140.13382679992355,141.13446820003446,141.11808689997997,,,,,,,,,,,,,,,,,,,,,,,,,,,,,,,,,,,,,,,,,,,,,,,,,,,,,,,,,,,,,,,,,,,,,,,,,,,,,,,,,,,,b_6,001,2024-11-28_12h44.01.141,untitled,2024.1.5,None,2024-11-28 12h44.14.089208 +0530,
triangle.png,stranger,1,M,,,,,,,,,9,2,38,1,,,,,,,,,141.13446820003446,,,,,,,,,,,,,,,,,,,,,,,,,,,,,,,,,,141.1184396999888,141.13446820003446,141.61802329996135,141.61802329996135,141.61802329996135,141.61802329996135,141.63485159992706,141.9180046999827,141.9180046999827,141.9180046999827,142.0189473000355,z,0.3923185000894591,None,142.0193658999633,142.0350440000184,143.03542570001446,143.01924749999307,,,,,,,,,,,,,,,,,,,,,,,,,,,,,,,,,,,,,,,,,,,,,,,,,,,,,,,,,,,,,,,,,,,,,,,,,,,,,,,,,,,,b_6,001,2024-11-28_12h44.01.141,untitled,2024.1.5,None,2024-11-28 12h44.14.089208 +0530,
triangle.png,you,0,Z,,,,,,,,,9,3,39,3,,,,,,,,,143.03542570001446,,,,,,,,,,,,,,,,,,,,,,,,,,,,,,,,,,143.0196001000004,143.03542570001446,143.51932259998284,143.51932259998284,143.51932259998284,143.51932259998284,143.53556500002742,143.81907949992456,143.81907949992456,143.81907949992456,144.6034798999317,None,,,144.6036732000066,144.61941339995246,145.62003819993697,145.60395839996636,,,,,,,,144.61941339995246,,,,,,,,,,,,,,,,,,,,,,,,,,,,,,,,,,,,,,,,,,,,,,,,,,,,,,,,,,,,,,,,,,,,,,,,,,,,b_6,001,2024-11-28_12h44.01.141,untitled,2024.1.5,None,2024-11-28 12h44.14.089208 +0530,
triangle.png,stranger,1,M,,,,,,,,,10,0,40,1,,,,,,,,,145.62003819993697,,,,,,,,,,,,,,,,,,,,,,,,,,,,,,,,,,145.6043172000209,145.62003819993697,146.12047810002696,146.12047810002696,146.12047810002696,146.12047810002696,146.12047810002696,146.42067519994453,146.42067519994453,146.42067519994453,146.5213081999682,m,0.3872389999451116,None,146.52172950003296,146.5372865999816,147.53785730001982,147.5214449999621,,,,,,,,,,,,,,,,,,,,,,,,,,,,,,,,,,,,,,,,,,,,,,,,,,,,,,,,,,,,,,,,,,,,,,,,,,,,,,,,,,,,b_6,001,2024-11-28_12h44.01.141,untitled,2024.1.5,None,2024-11-28 12h44.14.089208 +0530,
square.png,you,1,M,,,,,,,,,10,1,41,0,,,,,,,,,147.53785730001982,,,,,,,,,,,,,,,,,,,,,,,,,,,,,,,,,,147.52179499994963,147.53785730001982,148.02160540001933,148.02160540001933,148.02160540001933,148.02160540001933,148.03808239998762,148.32147369999439,148.32147369999439,148.32147369999439,148.32225720002316,z,0.298035699990578,None,148.3226810999913,148.33800360001624,149.3385058999993,149.32235739997122,,,,,,,,,,,,,,,,,,,,,,,,,,,,,,,,,,,,,,,,,,,,,,,,,,,,,,,,,,,,,,,,,,,,,,,,,,,,,,,,,,,,b_6,001,2024-11-28_12h44.01.141,untitled,2024.1.5,None,2024-11-28 12h44.14.089208 +0530,
square.png,stranger,0,Z,,,,,,,,,10,2,42,2,,,,,,,,,149.3385058999993,,,,,,,,,,,,,,,,,,,,,,,,,,,,,,,,,,149.3227121999953,149.3385058999993,149.8223589999834,149.8223589999834,149.8223589999834,149.8223589999834,149.8391046000179,,,,150.039670499973,m,0.20179059996735305,None,150.04009569995105,150.05565699993167,151.05617120000534,151.03987269999925,,,,,,,,,,,,,,,,,,,,,,,,,,,,,,,,,,,,,,,,,,,,,,,,,,,,,,,,,,,,,,,,,,,,,,,,,,,,,,,,,,,,b_6,001,2024-11-28_12h44.01.141,untitled,2024.1.5,None,2024-11-28 12h44.14.089208 +0530,
triangle.png,you,0,Z,,,,,,,,,10,3,43,3,,,,,,,,,151.05617120000534,,,,,,,,,,,,,,,,,,,,,,,,,,,,,,,,,,151.04021839995403,151.05617120000534,151.53994409996085,151.53994409996085,151.53994409996085,151.53994409996085,151.5566753000021,,,,151.7408415999962,z,0.19883860007394105,None,151.7412671999773,151.7566098999232,152.7571482999483,152.74088599998504,,,,,,,,,,,,,,,,,,,,,,,,,,,,,,,,,,,,,,,,,,,,,,,,,,,,,,,,,,,,,,,,,,,,,,,,,,,,,,,,,,,,b_6,001,2024-11-28_12h44.01.141,untitled,2024.1.5,None,2024-11-28 12h44.14.089208 +0530,
square.png,stranger,0,Z,,,,,,,,,11,0,44,2,,,,,,,,,152.7571482999483,,,,,,,,,,,,,,,,,,,,,,,,,,,,,,,,,,152.7412381999893,152.7571482999483,153.24075809994247,153.24075809994247,153.24075809994247,153.24075809994247,153.2573266000254,153.5408714999212,153.5408714999212,153.5408714999212,153.57489259995054,z,0.3224300999427214,None,153.57531660003588,153.59062839997932,154.59140869998373,154.5751645999262,,,,,,,,,,,,,,,,,,,,,,,,,,,,,,,,,,,,,,,,,,,,,,,,,,,,,,,,,,,,,,,,,,,,,,,,,,,,,,,,,,,,b_6,001,2024-11-28_12h44.01.141,untitled,2024.1.5,None,2024-11-28 12h44.14.089208 +0530,
square.png,you,1,M,,,,,,,,,11,1,45,0,,,,,,,,,154.59140869998373,,,,,,,,,,,,,,,,,,,,,,,,,,,,,,,,,,154.5755092999898,154.59140869998373,155.07519370003138,155.07519370003138,155.07519370003138,155.07519370003138,155.091734000016,155.37491569994017,155.37491569994017,155.37491569994017,155.45909489993937,z,0.3713292999891564,None,155.45951620000415,155.47522289992776,156.47581999993417,156.45955759997014,,,,,,,,,,,,,,,,,,,,,,,,,,,,,,,,,,,,,,,,,,,,,,,,,,,,,,,,,,,,,,,,,,,,,,,,,,,,,,,,,,,,b_6,001,2024-11-28_12h44.01.141,untitled,2024.1.5,None,2024-11-28 12h44.14.089208 +0530,
triangle.png,stranger,1,M,,,,,,,,,11,2,46,1,,,,,,,,,156.47581999993417,,,,,,,,,,,,,,,,,,,,,,,,,,,,,,,,,,156.45991099998355,156.47581999993417,156.9592718000058,156.9592718000058,156.9592718000058,156.9592718000058,156.97608119994402,157.25934099999722,157.25934099999722,157.25934099999722,157.410023799981,z,0.4400966999819502,None,157.41044709994458,157.4262211000314,158.42680799996015,158.41044350003358,,,,,,,,,,,,,,,,,,,,,,,,,,,,,,,,,,,,,,,,,,,,,,,,,,,,,,,,,,,,,,,,,,,,,,,,,,,,,,,,,,,,b_6,001,2024-11-28_12h44.01.141,untitled,2024.1.5,None,2024-11-28 12h44.14.089208 +0530,
triangle.png,you,0,Z,,,,,,,,,11,3,47,3,,,,,,,,,158.42680799996015,,,,,,,,,,,,,,,,,,,,,,,,,,,,,,,,,,158.41079210001044,158.42680799996015,158.9101816000184,158.9101816000184,158.9101816000184,158.9101816000184,158.92700379993767,,,,159.14465809997637,m,0.23302499996498227,None,159.14508689998183,159.16022329998668,160.1608640999766,160.1447125999257,,,,,,,,,,,,,,,,,,,,,,,,,,,,,,,,,,,,,,,,,,,,,,,,,,,,,,,,,,,,,,,,,,,,,,,,,,,,,,,,,,,,b_6,001,2024-11-28_12h44.01.141,untitled,2024.1.5,None,2024-11-28 12h44.14.089208 +0530,
square.png,you,1,M,,,,,,,,,12,0,48,0,,,,,,,,,160.1608640999766,,,,,,,,,,,,,,,,,,,,,,,,,,,,,,,,,,160.1450893000001,160.1608640999766,160.64448429993354,160.64448429993354,160.64448429993354,160.64448429993354,160.66094680002425,,,,160.87860539997928,m,0.22597569995559752,None,160.87902799993753,160.8944926999975,161.89504410000518,161.8788492999738,,,,,,,,,,,,,,,,,,,,,,,,,,,,,,,,,,,,,,,,,,,,,,,,,,,,,,,,,,,,,,,,,,,,,,,,,,,,,,,,,,,,b_6,001,2024-11-28_12h44.01.141,untitled,2024.1.5,None,2024-11-28 12h44.14.089208 +0530,
triangle.png,stranger,1,M,,,,,,,,,12,1,49,1,,,,,,,,,161.89504410000518,,,,,,,,,,,,,,,,,,,,,,,,,,,,,,,,,,161.8792114999378,161.89504410000518,162.37907269992866,162.37907269992866,162.37907269992866,162.37907269992866,162.39532819995657,162.67884810001124,162.67884810001124,162.67884810001124,162.79622000001837,m,0.4127305999863893,None,162.79665209993254,162.81217519997153,163.81239540001843,163.79614659992512,,,,,,,,,,,,,,,,,,,,,,,,,,,,,,,,,,,,,,,,,,,,,,,,,,,,,,,,,,,,,,,,,,,,,,,,,,,,,,,,,,,,b_6,001,2024-11-28_12h44.01.141,untitled,2024.1.5,None,2024-11-28 12h44.14.089208 +0530,
triangle.png,you,0,Z,,,,,,,,,12,2,50,3,,,,,,,,,163.81239540001843,,,,,,,,,,,,,,,,,,,,,,,,,,,,,,,,,,163.79650099994615,163.81239540001843,164.29625779995695,164.29625779995695,164.29625779995695,164.29625779995695,164.31298809999134,164.59638320002705,164.59638320002705,164.59638320002705,164.69690310000442,m,0.39936919999308884,None,164.69733490003273,164.71319079992827,165.71361019997858,165.69741659995634,,,,,,,,,,,,,,,,,,,,,,,,,,,,,,,,,,,,,,,,,,,,,,,,,,,,,,,,,,,,,,,,,,,,,,,,,,,,,,,,,,,,b_6,001,2024-11-28_12h44.01.141,untitled,2024.1.5,None,2024-11-28 12h44.14.089208 +0530,
square.png,stranger,0,Z,,,,,,,,,12,3,51,2,,,,,,,,,165.71361019997858,,,,,,,,,,,,,,,,,,,,,,,,,,,,,,,,,,165.69776819995604,165.71361019997858,166.1976395000238,166.1976395000238,166.1976395000238,166.1976395000238,166.21405519999098,166.49732389999554,166.49732389999554,166.49732389999554,166.58138560003135,m,0.37004099995829165,None,166.58180779998656,166.597627799958,167.5981198999798,167.58162960002664,,,,,,,,,,,,,,,,,,,,,,,,,,,,,,,,,,,,,,,,,,,,,,,,,,,,,,,,,,,,,,,,,,,,,,,,,,,,,,,,,,,,b_6,001,2024-11-28_12h44.01.141,untitled,2024.1.5,None,2024-11-28 12h44.14.089208 +0530,
square.png,you,1,M,,,,,,,,,13,0,52,0,,,,,,,,,167.5981198999798,,,,,,,,,,,,,,,,,,,,,,,,,,,,,,,,,,167.5819835999282,167.5981198999798,168.08189639996272,168.08189639996272,168.08189639996272,168.08189639996272,168.0981912999414,168.38198649999686,168.38198649999686,168.38198649999686,168.4325437999796,z,0.3364395999815315,None,168.432967599947,168.44834260002244,169.44914949999657,169.43264160002582,,,,,,,,,,,,,,,,,,,,,,,,,,,,,,,,,,,,,,,,,,,,,,,,,,,,,,,,,,,,,,,,,,,,,,,,,,,,,,,,,,,,b_6,001,2024-11-28_12h44.01.141,untitled,2024.1.5,None,2024-11-28 12h44.14.089208 +0530,
square.png,stranger,0,Z,,,,,,,,,13,1,53,2,,,,,,,,,169.44914949999657,,,,,,,,,,,,,,,,,,,,,,,,,,,,,,,,,,169.43298849998973,169.44914949999657,169.93274970003404,169.93274970003404,169.93274970003404,169.93274970003404,169.94933680002578,170.2327216999838,170.2327216999838,170.2327216999838,170.35003660002258,m,0.4062629999825731,None,170.35045789997093,170.36616879992653,171.36657600000035,171.3501707999967,,,,,,,,,,,,,,,,,,,,,,,,,,,,,,,,,,,,,,,,,,,,,,,,,,,,,,,,,,,,,,,,,,,,,,,,,,,,,,,,,,,,b_6,001,2024-11-28_12h44.01.141,untitled,2024.1.5,None,2024-11-28 12h44.14.089208 +0530,
triangle.png,stranger,1,M,,,,,,,,,13,2,54,1,,,,,,,,,171.36657600000035,,,,,,,,,,,,,,,,,,,,,,,,,,,,,,,,,,171.3505271000322,171.36657600000035,171.85046520002652,171.85046520002652,171.85046520002652,171.85046520002652,171.8667274999898,172.15019900002517,172.15019900002517,172.15019900002517,172.1677852999419,z,0.31647720001637936,None,172.16821819997858,172.18350659997668,173.1843323999783,173.16783349995967,,,,,,,,,,,,,,,,,,,,,,,,,,,,,,,,,,,,,,,,,,,,,,,,,,,,,,,,,,,,,,,,,,,,,,,,,,,,,,,,,,,,b_6,001,2024-11-28_12h44.01.141,untitled,2024.1.5,None,2024-11-28 12h44.14.089208 +0530,
triangle.png,you,0,Z,,,,,,,,,13,3,55,3,,,,,,,,,173.1843323999783,,,,,,,,,,,,,,,,,,,,,,,,,,,,,,,,,,173.1681831999449,173.1843323999783,173.667832099949,173.667832099949,173.667832099949,173.667832099949,173.68439489998855,,,,173.85218980000354,m,0.18332579999696463,None,173.85262369993143,173.8678607000038,174.86850769992452,174.85209139995277,,,,,,,,,,,,,,,,,,,,,,,,,,,,,,,,,,,,,,,,,,,,,,,,,,,,,,,,,,,,,,,,,,,,,,,,,,,,,,,,,,,,b_6,001,2024-11-28_12h44.01.141,untitled,2024.1.5,None,2024-11-28 12h44.14.089208 +0530,
triangle.png,you,0,Z,,,,,,,,,14,0,56,3,,,,,,,,,174.86850769992452,,,,,,,,,,,,,,,,,,,,,,,,,,,,,,,,,,174.852441099938,174.86850769992452,175.35201089992188,175.35201089992188,175.35201089992188,175.35201089992188,175.36871599999722,175.65222099993844,175.65222099993844,175.65222099993844,176.43618369998876,None,,,176.43637190002482,176.45264309993945,177.4529892000137,177.4366342999274,,,,,,,,176.45264309993945,,,,,,,,,,,,,,,,,,,,,,,,,,,,,,,,,,,,,,,,,,,,,,,,,,,,,,,,,,,,,,,,,,,,,,,,,,,,b_6,001,2024-11-28_12h44.01.141,untitled,2024.1.5,None,2024-11-28 12h44.14.089208 +0530,
triangle.png,stranger,1,M,,,,,,,,,14,1,57,1,,,,,,,,,177.4529892000137,,,,,,,,,,,,,,,,,,,,,,,,,,,,,,,,,,177.43698699993547,177.4529892000137,177.95329309999943,177.95329309999943,177.95329309999943,177.95329309999943,177.95329309999943,178.2535843999358,178.2535843999358,178.2535843999358,178.3543645000318,z,0.3860122000332922,None,178.35478239995427,178.37020489992574,179.37076870002784,179.35461369995028,,,,,,,,,,,,,,,,,,,,,,,,,,,,,,,,,,,,,,,,,,,,,,,,,,,,,,,,,,,,,,,,,,,,,,,,,,,,,,,,,,,,b_6,001,2024-11-28_12h44.01.141,untitled,2024.1.5,None,2024-11-28 12h44.14.089208 +0530,
square.png,you,1,M,,,,,,,,,14,2,58,0,,,,,,,,,179.37076870002784,,,,,,,,,,,,,,,,,,,,,,,,,,,,,,,,,,179.35496569995303,179.37076870002784,179.85440159996506,179.85440159996506,179.85440159996506,179.85440159996506,179.871077699936,180.1544935000129,180.1544935000129,180.1544935000129,180.30511940002907,m,0.4359561000019312,None,180.3055575999897,180.32124009996187,181.3219023999991,181.30543229996692,,,,,,,,,,,,,,,,,,,,,,,,,,,,,,,,,,,,,,,,,,,,,,,,,,,,,,,,,,,,,,,,,,,,,,,,,,,,,,,,,,,,b_6,001,2024-11-28_12h44.01.141,untitled,2024.1.5,None,2024-11-28 12h44.14.089208 +0530,
square.png,stranger,0,Z,,,,,,,,,14,3,59,2,,,,,,,,,181.3219023999991,,,,,,,,,,,,,,,,,,,,,,,,,,,,,,,,,,181.30577999993693,181.3219023999991,181.8055960999336,181.8055960999336,181.8055960999336,181.8055960999336,181.82208029995672,182.105550999986,182.105550999986,182.105550999986,182.1730253000278,m,0.36198379995767027,None,182.1734446999617,182.18877819995396,183.18917789997067,183.17321859998628,,,,,,,,,,,,,,,,,,,,,,,,,,,,,,,,,,,,,,,,,,,,,,,,,,,,,,,,,,,,,,,,,,,,,,,,,,,,,,,,,,,,b_6,001,2024-11-28_12h44.01.141,untitled,2024.1.5,None,2024-11-28 12h44.14.089208 +0530,
square.png,stranger,0,Z,,,,,,,,,15,0,60,2,,,,,,,,,183.18917789997067,,,,,,,,,,,,,,,,,,,,,,,,,,,,,,,,,,183.17356609995477,183.18917789997067,183.67318199994043,183.67318199994043,183.67318199994043,183.67318199994043,183.68954509997275,183.9730198000325,183.9730198000325,183.9730198000325,184.12398899998516,m,0.43838579999282956,None,184.1244060000172,184.14006260002498,185.1404215999646,185.12426670000423,,,,,,,,,,,,,,,,,,,,,,,,,,,,,,,,,,,,,,,,,,,,,,,,,,,,,,,,,,,,,,,,,,,,,,,,,,,,,,,,,,,,b_6,001,2024-11-28_12h44.01.141,untitled,2024.1.5,None,2024-11-28 12h44.14.089208 +0530,
triangle.png,stranger,1,M,,,,,,,,,15,1,61,1,,,,,,,,,185.1404215999646,,,,,,,,,,,,,,,,,,,,,,,,,,,,,,,,,,185.1246157999849,185.1404215999646,185.6239585999865,185.6239585999865,185.6239585999865,185.6239585999865,185.64057159994263,185.92412320000585,185.92412320000585,185.92412320000585,186.00806519994512,m,0.3828481000382453,None,186.0084820999764,186.02419209992513,187.02478380000684,187.00850160000846,,,,,,,,,,,,,,,,,,,,,,,,,,,,,,,,,,,,,,,,,,,,,,,,,,,,,,,,,,,,,,,,,,,,,,,,,,,,,,,,,,,,b_6,001,2024-11-28_12h44.01.141,untitled,2024.1.5,None,2024-11-28 12h44.14.089208 +0530,
square.png,you,1,M,,,,,,,,,15,2,62,0,,,,,,,,,187.02478380000684,,,,,,,,,,,,,,,,,,,,,,,,,,,,,,,,,,187.0088523000013,187.02478380000684,187.50841160002165,187.50841160002165,187.50841160002165,187.50841160002165,187.52489839994814,187.80835109995678,187.80835109995678,187.80835109995678,187.85902640002314,z,0.34196150000207126,None,187.8594429999357,187.8752066999441,188.87536309997085,188.85935189994052,,,,,,,,,,,,,,,,,,,,,,,,,,,,,,,,,,,,,,,,,,,,,,,,,,,,,,,,,,,,,,,,,,,,,,,,,,,,,,,,,,,,b_6,001,2024-11-28_12h44.01.141,untitled,2024.1.5,None,2024-11-28 12h44.14.089208 +0530,
triangle.png,you,0,Z,,,,,,,,,15,3,63,3,,,,,,,,,188.87536309997085,,,,,,,,,,,,,,,,,,,,,,,,,,,,,,,,,,188.85971540003084,188.87536309997085,189.3592163999565,189.3592163999565,189.3592163999565,189.3592163999565,189.37591529998463,189.6593453999376,189.6593453999376,189.6593453999376,189.76005679997616,z,0.38520090002566576,None,189.76048259995878,189.77607010002248,190.77663710003253,190.76046070002485,,,,,,,,,,,,,,,,,,,,,,,,,,,,,,,,,,,,,,,,,,,,,,,,,,,,,,,,,,,,,,,,,,,,,,,,,,,,,,,,,,,,b_6,001,2024-11-28_12h44.01.141,untitled,2024.1.5,None,2024-11-28 12h44.14.089208 +0530,
square.png,stranger,0,Z,,,,,,,,,16,0,64,2,,,,,,,,,190.77663710003253,,,,,,,,,,,,,,,,,,,,,,,,,,,,,,,,,,190.76081929996144,190.77663710003253,191.2604280000087,191.2604280000087,191.2604280000087,191.2604280000087,191.27678089996334,191.5602513999911,191.5602513999911,191.5602513999911,191.66127889999188,m,0.39125179999973625,None,191.66170069994405,191.67727829993237,192.67774189997,192.6615152999293,,,,,,,,,,,,,,,,,,,,,,,,,,,,,,,,,,,,,,,,,,,,,,,,,,,,,,,,,,,,,,,,,,,,,,,,,,,,,,,,,,,,b_6,001,2024-11-28_12h44.01.141,untitled,2024.1.5,None,2024-11-28 12h44.14.089208 +0530,
square.png,you,1,M,,,,,,,,,16,1,65,0,,,,,,,,,192.67774189997,,,,,,,,,,,,,,,,,,,,,,,,,,,,,,,,,,192.66187199996784,192.67774189997,193.16115659999195,193.16115659999195,193.16115659999195,193.16115659999195,193.17790120001882,193.4613838000223,193.4613838000223,193.4613838000223,193.5285501999315,z,0.36612360004801303,None,193.52897210000083,193.54479990003165,194.5452511999756,194.52889499999583,,,,,,,,,,,,,,,,,,,,,,,,,,,,,,,,,,,,,,,,,,,,,,,,,,,,,,,,,,,,,,,,,,,,,,,,,,,,,,,,,,,,b_6,001,2024-11-28_12h44.01.141,untitled,2024.1.5,None,2024-11-28 12h44.14.089208 +0530,
triangle.png,you,0,Z,,,,,,,,,16,2,66,3,,,,,,,,,194.5452511999756,,,,,,,,,,,,,,,,,,,,,,,,,,,,,,,,,,194.52924349997193,194.5452511999756,195.02902050002012,195.02902050002012,195.02902050002012,195.02902050002012,195.04561070003547,195.32899650000036,195.32899650000036,195.32899650000036,195.37968819995876,z,0.33757969993166625,None,195.38011599995662,195.3956920999335,196.39606689999346,196.37997739994898,,,,,,,,,,,,,,,,,,,,,,,,,,,,,,,,,,,,,,,,,,,,,,,,,,,,,,,,,,,,,,,,,,,,,,,,,,,,,,,,,,,,b_6,001,2024-11-28_12h44.01.141,untitled,2024.1.5,None,2024-11-28 12h44.14.089208 +0530,
triangle.png,stranger,1,M,,,,,,,,,16,3,67,1,,,,,,,,,196.39606689999346,,,,,,,,,,,,,,,,,,,,,,,,,,,,,,,,,,196.38033429998904,196.39606689999346,196.87967709999066,196.87967709999066,196.87967709999066,196.87967709999066,196.89634410000872,,,,197.13067550002597,m,0.24746520002372563,None,197.13109769998118,197.14653040003031,198.14698880002834,198.13071479997598,,,,,,,,,,,,,,,,,,,,,,,,,,,,,,,,,,,,,,,,,,,,,,,,,,,,,,,,,,,,,,,,,,,,,,,,,,,,,,,,,,,,b_6,001,2024-11-28_12h44.01.141,untitled,2024.1.5,None,2024-11-28 12h44.14.089208 +0530,
square.png,you,1,M,,,,,,,,,17,0,68,0,,,,,,,,,198.14698880002834,,,,,,,,,,,,,,,,,,,,,,,,,,,,,,,,,,198.13107779994607,198.14698880002834,198.6305573999416,198.6305573999416,198.6305573999416,198.6305573999416,198.6471876000287,198.93060850002803,198.93060850002803,198.93060850002803,199.0147583000362,z,0.37300619995221496,None,199.0151994000189,199.0307402999606,200.03149309998844,200.0152024999261,,,,,,,,,,,,,,,,,,,,,,,,,,,,,,,,,,,,,,,,,,,,,,,,,,,,,,,,,,,,,,,,,,,,,,,,,,,,,,,,,,,,b_6,001,2024-11-28_12h44.01.141,untitled,2024.1.5,None,2024-11-28 12h44.14.089208 +0530,
triangle.png,stranger,1,M,,,,,,,,,17,1,69,1,,,,,,,,,200.03149309998844,,,,,,,,,,,,,,,,,,,,,,,,,,,,,,,,,,200.0155584999593,200.03149309998844,200.5153548999224,200.5153548999224,200.5153548999224,200.5153548999224,200.53180180001073,200.81513469992206,200.81513469992206,200.81513469992206,200.83244869997725,m,0.3084030000027269,None,200.8328717999393,200.84868089994416,201.84889199992176,201.83292559999973,,,,,,,,,,,,,,,,,,,,,,,,,,,,,,,,,,,,,,,,,,,,,,,,,,,,,,,,,,,,,,,,,,,,,,,,,,,,,,,,,,,,b_6,001,2024-11-28_12h44.01.141,untitled,2024.1.5,None,2024-11-28 12h44.14.089208 +0530,
square.png,stranger,0,Z,,,,,,,,,17,2,70,2,,,,,,,,,201.84889199992176,,,,,,,,,,,,,,,,,,,,,,,,,,,,,,,,,,201.83327479998115,201.84889199992176,202.3327922000317,202.3327922000317,202.3327922000317,202.3327922000317,202.34922590001952,202.63286749995314,202.63286749995314,202.63286749995314,202.8499257999938,m,0.5105887999525294,None,202.8503598999232,202.86625079996884,203.86681689997204,203.85044770000968,,,,,,,,,,,,,,,,,,,,,,,,,,,,,,,,,,,,,,,,,,,,,,,,,,,,,,,,,,,,,,,,,,,,,,,,,,,,,,,,,,,,b_6,001,2024-11-28_12h44.01.141,untitled,2024.1.5,None,2024-11-28 12h44.14.089208 +0530,
triangle.png,you,0,Z,,,,,,,,,17,3,71,3,,,,,,,,,203.86681689997204,,,,,,,,,,,,,,,,,,,,,,,,,,,,,,,,,,203.85080349992495,203.86681689997204,204.3502902999753,204.3502902999753,204.3502902999753,204.3502902999753,204.36686309997458,204.6502368999645,204.6502368999645,204.6502368999645,204.78452089999337,m,0.4240005000028759,None,204.78493770002387,204.8004016999621,205.80111919995397,205.78484440001193,,,,,,,,,,,,,,,,,,,,,,,,,,,,,,,,,,,,,,,,,,,,,,,,,,,,,,,,,,,,,,,,,,,,,,,,,,,,,,,,,,,,b_6,001,2024-11-28_12h44.01.141,untitled,2024.1.5,None,2024-11-28 12h44.14.089208 +0530,
triangle.png,stranger,1,M,,,,,,,,,18,0,72,1,,,,,,,,,205.80111919995397,,,,,,,,,,,,,,,,,,,,,,,,,,,,,,,,,,205.78519129997585,205.80111919995397,206.28481879993342,206.28481879993342,206.28481879993342,206.28481879993342,206.30117639992386,206.58467819995712,206.58467819995712,206.58467819995712,206.73542059992906,z,0.44299689994659275,None,206.73583999997936,206.7515225999523,207.7519878000021,207.73585289996117,,,,,,,,,,,,,,,,,,,,,,,,,,,,,,,,,,,,,,,,,,,,,,,,,,,,,,,,,,,,,,,,,,,,,,,,,,,,,,,,,,,,b_6,001,2024-11-28_12h44.01.141,untitled,2024.1.5,None,2024-11-28 12h44.14.089208 +0530,
square.png,stranger,0,Z,,,,,,,,,18,1,73,2,,,,,,,,,207.7519878000021,,,,,,,,,,,,,,,,,,,,,,,,,,,,,,,,,,207.73620249994565,207.7519878000021,208.23575689992867,208.23575689992867,208.23575689992867,208.23575689992867,208.25240350002423,208.5357292999979,208.5357292999979,208.5357292999979,208.53649780002888,m,0.29868329991586506,None,208.5369168999605,208.5525454999879,209.5530745999422,209.53685859998222,,,,,,,,,,,,,,,,,,,,,,,,,,,,,,,,,,,,,,,,,,,,,,,,,,,,,,,,,,,,,,,,,,,,,,,,,,,,,,,,,,,,b_6,001,2024-11-28_12h44.01.141,untitled,2024.1.5,None,2024-11-28 12h44.14.089208 +0530,
square.png,you,1,M,,,,,,,,,18,2,74,0,,,,,,,,,209.5530745999422,,,,,,,,,,,,,,,,,,,,,,,,,,,,,,,,,,209.53720939997584,209.5530745999422,210.03669530001935,210.03669530001935,210.03669530001935,210.03669530001935,210.05319649993908,210.3365542999236,210.3365542999236,210.3365542999236,210.4706515999278,m,0.4228344999719411,None,210.47107460000552,210.48676010000054,211.48734839993995,211.47085819998756,,,,,,,,,,,,,,,,,,,,,,,,,,,,,,,,,,,,,,,,,,,,,,,,,,,,,,,,,,,,,,,,,,,,,,,,,,,,,,,,,,,,b_6,001,2024-11-28_12h44.01.141,untitled,2024.1.5,None,2024-11-28 12h44.14.089208 +0530,
triangle.png,you,0,Z,,,,,,,,,18,3,75,3,,,,,,,,,211.48734839993995,,,,,,,,,,,,,,,,,,,,,,,,,,,,,,,,,,211.47121139999945,211.48734839993995,211.97093850001693,211.97093850001693,211.97093850001693,211.97093850001693,211.98736209992785,212.27104569994844,212.27104569994844,212.27104569994844,212.2717608999228,z,0.2926187999546528,None,212.27217399992514,212.28754930000287,213.28835709998384,213.27182389993686,,,,,,,,,,,,,,,,,,,,,,,,,,,,,,,,,,,,,,,,,,,,,,,,,,,,,,,,,,,,,,,,,,,,,,,,,,,,,,,,,,,,b_6,001,2024-11-28_12h44.01.141,untitled,2024.1.5,None,2024-11-28 12h44.14.089208 +0530,
triangle.png,you,0,Z,,,,,,,,,19,0,76,3,,,,,,,,,213.28835709998384,,,,,,,,,,,,,,,,,,,,,,,,,,,,,,,,,,213.27217529993504,213.28835709998384,213.77200689993333,213.77200689993333,213.77200689993333,213.77200689993333,213.7886303999694,214.07176720001735,214.07176720001735,214.07176720001735,214.08923429995775,m,0.30631139990873635,None,214.0896712000249,214.1056399999652,215.1057786999736,215.0896233000094,,,,,,,,,,,,,,,,,,,,,,,,,,,,,,,,,,,,,,,,,,,,,,,,,,,,,,,,,,,,,,,,,,,,,,,,,,,,,,,,,,,,b_6,001,2024-11-28_12h44.01.141,untitled,2024.1.5,None,2024-11-28 12h44.14.089208 +0530,
square.png,stranger,0,Z,,,,,,,,,19,1,77,2,,,,,,,,,215.1057786999736,,,,,,,,,,,,,,,,,,,,,,,,,,,,,,,,,,215.0900012999773,215.1057786999736,215.5895773000084,215.5895773000084,215.5895773000084,215.5895773000084,215.6060147000244,,,,215.80682860000525,z,0.20497890003025532,None,215.80726509995293,215.82274119998328,216.82341569999699,216.80718439992052,,,,,,,,,,,,,,,,,,,,,,,,,,,,,,,,,,,,,,,,,,,,,,,,,,,,,,,,,,,,,,,,,,,,,,,,,,,,,,,,,,,,b_6,001,2024-11-28_12h44.01.141,untitled,2024.1.5,None,2024-11-28 12h44.14.089208 +0530,
square.png,you,1,M,,,,,,,,,19,2,78,0,,,,,,,,,216.82341569999699,,,,,,,,,,,,,,,,,,,,,,,,,,,,,,,,,,216.80753879994154,216.82341569999699,217.30714209994767,217.30714209994767,217.30714209994767,217.30714209994767,217.32367870002054,217.60686599998735,217.60686599998735,217.60686599998735,217.67427770001814,z,0.3631581000518054,None,217.67482259997632,217.69011770002544,218.69102399994154,218.6748042999534,,,,,,,,,,,,,,,,,,,,,,,,,,,,,,,,,,,,,,,,,,,,,,,,,,,,,,,,,,,,,,,,,,,,,,,,,,,,,,,,,,,,b_6,001,2024-11-28_12h44.01.141,untitled,2024.1.5,None,2024-11-28 12h44.14.089208 +0530,
triangle.png,stranger,1,M,,,,,,,,,19,3,79,1,,,,,,,,,218.69102399994154,,,,,,,,,,,,,,,,,,,,,,,,,,,,,,,,,,218.67519720003475,218.69102399994154,219.17463589995168,219.17463589995168,219.17463589995168,219.17463589995168,219.1912747999886,219.4746970999986,219.4746970999986,219.4746970999986,219.55887199996505,m,0.3770970000186935,None,219.55930049996823,219.5747987999348,220.57510599994566,220.55890649999492,,,,,,,,,,,,,,,,,,,,,,,,,,,,,,,,,,,,,,,,,,,,,,,,,,,,,,,,,,,,,,,,,,,,,,,,,,,,,,,,,,,,b_6,001,2024-11-28_12h44.01.141,untitled,2024.1.5,None,2024-11-28 12h44.14.089208 +0530,
square.png,you,1,M,,,,,,,,,20,0,80,0,,,,,,,,,220.57510599994566,,,,,,,,,,,,,,,,,,,,,,,,,,,,,,,,,,220.55926290003117,220.57510599994566,221.05900499993004,221.05900499993004,221.05900499993004,221.05900499993004,221.07570729998406,221.35895899997558,221.35895899997558,221.35895899997558,221.39314689999446,z,0.319483199971728,None,221.39356330002192,221.40885699994396,222.40971919998992,222.39316159998998,,,,,,,,,,,,,,,,,,,,,,,,,,,,,,,,,,,,,,,,,,,,,,,,,,,,,,,,,,,,,,,,,,,,,,,,,,,,,,,,,,,,b_6,001,2024-11-28_12h44.01.141,untitled,2024.1.5,None,2024-11-28 12h44.14.089208 +0530,
triangle.png,you,0,Z,,,,,,,,,20,1,81,3,,,,,,,,,222.40971919998992,,,,,,,,,,,,,,,,,,,,,,,,,,,,,,,,,,222.39351660001557,222.40971919998992,222.89320669998415,222.89320669998415,222.89320669998415,222.89320669998415,222.90977349993773,,,,223.16081949998625,m,0.25321430002804846,None,223.16124309995212,223.176475699991,224.1771239999216,224.16076539992355,,,,,,,,,,,,,,,,,,,,,,,,,,,,,,,,,,,,,,,,,,,,,,,,,,,,,,,,,,,,,,,,,,,,,,,,,,,,,,,,,,,,b_6,001,2024-11-28_12h44.01.141,untitled,2024.1.5,None,2024-11-28 12h44.14.089208 +0530,
triangle.png,stranger,1,M,,,,,,,,,20,2,82,1,,,,,,,,,224.1771239999216,,,,,,,,,,,,,,,,,,,,,,,,,,,,,,,,,,224.16111929994076,224.1771239999216,224.66103940003086,224.66103940003086,224.66103940003086,224.66103940003086,224.6776931999484,224.96087710000575,224.96087710000575,224.96087710000575,225.17845150001813,z,0.5053083999082446,None,225.17898540000897,225.19420969998464,226.19487220002338,226.17838980001397,,,,,,,,,,,,,,,,,,,,,,,,,,,,,,,,,,,,,,,,,,,,,,,,,,,,,,,,,,,,,,,,,,,,,,,,,,,,,,,,,,,,b_6,001,2024-11-28_12h44.01.141,untitled,2024.1.5,None,2024-11-28 12h44.14.089208 +0530,
square.png,stranger,0,Z,,,,,,,,,20,3,83,2,,,,,,,,,226.19487220002338,,,,,,,,,,,,,,,,,,,,,,,,,,,,,,,,,,226.17873659997713,226.19487220002338,226.6786345000146,226.6786345000146,226.6786345000146,226.6786345000146,226.69501269992907,226.97843959997408,226.97843959997408,226.97843959997408,227.07927649992052,m,0.39307049999479204,None,227.07972009992227,227.09506359999068,228.09587379998993,228.07937209994998,,,,,,,,,,,,,,,,,,,,,,,,,,,,,,,,,,,,,,,,,,,,,,,,,,,,,,,,,,,,,,,,,,,,,,,,,,,,,,,,,,,,b_6,001,2024-11-28_12h44.01.141,untitled,2024.1.5,None,2024-11-28 12h44.14.089208 +0530,
square.png,you,1,M,,,,,,,,,21,0,84,0,,,,,,,,,228.09587379998993,,,,,,,,,,,,,,,,,,,,,,,,,,,,,,,,,,228.0797230999451,228.09587379998993,228.5794190999586,228.5794190999586,228.5794190999586,228.5794190999586,228.5959859000286,228.8795540999854,228.8795540999854,228.8795540999854,228.93024289992172,z,0.3402731000678614,None,228.93066219997127,228.94608030002564,229.94682389998343,229.9305002000183,,,,,,,,,,,,,,,,,,,,,,,,,,,,,,,,,,,,,,,,,,,,,,,,,,,,,,,,,,,,,,,,,,,,,,,,,,,,,,,,,,,,b_6,001,2024-11-28_12h44.01.141,untitled,2024.1.5,None,2024-11-28 12h44.14.089208 +0530,
triangle.png,stranger,1,M,,,,,,,,,21,1,85,1,,,,,,,,,229.94682389998343,,,,,,,,,,,,,,,,,,,,,,,,,,,,,,,,,,229.93084859999362,229.94682389998343,230.43031600001268,230.43031600001268,230.43031600001268,230.43031600001268,230.44709569995757,230.73036829999182,230.73036829999182,230.73036829999182,230.847755099996,m,0.4097182999830693,None,230.8481749999337,230.86367799993604,231.8644806999946,231.84826100000646,,,,,,,,,,,,,,,,,,,,,,,,,,,,,,,,,,,,,,,,,,,,,,,,,,,,,,,,,,,,,,,,,,,,,,,,,,,,,,,,,,,,b_6,001,2024-11-28_12h44.01.141,untitled,2024.1.5,None,2024-11-28 12h44.14.089208 +0530,
square.png,stranger,0,Z,,,,,,,,,21,2,86,2,,,,,,,,,231.8644806999946,,,,,,,,,,,,,,,,,,,,,,,,,,,,,,,,,,231.8486075999681,231.8644806999946,232.3479519999819,232.3479519999819,232.3479519999819,232.3479519999819,232.36477300000843,232.6481098999502,232.6481098999502,232.6481098999502,232.7488175999606,m,0.3868753999704495,None,232.7492462999653,232.76475109998137,233.76549569994677,233.7489254999673,,,,,,,,,,,,,,,,,,,,,,,,,,,,,,,,,,,,,,,,,,,,,,,,,,,,,,,,,,,,,,,,,,,,,,,,,,,,,,,,,,,,b_6,001,2024-11-28_12h44.01.141,untitled,2024.1.5,None,2024-11-28 12h44.14.089208 +0530,
triangle.png,you,0,Z,,,,,,,,,21,3,87,3,,,,,,,,,233.76549569994677,,,,,,,,,,,,,,,,,,,,,,,,,,,,,,,,,,233.749277099967,233.76549569994677,234.24923630000558,234.24923630000558,234.24923630000558,234.24923630000558,234.26565079996362,234.5487975999713,234.5487975999713,234.5487975999713,234.64996389998123,z,0.39324939996004105,None,234.65038320003077,234.66588069999125,235.66647189995274,235.65007640002295,,,,,,,,,,,,,,,,,,,,,,,,,,,,,,,,,,,,,,,,,,,,,,,,,,,,,,,,,,,,,,,,,,,,,,,,,,,,,,,,,,,,b_6,001,2024-11-28_12h44.01.141,untitled,2024.1.5,None,2024-11-28 12h44.14.089208 +0530,
square.png,stranger,0,Z,,,,,,,,,22,0,88,2,,,,,,,,,235.66647189995274,,,,,,,,,,,,,,,,,,,,,,,,,,,,,,,,,,235.65043189993594,235.66647189995274,236.1498018000275,236.1498018000275,236.1498018000275,236.1498018000275,236.16660180001054,236.45015829999465,236.45015829999465,236.45015829999465,236.48415369994473,m,0.32974600000306964,None,236.48458599997684,236.4998832999263,237.5006488999352,237.4843486000318,,,,,,,,,,,,,,,,,,,,,,,,,,,,,,,,,,,,,,,,,,,,,,,,,,,,,,,,,,,,,,,,,,,,,,,,,,,,,,,,,,,,b_6,001,2024-11-28_12h44.01.141,untitled,2024.1.5,None,2024-11-28 12h44.14.089208 +0530,
triangle.png,stranger,1,M,,,,,,,,,22,1,89,1,,,,,,,,,237.5006488999352,,,,,,,,,,,,,,,,,,,,,,,,,,,,,,,,,,237.48470060003456,237.5006488999352,237.98454019997735,237.98454019997735,237.98454019997735,237.98454019997735,238.0008590000216,,,,238.21849270001985,m,0.23120220005512238,None,238.21892809995916,238.23421579995193,239.23472329997458,239.2183936999645,,,,,,,,,,,,,,,,,,,,,,,,,,,,,,,,,,,,,,,,,,,,,,,,,,,,,,,,,,,,,,,,,,,,,,,,,,,,,,,,,,,,b_6,001,2024-11-28_12h44.01.141,untitled,2024.1.5,None,2024-11-28 12h44.14.089208 +0530,
triangle.png,you,0,Z,,,,,,,,,22,2,90,3,,,,,,,,,239.23472329997458,,,,,,,,,,,,,,,,,,,,,,,,,,,,,,,,,,239.2187384000281,239.23472329997458,239.71873540000524,239.71873540000524,239.71873540000524,239.71873540000524,239.7350416999543,240.0186934999656,240.0186934999656,240.0186934999656,240.10250829998404,z,0.37308079993817955,None,240.10292740003206,240.1186753999209,241.11902129999362,241.1027186999563,,,,,,,,,,,,,,,,,,,,,,,,,,,,,,,,,,,,,,,,,,,,,,,,,,,,,,,,,,,,,,,,,,,,,,,,,,,,,,,,,,,,b_6,001,2024-11-28_12h44.01.141,untitled,2024.1.5,None,2024-11-28 12h44.14.089208 +0530,
square.png,you,1,M,,,,,,,,,22,3,91,0,,,,,,,,,241.11902129999362,,,,,,,,,,,,,,,,,,,,,,,,,,,,,,,,,,241.10306739993393,241.11902129999362,241.60282809997443,241.60282809997443,241.60282809997443,241.60282809997443,241.61954069999047,241.90301160002127,241.90301160002127,241.90301160002127,242.01972600002773,m,0.40002359997015446,None,242.02015609992668,242.0361269999994,243.03656669997144,243.0204878000077,,,,,,,,,,,,,,,,,,,,,,,,,,,,,,,,,,,,,,,,,,,,,,,,,,,,,,,,,,,,,,,,,,,,,,,,,,,,,,,,,,,,b_6,001,2024-11-28_12h44.01.141,untitled,2024.1.5,None,2024-11-28 12h44.14.089208 +0530,
square.png,you,1,M,,,,,,,,,23,0,92,0,,,,,,,,,243.03656669997144,,,,,,,,,,,,,,,,,,,,,,,,,,,,,,,,,,243.02084949996788,243.03656669997144,243.52046299993526,243.52046299993526,243.52046299993526,243.52046299993526,243.53687820001505,243.82046550000086,243.82046550000086,243.82046550000086,244.00469349999912,m,0.48233099991921335,None,244.0051388000138,244.0206162999384,245.0210286999354,245.0050285999896,,,,,,,,,,,,,,,,,,,,,,,,,,,,,,,,,,,,,,,,,,,,,,,,,,,,,,,,,,,,,,,,,,,,,,,,,,,,,,,,,,,,b_6,001,2024-11-28_12h44.01.141,untitled,2024.1.5,None,2024-11-28 12h44.14.089208 +0530,
square.png,stranger,0,Z,,,,,,,,,23,1,93,2,,,,,,,,,245.0210286999354,,,,,,,,,,,,,,,,,,,,,,,,,,,,,,,,,,245.00542850000784,245.0210286999354,245.5047333999537,245.5047333999537,245.5047333999537,245.5047333999537,245.52158780000173,245.8049519000342,245.8049519000342,245.8049519000342,245.90559169999324,z,0.39369779999833554,None,245.90601339994464,245.92152560001705,246.92194259993266,246.9058476999635,,,,,,,,,,,,,,,,,,,,,,,,,,,,,,,,,,,,,,,,,,,,,,,,,,,,,,,,,,,,,,,,,,,,,,,,,,,,,,,,,,,,b_6,001,2024-11-28_12h44.01.141,untitled,2024.1.5,None,2024-11-28 12h44.14.089208 +0530,
triangle.png,you,0,Z,,,,,,,,,23,2,94,3,,,,,,,,,246.92194259993266,,,,,,,,,,,,,,,,,,,,,,,,,,,,,,,,,,246.9062005999731,246.92194259993266,247.40567320003174,247.40567320003174,247.40567320003174,247.40567320003174,247.42241619993,247.70569089998025,247.70569089998025,247.70569089998025,247.7564750999445,m,0.3379886000184342,None,247.75690219993703,247.77255130000412,248.77329029992688,248.75679299992044,,,,,,,,,,,,,,,,,,,,,,,,,,,,,,,,,,,,,,,,,,,,,,,,,,,,,,,,,,,,,,,,,,,,,,,,,,,,,,,,,,,,b_6,001,2024-11-28_12h44.01.141,untitled,2024.1.5,None,2024-11-28 12h44.14.089208 +0530,
triangle.png,stranger,1,M,,,,,,,,,23,3,95,1,,,,,,,,,248.77329029992688,,,,,,,,,,,,,,,,,,,,,,,,,,,,,,,,,,248.7571437000297,248.77329029992688,249.25664859998506,249.25664859998506,249.25664859998506,249.25664859998506,249.2733854999533,249.55640220001806,249.55640220001806,249.55640220001806,249.5571243999293,m,0.2941809999756515,None,249.55755689996295,249.57312029995956,250.5739136999473,250.55783379997592,,,,,,,,,,,,,,,,,,,,,,,,,,,,,,,,,,,,,,,,,,,,,,,,,,,,,,,,,,,,,,,,,,,,,,,,,,,,,,,,,,,,b_6,001,2024-11-28_12h44.01.141,untitled,2024.1.5,None,2024-11-28 12h44.14.089208 +0530,
square.png,stranger,0,Z,,,,,,,,,24,0,96,2,,,,,,,,,250.5739136999473,,,,,,,,,,,,,,,,,,,,,,,,,,,,,,,,,,250.55818269995507,250.5739136999473,251.05791959993076,251.05791959993076,251.05791959993076,251.05791959993076,251.0743757999735,251.3574712999398,251.3574712999398,251.3574712999398,251.3583365000086,z,0.294115399941802,None,251.35880209994502,251.37433140003122,252.37502109992784,252.35836990003008,,,,,,,,,,,,,,,,,,,,,,,,,,,,,,,,,,,,,,,,,,,,,,,,,,,,,,,,,,,,,,,,,,,,,,,,,,,,,,,,,,,,b_6,001,2024-11-28_12h44.01.141,untitled,2024.1.5,None,2024-11-28 12h44.14.089208 +0530,
square.png,you,1,M,,,,,,,,,24,1,97,0,,,,,,,,,252.37502109992784,,,,,,,,,,,,,,,,,,,,,,,,,,,,,,,,,,252.3587212000275,252.37502109992784,252.85848880000412,252.85848880000412,252.85848880000412,252.85848880000412,252.87522960000206,,,,253.1260322999442,m,0.2648590999888256,None,253.12644669995643,253.14201039995532,254.1423198999837,254.12629289994948,,,,,,,,,,,,,,,,,,,,,,,,,,,,,,,,,,,,,,,,,,,,,,,,,,,,,,,,,,,,,,,,,,,,,,,,,,,,,,,,,,,,b_6,001,2024-11-28_12h44.01.141,untitled,2024.1.5,None,2024-11-28 12h44.14.089208 +0530,
triangle.png,you,0,Z,,,,,,,,,24,2,98,3,,,,,,,,,254.1423198999837,,,,,,,,,,,,,,,,,,,,,,,,,,,,,,,,,,254.126640799921,254.1423198999837,254.6263269999763,254.6263269999763,254.6263269999763,254.6263269999763,254.64288850000594,254.92633919999935,254.92633919999935,254.92633919999935,255.02698059997056,z,0.3934818999841809,None,255.02740679995622,255.04300820000935,256.0434103999287,256.0272075999528,,,,,,,,,,,,,,,,,,,,,,,,,,,,,,,,,,,,,,,,,,,,,,,,,,,,,,,,,,,,,,,,,,,,,,,,,,,,,,,,,,,,b_6,001,2024-11-28_12h44.01.141,untitled,2024.1.5,None,2024-11-28 12h44.14.089208 +0530,
triangle.png,stranger,1,M,,,,,,,,,24,3,99,1,,,,,,,,,256.0434103999287,,,,,,,,,,,,,,,,,,,,,,,,,,,,,,,,,,256.0275555999251,256.0434103999287,256.5270966999233,256.5270966999233,256.5270966999233,256.5270966999233,256.54370859998744,256.8272899999283,256.8272899999283,256.8272899999283,256.81129240000155,m,0.2685596999945119,None,256.8117142999545,256.8272899999283,257.82768450002186,257.81140110001434,,,,,,,,,,,,,,,,,,,,,,,,,,,,,,,,,,,,,,,,,,,,,,,,,,,,,,,,,,,,,,,,,,,,,,,,,,,,,,,,,,,,b_6,001,2024-11-28_12h44.01.141,untitled,2024.1.5,None,2024-11-28 12h44.14.089208 +0530,
triangle.png,stranger,1,M,,,,,,,,,25,0,100,1,,,,,,,,,257.82768450002186,,,,,,,,,,,,,,,,,,,,,,,,,,,,,,,,,,257.81174669996835,257.82768450002186,258.311533399974,258.311533399974,258.311533399974,258.311533399974,258.32801279996056,,,,258.5787745999405,z,0.26391450001392514,None,258.5792140000267,258.5946537000127,259.5954257999547,259.57901440002024,,,,,,,,,,,,,,,,,,,,,,,,,,,,,,,,,,,,,,,,,,,,,,,,,,,,,,,,,,,,,,,,,,,,,,,,,,,,,,,,,,,,b_6,001,2024-11-28_12h44.01.141,untitled,2024.1.5,None,2024-11-28 12h44.14.089208 +0530,
square.png,stranger,0,Z,,,,,,,,,25,1,101,2,,,,,,,,,259.5954257999547,,,,,,,,,,,,,,,,,,,,,,,,,,,,,,,,,,259.57936129998416,259.5954257999547,260.07906479993835,260.07906479993835,260.07906479993835,260.07906479993835,260.09562379994895,260.3791791999247,260.3791791999247,260.3791791999247,260.46300919994246,m,0.37321049999445677,None,260.4634313000133,260.4791836999357,261.47944279992953,261.4633837000001,,,,,,,,,,,,,,,,,,,,,,,,,,,,,,,,,,,,,,,,,,,,,,,,,,,,,,,,,,,,,,,,,,,,,,,,,,,,,,,,,,,,b_6,001,2024-11-28_12h44.01.141,untitled,2024.1.5,None,2024-11-28 12h44.14.089208 +0530,
square.png,you,1,M,,,,,,,,,25,2,102,0,,,,,,,,,261.47944279992953,,,,,,,,,,,,,,,,,,,,,,,,,,,,,,,,,,261.4637727999361,261.47944279992953,261.9635414999211,261.9635414999211,261.9635414999211,261.9635414999211,261.9797828999581,262.26324979995843,262.26324979995843,262.26324979995843,262.3806686999742,z,0.41573359991889447,None,262.38109049992636,262.39672409999184,263.3973160999594,263.3809023000067,,,,,,,,,,,,,,,,,,,,,,,,,,,,,,,,,,,,,,,,,,,,,,,,,,,,,,,,,,,,,,,,,,,,,,,,,,,,,,,,,,,,b_6,001,2024-11-28_12h44.01.141,untitled,2024.1.5,None,2024-11-28 12h44.14.089208 +0530,
triangle.png,you,0,Z,,,,,,,,,25,3,103,3,,,,,,,,,263.3973160999594,,,,,,,,,,,,,,,,,,,,,,,,,,,,,,,,,,263.381248199963,263.3973160999594,263.88107599993236,263.88107599993236,263.88107599993236,263.88107599993236,263.8976390999742,264.1810220000334,264.1810220000334,264.1810220000334,264.26514979999047,z,0.37077359994873405,None,264.26557539997157,264.28078749997076,265.28142889996525,265.26512959995307,,,,,,,,,,,,,,,,,,,,,,,,,,,,,,,,,,,,,,,,,,,,,,,,,,,,,,,,,,,,,,,,,,,,,,,,,,,,,,,,,,,,b_6,001,2024-11-28_12h44.01.141,untitled,2024.1.5,None,2024-11-28 12h44.14.089208 +0530,
square.png,stranger,0,Z,,,,,,,,,26,0,104,2,,,,,,,,,265.28142889996525,,,,,,,,,,,,,,,,,,,,,,,,,,,,,,,,,,265.2654805999482,265.28142889996525,265.7651442999486,265.7651442999486,265.7651442999486,265.7651442999486,265.78195540001616,266.0653583999956,266.0653583999956,266.0653583999956,266.0661063999869,m,0.29085650003980845,None,266.06652689992916,266.08213310001884,267.0823306000093,267.0661281000357,,,,,,,,,,,,,,,,,,,,,,,,,,,,,,,,,,,,,,,,,,,,,,,,,,,,,,,,,,,,,,,,,,,,,,,,,,,,,,,,,,,,b_6,001,2024-11-28_12h44.01.141,untitled,2024.1.5,None,2024-11-28 12h44.14.089208 +0530,
square.png,you,1,M,,,,,,,,,26,1,105,0,,,,,,,,,267.0823306000093,,,,,,,,,,,,,,,,,,,,,,,,,,,,,,,,,,267.0664771000156,267.0823306000093,267.56640789995436,267.56640789995436,267.56640789995436,267.56640789995436,267.5827493999386,267.86619800003245,267.86619800003245,267.86619800003245,268.1004054999212,m,0.5215410999953747,None,268.1008308000164,268.1163690999383,269.1168441999471,269.10053960001096,,,,,,,,,,,,,,,,,,,,,,,,,,,,,,,,,,,,,,,,,,,,,,,,,,,,,,,,,,,,,,,,,,,,,,,,,,,,,,,,,,,,b_6,001,2024-11-28_12h44.01.141,untitled,2024.1.5,None,2024-11-28 12h44.14.089208 +0530,
triangle.png,stranger,1,M,,,,,,,,,26,2,106,1,,,,,,,,,269.1168441999471,,,,,,,,,,,,,,,,,,,,,,,,,,,,,,,,,,269.1008924000198,269.1168441999471,269.600622799946,269.600622799946,269.600622799946,269.600622799946,269.6170222000219,269.9005281999707,269.9005281999707,269.9005281999707,270.1179780999664,z,0.5136778000742197,None,270.11839590000454,270.13409669999965,271.1345689999871,271.11821789992973,,,,,,,,,,,,,,,,,,,,,,,,,,,,,,,,,,,,,,,,,,,,,,,,,,,,,,,,,,,,,,,,,,,,,,,,,,,,,,,,,,,,b_6,001,2024-11-28_12h44.01.141,untitled,2024.1.5,None,2024-11-28 12h44.14.089208 +0530,
triangle.png,you,0,Z,,,,,,,,,26,3,107,3,,,,,,,,,271.1345689999871,,,,,,,,,,,,,,,,,,,,,,,,,,,,,,,,,,271.11857749999035,271.1345689999871,271.61817339994013,271.61817339994013,271.61817339994013,271.61817339994013,271.6347792999586,271.91817560000345,271.91817560000345,271.91817560000345,272.1190818999894,m,0.4883596000727266,None,272.119507299969,272.1351340999827,273.13552020001225,273.1192905999487,,,,,,,,,,,,,,,,,,,,,,,,,,,,,,,,,,,,,,,,,,,,,,,,,,,,,,,,,,,,,,,,,,,,,,,,,,,,,,,,,,,,b_6,001,2024-11-28_12h44.01.141,untitled,2024.1.5,None,2024-11-28 12h44.14.089208 +0530,
triangle.png,stranger,1,M,,,,,,,,,27,0,108,1,,,,,,,,,273.13552020001225,,,,,,,,,,,,,,,,,,,,,,,,,,,,,,,,,,273.11964659998193,273.13552020001225,273.61915059993044,273.61915059993044,273.61915059993044,273.61915059993044,273.6357953000115,273.9192787000211,273.9192787000211,273.9192787000211,274.1034632999217,z,0.4712242999812588,None,274.1038874000078,274.11952569999266,275.1199363999767,275.103843400022,,,,,,,,,,,,,,,,,,,,,,,,,,,,,,,,,,,,,,,,,,,,,,,,,,,,,,,,,,,,,,,,,,,,,,,,,,,,,,,,,,,,b_6,001,2024-11-28_12h44.01.141,untitled,2024.1.5,None,2024-11-28 12h44.14.089208 +0530,
square.png,stranger,0,Z,,,,,,,,,27,1,109,2,,,,,,,,,275.1199363999767,,,,,,,,,,,,,,,,,,,,,,,,,,,,,,,,,,275.1041946000187,275.1199363999767,275.60342489997856,275.60342489997856,275.60342489997856,275.60342489997856,275.6201353999786,275.90361989999656,275.90361989999656,275.90361989999656,275.97100619995035,m,0.3518118999199942,None,275.9714308999246,275.9870670000091,276.9876697999425,276.97145539999474,,,,,,,,,,,,,,,,,,,,,,,,,,,,,,,,,,,,,,,,,,,,,,,,,,,,,,,,,,,,,,,,,,,,,,,,,,,,,,,,,,,,b_6,001,2024-11-28_12h44.01.141,untitled,2024.1.5,None,2024-11-28 12h44.14.089208 +0530,
square.png,you,1,M,,,,,,,,,27,2,110,0,,,,,,,,,276.9876697999425,,,,,,,,,,,,,,,,,,,,,,,,,,,,,,,,,,276.9718062999891,276.9876697999425,277.4712281000102,277.4712281000102,277.4712281000102,277.4712281000102,277.4879750999389,277.7713034999324,277.7713034999324,277.7713034999324,277.85544269997627,m,0.36887499992735684,None,277.8558666999452,277.87128249998204,278.8719542999752,278.8554575999733,,,,,,,,,,,,,,,,,,,,,,,,,,,,,,,,,,,,,,,,,,,,,,,,,,,,,,,,,,,,,,,,,,,,,,,,,,,,,,,,,,,,b_6,001,2024-11-28_12h44.01.141,untitled,2024.1.5,None,2024-11-28 12h44.14.089208 +0530,
triangle.png,you,0,Z,,,,,,,,,27,3,111,3,,,,,,,,,278.8719542999752,,,,,,,,,,,,,,,,,,,,,,,,,,,,,,,,,,278.8558081999654,278.8719542999752,279.35543859994505,279.35543859994505,279.35543859994505,279.35543859994505,279.3722340000095,279.6556587999221,279.6556587999221,279.6556587999221,279.98974079999607,z,0.6284512000856921,None,279.9901747999247,280.0056607000297,281.00614489999134,280.9900931000011,,,,,,,,,,,,,,,,,,,,,,,,,,,,,,,,,,,,,,,,,,,,,,,,,,,,,,,,,,,,,,,,,,,,,,,,,,,,,,,,,,,,b_6,001,2024-11-28_12h44.01.141,untitled,2024.1.5,None,2024-11-28 12h44.14.089208 +0530,
square.png,stranger,0,Z,,,,,,,,,28,0,112,2,,,,,,,,,281.00614489999134,,,,,,,,,,,,,,,,,,,,,,,,,,,,,,,,,,280.990444199997,281.00614489999134,281.4901202999754,281.4901202999754,281.4901202999754,281.4901202999754,281.5064874999225,281.7898923000321,281.7898923000321,281.7898923000321,282.2408740000101,z,0.7451021999586374,None,282.24129579996224,282.25703490001615,283.2575319999596,283.24127200001385,,,,,,,,,,,,,,,,,,,,,,,,,,,,,,,,,,,,,,,,,,,,,,,,,,,,,,,,,,,,,,,,,,,,,,,,,,,,,,,,,,,,b_6,001,2024-11-28_12h44.01.141,untitled,2024.1.5,None,2024-11-28 12h44.14.089208 +0530,
square.png,you,1,M,,,,,,,,,28,1,113,0,,,,,,,,,283.2575319999596,,,,,,,,,,,,,,,,,,,,,,,,,,,,,,,,,,283.2416216999991,283.2575319999596,283.7410381999798,283.7410381999798,283.7410381999798,283.7410381999798,283.7576699999627,284.04128280002624,284.04128280002624,284.04128280002624,284.44213989994023,m,0.6908858999377117,None,284.4425567999715,284.4581494999584,285.45843210001476,285.44234840001445,,,,,,,,,,,,,,,,,,,,,,,,,,,,,,,,,,,,,,,,,,,,,,,,,,,,,,,,,,,,,,,,,,,,,,,,,,,,,,,,,,,,b_6,001,2024-11-28_12h44.01.141,untitled,2024.1.5,None,2024-11-28 12h44.14.089208 +0530,
triangle.png,stranger,1,M,,,,,,,,,28,2,114,1,,,,,,,,,285.45843210001476,,,,,,,,,,,,,,,,,,,,,,,,,,,,,,,,,,285.44269639998674,285.45843210001476,285.9421241999371,285.9421241999371,285.9421241999371,285.9421241999371,285.95891409995966,286.24226209998596,286.24226209998596,286.24226209998596,286.6933068999788,z,0.74144090001937,None,286.6937274999218,286.70922540000174,287.7096235000063,287.6936364999274,,,,,,,,,,,,,,,,,,,,,,,,,,,,,,,,,,,,,,,,,,,,,,,,,,,,,,,,,,,,,,,,,,,,,,,,,,,,,,,,,,,,b_6,001,2024-11-28_12h44.01.141,untitled,2024.1.5,None,2024-11-28 12h44.14.089208 +0530,
triangle.png,you,0,Z,,,,,,,,,28,3,115,3,,,,,,,,,287.7096235000063,,,,,,,,,,,,,,,,,,,,,,,,,,,,,,,,,,287.69398590002675,287.7096235000063,288.1934438999742,288.1934438999742,288.1934438999742,288.1934438999742,288.21021189994644,288.493328499957,288.493328499957,288.493328499957,288.79423709993716,m,0.5968945999629796,None,288.79469789995346,288.8102393000154,289.8107349999482,289.79458849993534,,,,,,,,,,,,,,,,,,,,,,,,,,,,,,,,,,,,,,,,,,,,,,,,,,,,,,,,,,,,,,,,,,,,,,,,,,,,,,,,,,,,b_6,001,2024-11-28_12h44.01.141,untitled,2024.1.5,None,2024-11-28 12h44.14.089208 +0530,
triangle.png,you,0,Z,,,,,,,,,29,0,116,3,,,,,,,,,289.8107349999482,,,,,,,,,,,,,,,,,,,,,,,,,,,,,,,,,,289.7949391999282,289.8107349999482,290.2945950999856,290.2945950999856,290.2945950999856,290.2945950999856,290.31114439992234,290.59455869998783,290.59455869998783,290.59455869998783,290.8122650999576,z,0.505445700022392,None,290.8127136999974,290.8279492999427,291.8282918999903,291.8121799000073,,,,,,,,,,,,,,,,,,,,,,,,,,,,,,,,,,,,,,,,,,,,,,,,,,,,,,,,,,,,,,,,,,,,,,,,,,,,,,,,,,,,b_6,001,2024-11-28_12h44.01.141,untitled,2024.1.5,None,2024-11-28 12h44.14.089208 +0530,
square.png,stranger,0,Z,,,,,,,,,29,1,117,2,,,,,,,,,291.8282918999903,,,,,,,,,,,,,,,,,,,,,,,,,,,,,,,,,,291.8125331000192,291.8282918999903,292.3124996999977,292.3124996999977,292.3124996999977,292.3124996999977,292.3287326999707,292.61233439994976,292.61233439994976,292.61233439994976,293.0296285999939,z,0.7033792999573052,None,293.03006829996593,293.04569639998954,294.0462486000033,294.0302272000117,,,,,,,,,,,,,,,,,,,,,,,,,,,,,,,,,,,,,,,,,,,,,,,,,,,,,,,,,,,,,,,,,,,,,,,,,,,,,,,,,,,,b_6,001,2024-11-28_12h44.01.141,untitled,2024.1.5,None,2024-11-28 12h44.14.089208 +0530,
square.png,you,1,M,,,,,,,,,29,2,118,0,,,,,,,,,294.0462486000033,,,,,,,,,,,,,,,,,,,,,,,,,,,,,,,,,,294.0305812000297,294.0462486000033,294.52997279993724,294.52997279993724,294.52997279993724,294.52997279993724,294.5465415000217,294.83014340000227,294.83014340000227,294.83014340000227,295.18103919993155,m,0.6419509000843391,None,295.1814647000283,295.19682850001846,296.19732159993146,296.18124720000196,,,,,,,,,,,,,,,,,,,,,,,,,,,,,,,,,,,,,,,,,,,,,,,,,,,,,,,,,,,,,,,,,,,,,,,,,,,,,,,,,,,,b_6,001,2024-11-28_12h44.01.141,untitled,2024.1.5,None,2024-11-28 12h44.14.089208 +0530,
triangle.png,stranger,1,M,,,,,,,,,29,3,119,1,,,,,,,,,296.19732159993146,,,,,,,,,,,,,,,,,,,,,,,,,,,,,,,,,,296.1815997000085,296.19732159993146,296.68124519998673,296.68124519998673,296.68124519998673,296.68124519998673,296.6975222999463,296.98118380003143,296.98118380003143,296.98118380003143,297.44898500002455,z,0.7654644000576809,None,297.4494090999942,297.46478929999284,298.4653500999557,298.4490411999868,,,,,,,,,,,,,,,,,,,,,,,,,,,,,,,,,,,,,,,,,,,,,,,,,,,,,,,,,,,,,,,,,,,,,,,,,,,,,,,,,,,,b_6,001,2024-11-28_12h44.01.141,untitled,2024.1.5,None,2024-11-28 12h44.14.089208 +0530,
triangle.png,you,0,Z,,,,,,,,,30,0,120,3,,,,,,,,,298.4653500999557,,,,,,,,,,,,,,,,,,,,,,,,,,,,,,,,,,298.4493941999972,298.4653500999557,298.9490191999357,298.9490191999357,298.9490191999357,298.9490191999357,298.9655733000254,299.248948100023,299.248948100023,299.248948100023,299.66667029995006,z,0.7065357000101358,None,299.6670978999464,299.6825875999639,300.68297239998356,300.66696840000805,,,,,,,,,,,,,,,,,,,,,,,,,,,,,,,,,,,,,,,,,,,,,,,,,,,,,,,,,,,,,,,,,,,,,,,,,,,,,,,,,,,,b_6,001,2024-11-28_12h44.01.141,untitled,2024.1.5,None,2024-11-28 12h44.14.089208 +0530,
square.png,you,1,M,,,,,,,,,30,1,121,0,,,,,,,,,300.68297239998356,,,,,,,,,,,,,,,,,,,,,,,,,,,,,,,,,,300.6673298999667,300.68297239998356,301.1668375999434,301.1668375999434,301.1668375999434,301.1668375999434,301.1832570999395,301.46679259999655,301.46679259999655,301.46679259999655,301.83433949993923,m,0.6603868000674993,None,301.83478059992194,301.8501485999441,302.85073880001437,302.83475579996593,,,,,,,,,,,,,,,,,,,,,,,,,,,,,,,,,,,,,,,,,,,,,,,,,,,,,,,,,,,,,,,,,,,,,,,,,,,,,,,,,,,,b_6,001,2024-11-28_12h44.01.141,untitled,2024.1.5,None,2024-11-28 12h44.14.089208 +0530,
square.png,stranger,0,Z,,,,,,,,,30,2,122,2,,,,,,,,,302.85073880001437,,,,,,,,,,,,,,,,,,,,,,,,,,,,,,,,,,302.83511119999457,302.85073880001437,303.3344469999429,303.3344469999429,303.3344469999429,303.3344469999429,303.35105139994994,303.63467209995724,303.63467209995724,303.63467209995724,304.03554319997784,z,0.6850678001064807,None,304.0359743000008,304.05132810003124,305.05178989993874,305.03565620002337,,,,,,,,,,,,,,,,,,,,,,,,,,,,,,,,,,,,,,,,,,,,,,,,,,,,,,,,,,,,,,,,,,,,,,,,,,,,,,,,,,,,b_6,001,2024-11-28_12h44.01.141,untitled,2024.1.5,None,2024-11-28 12h44.14.089208 +0530,
triangle.png,stranger,1,M,,,,,,,,,30,3,123,1,,,,,,,,,305.05178989993874,,,,,,,,,,,,,,,,,,,,,,,,,,,,,,,,,,305.03601119993255,305.05178989993874,305.53574989992194,305.53574989992194,305.53574989992194,305.53574989992194,305.55217229994014,305.83554999995977,305.83554999995977,305.83554999995977,306.23665859992616,z,0.6992027999367565,None,306.237080699997,306.25260320003144,307.2529788999818,307.2370326999808,,,,,,,,,,,,,,,,,,,,,,,,,,,,,,,,,,,,,,,,,,,,,,,,,,,,,,,,,,,,,,,,,,,,,,,,,,,,,,,,,,,,b_6,001,2024-11-28_12h44.01.141,untitled,2024.1.5,None,2024-11-28 12h44.14.089208 +0530,
triangle.png,you,0,Z,,,,,,,,,31,0,124,3,,,,,,,,,307.2529788999818,,,,,,,,,,,,,,,,,,,,,,,,,,,,,,,,,,307.237391200033,307.2529788999818,307.73694199998863,307.73694199998863,307.73694199998863,307.73694199998863,307.7534594000317,308.03659459995106,308.03659459995106,308.03659459995106,308.5211383999558,z,0.7829937000060454,None,308.5215599000221,308.53696229995694,309.5377370000351,309.52130989998113,,,,,,,,,,,,,,,,,,,,,,,,,,,,,,,,,,,,,,,,,,,,,,,,,,,,,,,,,,,,,,,,,,,,,,,,,,,,,,,,,,,,b_6,001,2024-11-28_12h44.01.141,untitled,2024.1.5,None,2024-11-28 12h44.14.089208 +0530,
square.png,stranger,0,Z,,,,,,,,,31,1,125,2,,,,,,,,,309.5377370000351,,,,,,,,,,,,,,,,,,,,,,,,,,,,,,,,,,309.521660599974,309.5377370000351,310.02111009997316,310.02111009997316,310.02111009997316,310.02111009997316,310.03776819992345,310.3213807999855,310.3213807999855,310.3213807999855,310.7221710999729,z,0.6892079999670386,None,310.7225871999981,310.73819049994927,311.73861869995017,311.7223124000011,,,,,,,,,,,,,,,,,,,,,,,,,,,,,,,,,,,,,,,,,,,,,,,,,,,,,,,,,,,,,,,,,,,,,,,,,,,,,,,,,,,,b_6,001,2024-11-28_12h44.01.141,untitled,2024.1.5,None,2024-11-28 12h44.14.089208 +0530,
triangle.png,stranger,1,M,,,,,,,,,31,2,126,1,,,,,,,,,311.73861869995017,,,,,,,,,,,,,,,,,,,,,,,,,,,,,,,,,,311.72266830003355,311.73861869995017,312.2226040000096,312.2226040000096,312.2226040000096,312.2226040000096,312.2390614999458,312.52245139994193,312.52245139994193,312.52245139994193,313.0065931000281,z,0.7772091999650002,None,313.00702040002216,313.0226447000168,314.0233930000104,314.00690659997053,,,,,,,,,,,,,,,,,,,,,,,,,,,,,,,,,,,,,,,,,,,,,,,,,,,,,,,,,,,,,,,,,,,,,,,,,,,,,,,,,,,,b_6,001,2024-11-28_12h44.01.141,untitled,2024.1.5,None,2024-11-28 12h44.14.089208 +0530,
square.png,you,1,M,,,,,,,,,31,3,127,0,,,,,,,,,314.0233930000104,,,,,,,,,,,,,,,,,,,,,,,,,,,,,,,,,,314.00725759996567,314.0233930000104,314.50714100000914,314.50714100000914,314.50714100000914,314.50714100000914,314.52347299992107,314.80694219993893,314.80694219993893,314.80694219993893,315.074319700012,m,0.563929499941878,None,315.07474329997785,315.0906134999823,316.0907658999786,316.074882099987,,,,,,,,,,,,,,,,,,,,,,,,,,,,,,,,,,,,,,,,,,,,,,,,,,,,,,,,,,,,,,,,,,,,,,,,,,,,,,,,,,,,b_6,001,2024-11-28_12h44.01.141,untitled,2024.1.5,None,2024-11-28 12h44.14.089208 +0530,
square.png,stranger,0,Z,,,,,,,,,32,0,128,2,,,,,,,,,316.0907658999786,,,,,,,,,,,,,,,,,,,,,,,,,,,,,,,,,,316.07523229997605,316.0907658999786,316.5749661999289,316.5749661999289,316.5749661999289,316.5749661999289,316.59126369992737,316.874956500018,316.874956500018,316.874956500018,317.1922254000092,z,0.6123070999747142,None,317.19265029998496,317.2082464999985,318.2085410000291,318.1927094999701,,,,,,,,,,,,,,,,,,,,,,,,,,,,,,,,,,,,,,,,,,,,,,,,,,,,,,,,,,,,,,,,,,,,,,,,,,,,,,,,,,,,b_6,001,2024-11-28_12h44.01.141,untitled,2024.1.5,None,2024-11-28 12h44.14.089208 +0530,
triangle.png,stranger,1,M,,,,,,,,,32,1,129,1,,,,,,,,,318.2085410000291,,,,,,,,,,,,,,,,,,,,,,,,,,,,,,,,,,318.19305619993247,318.2085410000291,318.6925473000156,318.6925473000156,318.6925473000156,318.6925473000156,318.7092911999207,318.99233789998107,318.99233789998107,318.99233789998107,319.6101946999552,z,0.9066630000015721,None,319.61061550001614,319.6262679999927,320.62666219996754,320.61051689996384,,,,,,,,,,,,,,,,,,,,,,,,,,,,,,,,,,,,,,,,,,,,,,,,,,,,,,,,,,,,,,,,,,,,,,,,,,,,,,,,,,,,b_6,001,2024-11-28_12h44.01.141,untitled,2024.1.5,None,2024-11-28 12h44.14.089208 +0530,
square.png,you,1,M,,,,,,,,,32,2,130,0,,,,,,,,,320.62666219996754,,,,,,,,,,,,,,,,,,,,,,,,,,,,,,,,,,320.61086799995974,320.62666219996754,321.1102779000066,321.1102779000066,321.1102779000066,321.1102779000066,321.1269946999382,321.41039829992224,321.41039829992224,321.41039829992224,321.5110725000268,m,0.3975555000361055,None,321.51150749996305,321.5271886999253,322.5277039000066,322.51125959993806,,,,,,,,,,,,,,,,,,,,,,,,,,,,,,,,,,,,,,,,,,,,,,,,,,,,,,,,,,,,,,,,,,,,,,,,,,,,,,,,,,,,b_6,001,2024-11-28_12h44.01.141,untitled,2024.1.5,None,2024-11-28 12h44.14.089208 +0530,
triangle.png,you,0,Z,,,,,,,,,32,3,131,3,,,,,,,,,322.5277039000066,,,,,,,,,,,,,,,,,,,,,,,,,,,,,,,,,,322.51160989992786,322.5277039000066,323.011294899974,323.011294899974,323.011294899974,323.011294899974,323.02770119998604,323.3113086000085,323.3113086000085,323.3113086000085,323.7790240999311,m,0.7647203999804333,None,323.77945579995867,323.7948593000183,324.79553290002514,324.77912179997656,,,,,,,,,,,,,,,,,,,,,,,,,,,,,,,,,,,,,,,,,,,,,,,,,,,,,,,,,,,,,,,,,,,,,,,,,,,,,,,,,,,,b_6,001,2024-11-28_12h44.01.141,untitled,2024.1.5,None,2024-11-28 12h44.14.089208 +0530,
triangle.png,stranger,1,M,,,,,,,,,33,0,132,1,,,,,,,,,324.79553290002514,,,,,,,,,,,,,,,,,,,,,,,,,,,,,,,,,,324.7794796000235,324.79553290002514,325.27923959994223,325.27923959994223,325.27923959994223,325.27923959994223,325.29565210000146,325.5792261000024,325.5792261000024,325.5792261000024,325.96333029994275,z,0.6759179000509903,None,325.96375100000296,325.97936719993595,326.98004980001133,326.9636830999516,,,,,,,,,,,,,,,,,,,,,,,,,,,,,,,,,,,,,,,,,,,,,,,,,,,,,,,,,,,,,,,,,,,,,,,,,,,,,,,,,,,,b_6,001,2024-11-28_12h44.01.141,untitled,2024.1.5,None,2024-11-28 12h44.14.089208 +0530,
square.png,you,1,M,,,,,,,,,33,1,133,0,,,,,,,,,326.98004980001133,,,,,,,,,,,,,,,,,,,,,,,,,,,,,,,,,,326.9640354999574,326.98004980001133,327.46350449998863,327.46350449998863,327.46350449998863,327.46350449998863,327.48017420002725,327.7635129999835,327.7635129999835,327.7635129999835,328.131154499948,m,0.6646066999528557,None,328.1315801999299,328.1469926999416,329.1477977000177,329.1313786000246,,,,,,,,,,,,,,,,,,,,,,,,,,,,,,,,,,,,,,,,,,,,,,,,,,,,,,,,,,,,,,,,,,,,,,,,,,,,,,,,,,,,b_6,001,2024-11-28_12h44.01.141,untitled,2024.1.5,None,2024-11-28 12h44.14.089208 +0530,
square.png,stranger,0,Z,,,,,,,,,33,2,134,2,,,,,,,,,329.1477977000177,,,,,,,,,,,,,,,,,,,,,,,,,,,,,,,,,,329.131725299987,329.1477977000177,329.63131019996945,329.63131019996945,329.63131019996945,329.63131019996945,329.64814790000673,329.93122339993715,329.93122339993715,329.93122339993715,330.41582430002745,z,0.7710532000055537,None,330.4162484999979,330.4318377999589,331.43210929993074,331.4160461999709,,,,,,,,,,,,,,,,,,,,,,,,,,,,,,,,,,,,,,,,,,,,,,,,,,,,,,,,,,,,,,,,,,,,,,,,,,,,,,,,,,,,b_6,001,2024-11-28_12h44.01.141,untitled,2024.1.5,None,2024-11-28 12h44.14.089208 +0530,
triangle.png,you,0,Z,,,,,,,,,33,3,135,3,,,,,,,,,331.43210929993074,,,,,,,,,,,,,,,,,,,,,,,,,,,,,,,,,,331.41639529995155,331.43210929993074,331.9158029999817,331.9158029999817,331.9158029999817,331.9158029999817,331.9323653000174,332.21574120002333,332.21574120002333,332.21574120002333,332.71704739995766,z,0.7998981999699026,None,332.71746660000645,332.7329221999971,333.73353919992223,333.7171714999713,,,,,,,,,,,,,,,,,,,,,,,,,,,,,,,,,,,,,,,,,,,,,,,,,,,,,,,,,,,,,,,,,,,,,,,,,,,,,,,,,,,,b_6,001,2024-11-28_12h44.01.141,untitled,2024.1.5,None,2024-11-28 12h44.14.089208 +0530,
square.png,you,1,M,,,,,,,,,34,0,136,0,,,,,,,,,333.73353919992223,,,,,,,,,,,,,,,,,,,,,,,,,,,,,,,,,,333.7175197999459,333.73353919992223,334.21720680000726,334.21720680000726,334.21720680000726,334.21720680000726,334.23385269998107,334.5171294999309,334.5171294999309,334.5171294999309,335.1014114000136,m,0.8739988999441266,None,335.1018361999886,335.11734520003665,336.1177974999882,336.10169479995966,,,,,,,,,,,,,,,,,,,,,,,,,,,,,,,,,,,,,,,,,,,,,,,,,,,,,,,,,,,,,,,,,,,,,,,,,,,,,,,,,,,,b_6,001,2024-11-28_12h44.01.141,untitled,2024.1.5,None,2024-11-28 12h44.14.089208 +0530,
square.png,stranger,0,Z,,,,,,,,,34,1,137,2,,,,,,,,,336.1177974999882,,,,,,,,,,,,,,,,,,,,,,,,,,,,,,,,,,336.1020423999289,336.1177974999882,336.60169139993377,336.60169139993377,336.60169139993377,336.60169139993377,336.6182779999217,336.9016338000074,336.9016338000074,336.9016338000074,337.36958699999377,z,0.7659084999468178,None,337.37010529998224,337.385322200018,338.3858835999854,338.369365499937,,,,,,,,,,,,,,,,,,,,,,,,,,,,,,,,,,,,,,,,,,,,,,,,,,,,,,,,,,,,,,,,,,,,,,,,,,,,,,,,,,,,b_6,001,2024-11-28_12h44.01.141,untitled,2024.1.5,None,2024-11-28 12h44.14.089208 +0530,
triangle.png,you,0,Z,,,,,,,,,34,2,138,3,,,,,,,,,338.3858835999854,,,,,,,,,,,,,,,,,,,,,,,,,,,,,,,,,,338.36971410003025,338.3858835999854,338.8694143999601,338.8694143999601,338.8694143999601,338.8694143999601,338.8860434999224,339.16940150002483,339.16940150002483,339.16940150002483,339.70372919994406,m,0.8184700000565499,None,339.70414549997076,339.71972779999487,340.720293499995,340.70384440000635,,,,,,,,,,,,,,,,,,,,,,,,,,,,,,,,,,,,,,,,,,,,,,,,,,,,,,,,,,,,,,,,,,,,,,,,,,,,,,,,,,,,b_6,001,2024-11-28_12h44.01.141,untitled,2024.1.5,None,2024-11-28 12h44.14.089208 +0530,
triangle.png,stranger,1,M,,,,,,,,,34,3,139,1,,,,,,,,,340.720293499995,,,,,,,,,,,,,,,,,,,,,,,,,,,,,,,,,,340.7042045999551,340.720293499995,341.204220399959,341.204220399959,341.204220399959,341.204220399959,341.220633000019,341.5039645000361,341.5039645000361,341.5039645000361,342.0884382999502,z,0.8757887000683695,None,342.08886180003174,342.104191099992,343.1048594999593,343.0886998999631,,,,,,,,,,,,,,,,,,,,,,,,,,,,,,,,,,,,,,,,,,,,,,,,,,,,,,,,,,,,,,,,,,,,,,,,,,,,,,,,,,,,b_6,001,2024-11-28_12h44.01.141,untitled,2024.1.5,None,2024-11-28 12h44.14.089208 +0530,
triangle.png,you,0,Z,,,,,,,,,35,0,140,3,,,,,,,,,343.1048594999593,,,,,,,,,,,,,,,,,,,,,,,,,,,,,,,,,,343.0890517999651,343.1048594999593,343.58856709999964,343.58856709999964,343.58856709999964,343.58856709999964,343.6052710999502,343.8887823999394,343.8887823999394,343.8887823999394,344.3895489999559,m,0.7869227000046521,None,344.3899784999667,344.40561909996904,345.40585450001527,345.3899531000061,,,,,,,,,,,,,,,,,,,,,,,,,,,,,,,,,,,,,,,,,,,,,,,,,,,,,,,,,,,,,,,,,,,,,,,,,,,,,,,,,,,,b_6,001,2024-11-28_12h44.01.141,untitled,2024.1.5,None,2024-11-28 12h44.14.089208 +0530,
triangle.png,stranger,1,M,,,,,,,,,35,1,141,1,,,,,,,,,345.40585450001527,,,,,,,,,,,,,,,,,,,,,,,,,,,,,,,,,,345.3903097999282,345.40585450001527,345.88961189996917,345.88961189996917,345.88961189996917,345.88961189996917,345.9062968000071,346.1898889000295,346.1898889000295,346.1898889000295,346.7573701000074,z,0.8621672000735998,None,346.7577901999466,346.77352089993656,347.77386580000166,347.75776239996776,,,,,,,,,,,,,,,,,,,,,,,,,,,,,,,,,,,,,,,,,,,,,,,,,,,,,,,,,,,,,,,,,,,,,,,,,,,,,,,,,,,,b_6,001,2024-11-28_12h44.01.141,untitled,2024.1.5,None,2024-11-28 12h44.14.089208 +0530,
square.png,stranger,0,Z,,,,,,,,,35,2,142,2,,,,,,,,,347.77386580000166,,,,,,,,,,,,,,,,,,,,,,,,,,,,,,,,,,347.75811039994005,347.77386580000166,348.25744139996823,348.25744139996823,348.25744139996823,348.25744139996823,348.27417809993494,348.5576014999533,348.5576014999533,348.5576014999533,349.0919901999878,z,0.8181448000250384,None,349.0924100999255,349.1080380999483,350.1083783999784,350.0921227999497,,,,,,,,,,,,,,,,,,,,,,,,,,,,,,,,,,,,,,,,,,,,,,,,,,,,,,,,,,,,,,,,,,,,,,,,,,,,,,,,,,,,b_6,001,2024-11-28_12h44.01.141,untitled,2024.1.5,None,2024-11-28 12h44.14.089208 +0530,
square.png,you,1,M,,,,,,,,,35,3,143,0,,,,,,,,,350.1083783999784,,,,,,,,,,,,,,,,,,,,,,,,,,,,,,,,,,350.09247359994333,350.1083783999784,350.59220790001564,350.59220790001564,350.59220790001564,350.59220790001564,350.60881270002574,350.89215289999265,350.89215289999265,350.89215289999265,351.39303409995046,m,0.7872387999668717,None,351.39346900000237,351.40918049996253,352.4094539999496,352.39327599992976,,,,,,,,,,,,,,,,,,,,,,,,,,,,,,,,,,,,,,,,,,,,,,,,,,,,,,,,,,,,,,,,,,,,,,,,,,,,,,,,,,,,b_6,001,2024-11-28_12h44.01.141,untitled,2024.1.5,None,2024-11-28 12h44.14.089208 +0530,
triangle.png,stranger,1,M,,,,,,,,,36,0,144,1,,,,,,,,,352.4094539999496,,,,,,,,,,,,,,,,,,,,,,,,,,,,,,,,,,352.3936295999447,352.4094539999496,352.8934057999868,352.8934057999868,352.8934057999868,352.8934057999868,352.90982049994636,353.19326939992607,353.19326939992607,353.19326939992607,353.72788469993975,z,0.8336913000093773,None,353.72834419994615,353.7437918999931,354.7440687000053,354.7279205999803,,,,,,,,,,,,,,,,,,,,,,,,,,,,,,,,,,,,,,,,,,,,,,,,,,,,,,,,,,,,,,,,,,,,,,,,,,,,,,,,,,,,b_6,001,2024-11-28_12h44.01.141,untitled,2024.1.5,None,2024-11-28 12h44.14.089208 +0530,
square.png,stranger,0,Z,,,,,,,,,36,1,145,2,,,,,,,,,354.7440687000053,,,,,,,,,,,,,,,,,,,,,,,,,,,,,,,,,,354.7282739999937,354.7440687000053,355.2277821999742,355.2277821999742,355.2277821999742,355.2277821999742,355.2445750000188,355.52781430003233,355.52781430003233,355.52781430003233,356.01204119995236,z,0.772082700044848,None,356.0124610000057,356.02811830001883,357.02848019998055,357.0123104000231,,,,,,,,,,,,,,,,,,,,,,,,,,,,,,,,,,,,,,,,,,,,,,,,,,,,,,,,,,,,,,,,,,,,,,,,,,,,,,,,,,,,b_6,001,2024-11-28_12h44.01.141,untitled,2024.1.5,None,2024-11-28 12h44.14.089208 +0530,
square.png,you,1,M,,,,,,,,,36,2,146,0,,,,,,,,,357.02848019998055,,,,,,,,,,,,,,,,,,,,,,,,,,,,,,,,,,357.01267409999855,357.02848019998055,357.512437999947,357.512437999947,357.512437999947,357.512437999947,357.5292083999375,357.81229729996994,357.81229729996994,357.81229729996994,358.22995559999254,m,0.7098658999893814,None,358.2303745999234,358.2460390999913,359.24635699996725,359.23011050000787,,,,,,,,,,,,,,,,,,,,,,,,,,,,,,,,,,,,,,,,,,,,,,,,,,,,,,,,,,,,,,,,,,,,,,,,,,,,,,,,,,,,b_6,001,2024-11-28_12h44.01.141,untitled,2024.1.5,None,2024-11-28 12h44.14.089208 +0530,
