stimulus_b,label_b,is_match_b,shouldpress_b,stimulus_2b,label_2b,is_match_2b,shouldpress_2b,p_trials.thisRepN,p_trials.thisTrialN,p_trials.thisN,p_trials.thisIndex,trials.thisRepN,trials.thisTrialN,trials.thisN,trials.thisIndex,p_trials_2.thisRepN,p_trials_2.thisTrialN,p_trials_2.thisN,p_trials_2.thisIndex,trials_2.thisRepN,trials_2.thisTrialN,trials_2.thisN,trials_2.thisIndex,thisRow.t,notes,Intruduction.started,text_3.started,key_resp_2.started,Intruduction.stopped,key_resp_2.keys,key_resp_2.rt,key_resp_2.duration,self_other_instructions.started,text_4.started,key_resp_3.started,self_other_instructions.stopped,key_resp_3.keys,key_resp_3.rt,key_resp_3.duration,self_other_info.started,square_image.started,triangle_image.started,self_label.started,other_label.started,key_resp_4.started,text_5.started,self_other_info.stopped,key_resp_4.keys,key_resp_4.rt,key_resp_4.duration,self_other_starting_2.started,text_6.started,key_resp_5.started,self_other_starting_2.stopped,key_resp_5.keys,key_resp_5.rt,key_resp_5.duration,b1.started,p_fication.started,p_fixation_3.started,p_text.started,key_resp_p.started,p_image.started,p_fication.stopped,p_fixation_3.stopped,p_text.stopped,p_image.stopped,b1.stopped,key_resp_p.keys,key_resp_p.rt,key_resp_p.duration,b_feedback.started,text_15.started,text_15.stopped,b_feedback.stopped,key_resp_p.stopped,start2.started,start_2.started,key_resp_11.started,start2.stopped,key_resp_11.keys,key_resp_11.rt,key_resp_11.duration,break_3.started,text_13.started,text_14.started,key_resp_10.started,text_13.stopped,break_3.stopped,key_resp_10.keys,key_resp_10.rt,key_resp_10.duration,self_instructions_2.started,text_10.started,key_resp_7.started,self_instructions_2.stopped,key_resp_7.keys,key_resp_7.rt,key_resp_7.duration,self_intro_2.started,circle_image.started,diamond_image.started,Disgusting_self_lable.started,Desirable_self_lable.started,key_resp_8.started,text_11.started,self_intro_2.stopped,key_resp_8.keys,key_resp_8.rt,key_resp_8.duration,self_starting_3.started,text_12.started,key_resp_9.started,self_starting_3.stopped,key_resp_9.keys,key_resp_9.rt,key_resp_9.duration,practice2.started,p_fixation_2.started,p_fixation_4.started,p_text_8.started,key_resp_6_p.started,p_image_2.started,p_fixation_2.stopped,p_fixation_4.stopped,p_text_8.stopped,p_image_2.stopped,key_resp_6_p.stopped,practice2.stopped,key_resp_6_p.keys,feedback_2_p.started,text_16.started,text_16.stopped,feedback_2_p.stopped,key_resp_6_p.rt,key_resp_6_p.duration,trial_2.started,fixation_2.started,fixation_4.started,text_8.started,key_resp_6.started,image_2.started,fixation_2.stopped,fixation_4.stopped,text_8.stopped,image_2.stopped,key_resp_6.stopped,trial_2.stopped,key_resp_6.keys,feedback_2.started,text_9.started,text_9.stopped,feedback_2.stopped,key_resp_6.rt,key_resp_6.duration,Thank_you.started,text_7.started,text_7.stopped,Thank_you.stopped,participant,session,date,expName,psychopyVersion,frameRate,expStart,
,,,,,,,,,,,,,,,,,,,,,,,,,,0.002586500020697713,0.0062833999982103705,0.0062833999982103705,4.850403000018559,space,4.840266500017606,None,,,,,,,,,,,,,,,,,,,,,,,,,,,,,,,,,,,,,,,,,,,,,,,,,,,,,,,,,,,,,,,,,,,,,,,,,,,,,,,,,,,,,,,,,,,,,,,,,,,,,,,,,,,,,,,,,,,,,,,,,,,,,,,,B_7,001,2024-11-28_14h04.40.870,untitled,2024.1.5,None,2024-11-28 14h04.53.731221 +0530,
,,,,,,,,,,,,,,,,,,,,,,,,,,,,,,,,,4.850427600089461,4.864309100084938,4.864309100084938,48.60444730008021,space,43.73454520001542,None,,,,,,,,,,,,,,,,,,,,,,,,,,,,,,,,,,,,,,,,,,,,,,,,,,,,,,,,,,,,,,,,,,,,,,,,,,,,,,,,,,,,,,,,,,,,,,,,,,,,,,,,,,,,,,,,,,,,,,,,,B_7,001,2024-11-28_14h04.40.870,untitled,2024.1.5,None,2024-11-28 14h04.53.731221 +0530,
,,,,,,,,,,,,,,,,,,,,,,,,,,,,,,,,,,,,,,,,48.604475300060585,48.63831320009194,48.63831320009194,48.63831320009194,48.63831320009194,48.63831320009194,48.63831320009194,91.94236910005566,space,43.297167900018394,None,,,,,,,,,,,,,,,,,,,,,,,,,,,,,,,,,,,,,,,,,,,,,,,,,,,,,,,,,,,,,,,,,,,,,,,,,,,,,,,,,,,,,,,,,,,,,,,,,,,,,,,,,,,,,,B_7,001,2024-11-28_14h04.40.870,untitled,2024.1.5,None,2024-11-28 14h04.53.731221 +0530,
,,,,,,,,,,,,,,,,,,,,,,,,,,,,,,,,,,,,,,,,,,,,,,,,,,,91.94239830004517,91.95835500000976,91.95835500000976,106.6335196000291,space,14.668533699936233,None,,,,,,,,,,,,,,,,,,,,,,,,,,,,,,,,,,,,,,,,,,,,,,,,,,,,,,,,,,,,,,,,,,,,,,,,,,,,,,,,,,,,,,,,,,,,,,,,,,,,,,,B_7,001,2024-11-28_14h04.40.870,untitled,2024.1.5,None,2024-11-28 14h04.53.731221 +0530,
triangle.png,stranger,1,M,,,,,0,0,0,1,,,,,,,,,,,,,106.65171080001164,,,,,,,,,,,,,,,,,,,,,,,,,,,,,,,,,,106.64008370006923,106.65171080001164,107.14912670000922,107.14912670000922,107.14912670000922,107.14912670000922,107.16573160002008,107.44928610010538,107.44928610010538,107.44928610010538,108.1502121000085,m,0.9855243000201881,None,108.15058900008444,108.16608350002207,109.16696410009172,109.15061130002141,,,,,,,,,,,,,,,,,,,,,,,,,,,,,,,,,,,,,,,,,,,,,,,,,,,,,,,,,,,,,,,,,,,,,,,,,,,,,,,,,,,,,B_7,001,2024-11-28_14h04.40.870,untitled,2024.1.5,None,2024-11-28 14h04.53.731221 +0530,
square.png,you,1,M,,,,,0,1,1,0,,,,,,,,,,,,,109.16696410009172,,,,,,,,,,,,,,,,,,,,,,,,,,,,,,,,,,109.15084300003946,109.16696410009172,109.65057669999078,109.65057669999078,109.65057669999078,109.65057669999078,109.666982499999,109.95035769999959,109.95035769999959,109.95035769999959,110.71829330001492,m,1.0555169000290334,None,110.71853800001554,110.73410680005327,111.73478110006545,111.71841480000876,,,,,,,,,,,,,,,,,,,,,,,,,,,,,,,,,,,,,,,,,,,,,,,,,,,,,,,,,,,,,,,,,,,,,,,,,,,,,,,,,,,,,B_7,001,2024-11-28_14h04.40.870,untitled,2024.1.5,None,2024-11-28 14h04.53.731221 +0530,
square.png,stranger,0,Z,,,,,0,2,2,2,,,,,,,,,,,,,111.73478110006545,,,,,,,,,,,,,,,,,,,,,,,,,,,,,,,,,,111.71864229999483,111.73478110006545,112.21847980003804,112.21847980003804,112.21847980003804,112.21847980003804,112.2349212000845,112.51847700006329,112.51847700006329,112.51847700006329,113.30264650005847,None,,,113.3028353000991,113.31881000008434,114.31918250001036,114.30314279999584,113.31881000008434,,,,,,,,,,,,,,,,,,,,,,,,,,,,,,,,,,,,,,,,,,,,,,,,,,,,,,,,,,,,,,,,,,,,,,,,,,,,,,,,,,,,B_7,001,2024-11-28_14h04.40.870,untitled,2024.1.5,None,2024-11-28 14h04.53.731221 +0530,
triangle.png,you,0,Z,,,,,0,3,3,3,,,,,,,,,,,,,114.31918250001036,,,,,,,,,,,,,,,,,,,,,,,,,,,,,,,,,,114.30337610002607,114.31918250001036,114.81965180009138,114.81965180009138,114.81965180009138,114.81965180009138,114.81965180009138,115.11977019999176,115.11977019999176,115.11977019999176,115.73743219999596,z,0.903347700019367,None,115.73769199999515,115.75357810000423,116.75376990006771,116.73779939999804,,,,,,,,,,,,,,,,,,,,,,,,,,,,,,,,,,,,,,,,,,,,,,,,,,,,,,,,,,,,,,,,,,,,,,,,,,,,,,,,,,,,,B_7,001,2024-11-28_14h04.40.870,untitled,2024.1.5,None,2024-11-28 14h04.53.731221 +0530,
square.png,you,1,M,,,,,1,0,4,0,,,,,,,,,,,,,116.75376990006771,,,,,,,,,,,,,,,,,,,,,,,,,,,,,,,,,,116.73802680009976,116.75376990006771,117.23784720001277,117.23784720001277,117.23784720001277,117.23784720001277,117.25442570005544,117.53762640000787,117.53762640000787,117.53762640000787,117.75531230005436,m,0.5053692000219598,None,117.7555590000702,117.77115060004871,118.7718298000982,118.75550940004177,,,,,,,,,,,,,,,,,,,,,,,,,,,,,,,,,,,,,,,,,,,,,,,,,,,,,,,,,,,,,,,,,,,,,,,,,,,,,,,,,,,,,B_7,001,2024-11-28_14h04.40.870,untitled,2024.1.5,None,2024-11-28 14h04.53.731221 +0530,
triangle.png,stranger,1,M,,,,,1,1,5,1,,,,,,,,,,,,,118.7718298000982,,,,,,,,,,,,,,,,,,,,,,,,,,,,,,,,,,118.75573740003165,118.7718298000982,119.2554312000284,119.2554312000284,119.2554312000284,119.2554312000284,119.2721871000249,,,,119.52285050007049,z,0.25602640002034605,None,119.52309530007187,119.53879100002814,120.53944850002881,120.5228872000007,,,,,,,,,,,,,,,,,,,,,,,,,,,,,,,,,,,,,,,,,,,,,,,,,,,,,,,,,,,,,,,,,,,,,,,,,,,,,,,,,,,,,B_7,001,2024-11-28_14h04.40.870,untitled,2024.1.5,None,2024-11-28 14h04.53.731221 +0530,
square.png,stranger,0,Z,,,,,1,2,6,2,,,,,,,,,,,,,120.53944850002881,,,,,,,,,,,,,,,,,,,,,,,,,,,,,,,,,,120.5231172000058,120.53944850002881,121.02286270004697,121.02286270004697,121.02286270004697,121.02286270004697,121.03971220005769,121.32284540007822,121.32284540007822,121.32284540007822,121.52392280008644,m,0.4880072999512777,None,121.52416960010305,121.53991930000484,122.54018080001697,122.52424000005703,,,,,,,,,,,,,,,,,,,,,,,,,,,,,,,,,,,,,,,,,,,,,,,,,,,,,,,,,,,,,,,,,,,,,,,,,,,,,,,,,,,,,B_7,001,2024-11-28_14h04.40.870,untitled,2024.1.5,None,2024-11-28 14h04.53.731221 +0530,
triangle.png,you,0,Z,,,,,1,3,7,3,,,,,,,,,,,,,122.54018080001697,,,,,,,,,,,,,,,,,,,,,,,,,,,,,,,,,,122.52447230007965,122.54018080001697,123.02411690005101,123.02411690005101,123.02411690005101,123.02411690005101,123.04078340006527,123.32385120005347,123.32385120005347,123.32385120005347,123.34154220006894,z,0.31555479997769,None,123.34178560005967,123.35716020001564,124.35784350009635,124.3417268000776,,,,,,,,,,,,,,,,,,,,,,,,,,,,,,,,,,,,,,,,,,,,,,,,,,,,,,,,,,,,,,,,,,,,,,,,,,,,,,,,,,,,,B_7,001,2024-11-28_14h04.40.870,untitled,2024.1.5,None,2024-11-28 14h04.53.731221 +0530,
square.png,you,1,M,,,,,2,0,8,0,,,,,,,,,,,,,124.35784350009635,,,,,,,,,,,,,,,,,,,,,,,,,,,,,,,,,,124.34195520007052,124.35784350009635,124.84148400009144,124.84148400009144,124.84148400009144,124.84148400009144,124.85833840002306,125.14166470000055,125.14166470000055,125.14166470000055,125.27577780000865,z,0.42609619989525527,None,125.27602190000471,125.29186850006226,126.29201730003115,126.2760015000822,,,,,,,,,,,,,,,,,,,,,,,,,,,,,,,,,,,,,,,,,,,,,,,,,,,,,,,,,,,,,,,,,,,,,,,,,,,,,,,,,,,,,B_7,001,2024-11-28_14h04.40.870,untitled,2024.1.5,None,2024-11-28 14h04.53.731221 +0530,
triangle.png,you,0,Z,,,,,2,1,9,3,,,,,,,,,,,,,126.29201730003115,,,,,,,,,,,,,,,,,,,,,,,,,,,,,,,,,,126.2762302000774,126.29201730003115,126.77579610003158,126.77579610003158,126.77579610003158,126.77579610003158,126.79240260005463,127.07581130007748,127.07581130007748,127.07581130007748,127.67702100006863,z,0.8994165000040084,None,127.67726580007002,127.69283400010318,128.6935876000207,128.67730790004134,,,,,,,,,,,,,,,,,,,,,,,,,,,,,,,,,,,,,,,,,,,,,,,,,,,,,,,,,,,,,,,,,,,,,,,,,,,,,,,,,,,,,B_7,001,2024-11-28_14h04.40.870,untitled,2024.1.5,None,2024-11-28 14h04.53.731221 +0530,
triangle.png,stranger,1,M,,,,,2,2,10,1,,,,,,,,,,,,,128.6935876000207,,,,,,,,,,,,,,,,,,,,,,,,,,,,,,,,,,128.6775367000373,128.6935876000207,129.17727990006097,129.17727990006097,129.17727990006097,129.17727990006097,129.19362860010006,129.4770782000851,129.4770782000851,129.4770782000851,130.26135889999568,None,,,130.261489000055,130.27753530000336,131.27802900003735,131.26210880000144,130.27753530000336,,,,,,,,,,,,,,,,,,,,,,,,,,,,,,,,,,,,,,,,,,,,,,,,,,,,,,,,,,,,,,,,,,,,,,,,,,,,,,,,,,,,B_7,001,2024-11-28_14h04.40.870,untitled,2024.1.5,None,2024-11-28 14h04.53.731221 +0530,
square.png,stranger,0,Z,,,,,2,3,11,2,,,,,,,,,,,,,131.27802900003735,,,,,,,,,,,,,,,,,,,,,,,,,,,,,,,,,,131.26233910000883,131.27802900003735,131.77875170006882,131.77875170006882,131.77875170006882,131.77875170006882,131.77875170006882,132.07838409999385,132.07838409999385,132.07838409999385,132.6795139000751,z,0.8965492999413982,None,132.67975820007268,132.6956305000931,133.69607180007733,133.6797729000682,,,,,,,,,,,,,,,,,,,,,,,,,,,,,,,,,,,,,,,,,,,,,,,,,,,,,,,,,,,,,,,,,,,,,,,,,,,,,,,,,,,,,B_7,001,2024-11-28_14h04.40.870,untitled,2024.1.5,None,2024-11-28 14h04.53.731221 +0530,
square.png,you,1,M,,,,,3,0,12,0,,,,,,,,,,,,,133.69607180007733,,,,,,,,,,,,,,,,,,,,,,,,,,,,,,,,,,133.68000140006188,133.69607180007733,134.17966640007216,134.17966640007216,134.17966640007216,134.17966640007216,134.19633520010393,134.47968019999098,134.47968019999098,134.47968019999098,134.84736380004324,m,0.6585008000256494,None,134.8476105000591,134.86319860001095,135.8636805000715,135.84743540000636,,,,,,,,,,,,,,,,,,,,,,,,,,,,,,,,,,,,,,,,,,,,,,,,,,,,,,,,,,,,,,,,,,,,,,,,,,,,,,,,,,,,,B_7,001,2024-11-28_14h04.40.870,untitled,2024.1.5,None,2024-11-28 14h04.53.731221 +0530,
square.png,stranger,0,Z,,,,,3,1,13,2,,,,,,,,,,,,,135.8636805000715,,,,,,,,,,,,,,,,,,,,,,,,,,,,,,,,,,135.84767030004878,135.8636805000715,136.34762490005232,136.34762490005232,136.34762490005232,136.34762490005232,136.36428450001404,136.647529900074,136.647529900074,136.647529900074,137.01498249999713,z,0.6551295999670401,None,137.01522739999928,137.0311631000368,138.03149130009115,138.0152191000525,,,,,,,,,,,,,,,,,,,,,,,,,,,,,,,,,,,,,,,,,,,,,,,,,,,,,,,,,,,,,,,,,,,,,,,,,,,,,,,,,,,,,B_7,001,2024-11-28_14h04.40.870,untitled,2024.1.5,None,2024-11-28 14h04.53.731221 +0530,
triangle.png,stranger,1,M,,,,,3,2,14,1,,,,,,,,,,,,,138.03149130009115,,,,,,,,,,,,,,,,,,,,,,,,,,,,,,,,,,138.01544770004693,138.03149130009115,138.51539930002764,138.51539930002764,138.51539930002764,138.51539930002764,138.53204290010035,138.81519350002054,138.81519350002054,138.81519350002054,138.91627530008554,m,0.3947840000037104,None,138.9165243000025,138.9320779000409,139.9325780000072,139.9161067000823,,,,,,,,,,,,,,,,,,,,,,,,,,,,,,,,,,,,,,,,,,,,,,,,,,,,,,,,,,,,,,,,,,,,,,,,,,,,,,,,,,,,,B_7,001,2024-11-28_14h04.40.870,untitled,2024.1.5,None,2024-11-28 14h04.53.731221 +0530,
triangle.png,you,0,Z,,,,,3,3,15,3,,,,,,,,,,,,,139.9325780000072,,,,,,,,,,,,,,,,,,,,,,,,,,,,,,,,,,139.91634170000907,139.9325780000072,140.4161841000896,140.4161841000896,140.4161841000896,140.4161841000896,140.43298770010006,140.71607690001838,140.71607690001838,140.71607690001838,141.18395850004163,z,0.7631021999986842,None,141.18421189999208,141.20004290004726,142.20053110003937,142.18427570001222,,,,,,,,,,,,,,,,,,,,,,,,,,,,,,,,,,,,,,,,,,,,,,,,,,,,,,,,,,,,,,,,,,,,,,,,,,,,,,,,,,,,,B_7,001,2024-11-28_14h04.40.870,untitled,2024.1.5,None,2024-11-28 14h04.53.731221 +0530,
triangle.png,you,0,Z,,,,,4,0,16,3,,,,,,,,,,,,,142.20053110003937,,,,,,,,,,,,,,,,,,,,,,,,,,,,,,,,,,142.18450610002037,142.20053110003937,142.68423970008735,142.68423970008735,142.68423970008735,142.68423970008735,142.70061850000639,142.9839662000304,142.9839662000304,142.9839662000304,143.25155889999587,m,0.5577160000102594,None,143.251858200063,143.26753850001842,144.26822410000023,144.25197290000506,,,,,,,,,,,,,,,,,,,,,,,,,,,,,,,,,,,,,,,,,,,,,,,,,,,,,,,,,,,,,,,,,,,,,,,,,,,,,,,,,,,,,B_7,001,2024-11-28_14h04.40.870,untitled,2024.1.5,None,2024-11-28 14h04.53.731221 +0530,
square.png,stranger,0,Z,,,,,4,1,17,2,,,,,,,,,,,,,144.26822410000023,,,,,,,,,,,,,,,,,,,,,,,,,,,,,,,,,,144.25219980010297,144.26822410000023,144.75168940005824,144.75168940005824,144.75168940005824,144.75168940005824,144.76823859999422,145.05190150009003,145.05190150009003,145.05190150009003,145.75270559999626,z,0.9997972999699414,None,145.75295150000602,145.7689515000675,146.7694379000459,146.75310620001983,,,,,,,,,,,,,,,,,,,,,,,,,,,,,,,,,,,,,,,,,,,,,,,,,,,,,,,,,,,,,,,,,,,,,,,,,,,,,,,,,,,,,B_7,001,2024-11-28_14h04.40.870,untitled,2024.1.5,None,2024-11-28 14h04.53.731221 +0530,
triangle.png,stranger,1,M,,,,,4,2,18,1,,,,,,,,,,,,,146.7694379000459,,,,,,,,,,,,,,,,,,,,,,,,,,,,,,,,,,146.75333390000742,146.7694379000459,147.25328589999117,147.25328589999117,147.25328589999117,147.25328589999117,147.26992780005094,147.55316510004923,147.55316510004923,147.55316510004923,148.33747420005966,None,,,148.33760410000104,148.35337590007111,149.3541599001037,149.33797150000464,148.35337590007111,,,,,,,,,,,,,,,,,,,,,,,,,,,,,,,,,,,,,,,,,,,,,,,,,,,,,,,,,,,,,,,,,,,,,,,,,,,,,,,,,,,,B_7,001,2024-11-28_14h04.40.870,untitled,2024.1.5,None,2024-11-28 14h04.53.731221 +0530,
square.png,you,1,M,,,,,4,3,19,0,,,,,,,,,,,,,149.3541599001037,,,,,,,,,,,,,,,,,,,,,,,,,,,,,,,,,,149.33820380002726,149.3541599001037,149.85457000008319,149.85457000008319,149.85457000008319,149.85457000008319,149.85457000008319,150.15462090005167,150.15462090005167,150.15462090005167,150.65552890009712,m,0.7874526000814512,None,150.65577170008328,150.67156500008423,151.67212580004707,151.65571980003733,,,,,,,,,,,,,,,,,,,,,,,,,,,,,,,,,,,,,,,,,,,,,,,,,,,,,,,,,,,,,,,,,,,,,,,,,,,,,,,,,,,,,B_7,001,2024-11-28_14h04.40.870,untitled,2024.1.5,None,2024-11-28 14h04.53.731221 +0530,
,,,,,,,,,,,,,,,,,,,,,,,,,,,,,,,,,,,,,,,,,,,,,,,,,,,,,,,,,,,,,,,,,,,,,,,,,,,,,151.6557657000376,151.67212580004707,151.67212580004707,153.05674820009153,space,1.3753225000109524,None,,,,,,,,,,,,,,,,,,,,,,,,,,,,,,,,,,,,,,,,,,,,,,,,,,,,,,,,,,,,,,,,,,,,,,,,,,,,,B_7,001,2024-11-28_14h04.40.870,untitled,2024.1.5,None,2024-11-28 14h04.53.731221 +0530,
triangle.png,you,0,Z,,,,,,,,,0,0,0,3,,,,,,,,,153.07274950004648,,,,,,,,,,,,,,,,,,,,,,,,,,,,,,,,,,153.06207069999073,153.07274950004648,153.55645840009674,153.55645840009674,153.55645840009674,153.55645840009674,153.57293480006047,153.85636080009863,153.85636080009863,153.85636080009863,154.0737492000917,m,0.5015732999891043,None,154.07444510003552,154.08991300000343,155.09045960009098,155.0740198000567,,,,,,,,,,,,,,,,,,,,,,,,,,,,,,,,,,,,,,,,,,,,,,,,,,,,,,,,,,,,,,,,,,,,,,,,,,,,,,,,,,,,,B_7,001,2024-11-28_14h04.40.870,untitled,2024.1.5,None,2024-11-28 14h04.53.731221 +0530,
square.png,you,1,M,,,,,,,,,0,1,1,0,,,,,,,,,155.09045960009098,,,,,,,,,,,,,,,,,,,,,,,,,,,,,,,,,,155.07437829999253,155.09045960009098,155.57401209999807,155.57401209999807,155.57401209999807,155.57401209999807,155.59087180008646,155.87393880006857,155.87393880006857,155.87393880006857,155.89157290000003,z,0.30797290010377765,None,155.8919981000945,155.90737170004286,156.9078880000161,156.89162090001628,,,,,,,,,,,,,,,,,,,,,,,,,,,,,,,,,,,,,,,,,,,,,,,,,,,,,,,,,,,,,,,,,,,,,,,,,,,,,,,,,,,,,B_7,001,2024-11-28_14h04.40.870,untitled,2024.1.5,None,2024-11-28 14h04.53.731221 +0530,
square.png,stranger,0,Z,,,,,,,,,0,2,2,2,,,,,,,,,156.9078880000161,,,,,,,,,,,,,,,,,,,,,,,,,,,,,,,,,,156.89196460007224,156.9078880000161,157.391854000045,157.391854000045,157.391854000045,157.391854000045,157.40820070006885,157.69170930003747,157.69170930003747,157.69170930003747,157.80916550010443,z,0.4037021000403911,None,157.80958940007258,157.82505540002603,158.82552410010248,158.80949080002028,,,,,,,,,,,,,,,,,,,,,,,,,,,,,,,,,,,,,,,,,,,,,,,,,,,,,,,,,,,,,,,,,,,,,,,,,,,,,,,,,,,,,B_7,001,2024-11-28_14h04.40.870,untitled,2024.1.5,None,2024-11-28 14h04.53.731221 +0530,
triangle.png,stranger,1,M,,,,,,,,,0,3,3,1,,,,,,,,,158.82552410010248,,,,,,,,,,,,,,,,,,,,,,,,,,,,,,,,,,158.80983610008843,158.82552410010248,159.3092618000228,159.3092618000228,159.3092618000228,159.3092618000228,159.32592540001497,159.6092557000229,159.6092557000229,159.6092557000229,160.12689980003051,z,0.8128198999911547,None,160.12732590001542,160.14293200010434,161.14356090000365,161.12730020005256,,,,,,,,,,,,,,,,,,,,,,,,,,,,,,,,,,,,,,,,,,,,,,,,,,,,,,,,,,,,,,,,,,,,,,,,,,,,,,,,,,,,,B_7,001,2024-11-28_14h04.40.870,untitled,2024.1.5,None,2024-11-28 14h04.53.731221 +0530,
triangle.png,stranger,1,M,,,,,,,,,1,0,4,1,,,,,,,,,161.14356090000365,,,,,,,,,,,,,,,,,,,,,,,,,,,,,,,,,,161.12765810010023,161.14356090000365,161.6271345000714,161.6271345000714,161.6271345000714,161.6271345000714,161.6439701000927,161.92730169999413,161.92730169999413,161.92730169999413,161.96110320009757,m,0.3203591000055894,None,161.96153299999423,161.97722060000524,162.9776567000663,162.9615204000147,,,,,,,,,,,,,,,,,,,,,,,,,,,,,,,,,,,,,,,,,,,,,,,,,,,,,,,,,,,,,,,,,,,,,,,,,,,,,,,,,,,,,B_7,001,2024-11-28_14h04.40.870,untitled,2024.1.5,None,2024-11-28 14h04.53.731221 +0530,
triangle.png,you,0,Z,,,,,,,,,1,1,5,3,,,,,,,,,162.9776567000663,,,,,,,,,,,,,,,,,,,,,,,,,,,,,,,,,,162.96186999999918,162.9776567000663,163.461635600077,163.461635600077,163.461635600077,163.461635600077,163.4779470000649,163.76145400002133,163.76145400002133,163.76145400002133,164.09578660002444,z,0.6185392999323085,None,164.09620970010292,164.1115496000275,165.1122717000544,165.0958703000797,,,,,,,,,,,,,,,,,,,,,,,,,,,,,,,,,,,,,,,,,,,,,,,,,,,,,,,,,,,,,,,,,,,,,,,,,,,,,,,,,,,,,B_7,001,2024-11-28_14h04.40.870,untitled,2024.1.5,None,2024-11-28 14h04.53.731221 +0530,
square.png,you,1,M,,,,,,,,,1,2,6,0,,,,,,,,,165.1122717000544,,,,,,,,,,,,,,,,,,,,,,,,,,,,,,,,,,165.09621910005808,165.1122717000544,165.59572430001572,165.59572430001572,165.59572430001572,165.59572430001572,165.61262560007162,165.89594710001256,165.89594710001256,165.89594710001256,166.54696230008267,m,0.9431247999891639,None,166.547381100012,166.5628197999904,167.56355600000825,167.54702310007997,,,,,,,,,,,,,,,,,,,,,,,,,,,,,,,,,,,,,,,,,,,,,,,,,,,,,,,,,,,,,,,,,,,,,,,,,,,,,,,,,,,,,B_7,001,2024-11-28_14h04.40.870,untitled,2024.1.5,None,2024-11-28 14h04.53.731221 +0530,
square.png,stranger,0,Z,,,,,,,,,1,3,7,2,,,,,,,,,167.56355600000825,,,,,,,,,,,,,,,,,,,,,,,,,,,,,,,,,,167.54736470000353,167.56355600000825,168.04725340008736,168.04725340008736,168.04725340008736,168.04725340008736,168.06385050003882,168.34704690007493,168.34704690007493,168.34704690007493,168.34788740007207,z,0.29240019991993904,None,168.34837610006798,168.3639656000305,169.3642824999988,169.34804780001286,,,,,,,,,,,,,,,,,,,,,,,,,,,,,,,,,,,,,,,,,,,,,,,,,,,,,,,,,,,,,,,,,,,,,,,,,,,,,,,,,,,,,B_7,001,2024-11-28_14h04.40.870,untitled,2024.1.5,None,2024-11-28 14h04.53.731221 +0530,
square.png,stranger,0,Z,,,,,,,,,2,0,8,2,,,,,,,,,169.3642824999988,,,,,,,,,,,,,,,,,,,,,,,,,,,,,,,,,,169.34839490009472,169.3642824999988,169.84813540009782,169.84813540009782,169.84813540009782,169.84813540009782,169.86486560001504,170.14809230004903,170.14809230004903,170.14809230004903,170.69903460005298,m,0.8473430998856202,None,170.69945430010557,170.7153524000896,171.7158238000702,171.69923650007695,,,,,,,,,,,,,,,,,,,,,,,,,,,,,,,,,,,,,,,,,,,,,,,,,,,,,,,,,,,,,,,,,,,,,,,,,,,,,,,,,,,,,B_7,001,2024-11-28_14h04.40.870,untitled,2024.1.5,None,2024-11-28 14h04.53.731221 +0530,
triangle.png,you,0,Z,,,,,,,,,2,1,9,3,,,,,,,,,171.7158238000702,,,,,,,,,,,,,,,,,,,,,,,,,,,,,,,,,,171.69958290003706,171.7158238000702,172.19923190004192,172.19923190004192,172.19923190004192,172.19923190004192,172.21581460000016,172.49923090008087,172.49923090008087,172.49923090008087,173.18354990007356,z,0.979597199941054,None,173.18397060001735,173.19973430002574,174.19997920002788,174.18394920008723,,,,,,,,,,,,,,,,,,,,,,,,,,,,,,,,,,,,,,,,,,,,,,,,,,,,,,,,,,,,,,,,,,,,,,,,,,,,,,,,,,,,,B_7,001,2024-11-28_14h04.40.870,untitled,2024.1.5,None,2024-11-28 14h04.53.731221 +0530,
triangle.png,stranger,1,M,,,,,,,,,2,2,10,1,,,,,,,,,174.19997920002788,,,,,,,,,,,,,,,,,,,,,,,,,,,,,,,,,,174.18429770006333,174.19997920002788,174.68399200006388,174.68399200006388,174.68399200006388,174.68399200006388,174.70063160010614,174.98391690000426,174.98391690000426,174.98391690000426,175.11799900000915,z,0.4314661999233067,None,175.118414400029,175.13387550006155,176.13458489999175,176.11812610004563,,,,,,,,,,,,,,,,,,,,,,,,,,,,,,,,,,,,,,,,,,,,,,,,,,,,,,,,,,,,,,,,,,,,,,,,,,,,,,,,,,,,,B_7,001,2024-11-28_14h04.40.870,untitled,2024.1.5,None,2024-11-28 14h04.53.731221 +0530,
square.png,you,1,M,,,,,,,,,2,3,11,0,,,,,,,,,176.13458489999175,,,,,,,,,,,,,,,,,,,,,,,,,,,,,,,,,,176.11847380001564,176.13458489999175,176.6181981000118,176.6181981000118,176.6181981000118,176.6181981000118,176.63486039999407,176.9183685000753,176.9183685000753,176.9183685000753,177.1523681000108,m,0.5325970000121742,None,177.1527932001045,177.16849589999765,178.16872920002788,178.15226830006577,,,,,,,,,,,,,,,,,,,,,,,,,,,,,,,,,,,,,,,,,,,,,,,,,,,,,,,,,,,,,,,,,,,,,,,,,,,,,,,,,,,,,B_7,001,2024-11-28_14h04.40.870,untitled,2024.1.5,None,2024-11-28 14h04.53.731221 +0530,
square.png,stranger,0,Z,,,,,,,,,3,0,12,2,,,,,,,,,178.16872920002788,,,,,,,,,,,,,,,,,,,,,,,,,,,,,,,,,,178.15264690003823,178.16872920002788,178.6527101000538,178.6527101000538,178.6527101000538,178.6527101000538,178.66939010005444,178.9524662999902,178.9524662999902,178.9524662999902,179.37014020001516,z,0.7142219999805093,None,179.3705631000921,179.38629570009653,180.38675700000022,180.3706014000345,,,,,,,,,,,,,,,,,,,,,,,,,,,,,,,,,,,,,,,,,,,,,,,,,,,,,,,,,,,,,,,,,,,,,,,,,,,,,,,,,,,,,B_7,001,2024-11-28_14h04.40.870,untitled,2024.1.5,None,2024-11-28 14h04.53.731221 +0530,
square.png,you,1,M,,,,,,,,,3,1,13,0,,,,,,,,,180.38675700000022,,,,,,,,,,,,,,,,,,,,,,,,,,,,,,,,,,180.3709455000935,180.38675700000022,180.87031000002753,180.87031000002753,180.87031000002753,180.87031000002753,180.88694940006826,181.17051060008816,181.17051060008816,181.17051060008816,181.5379510000348,m,0.6651010999921709,None,181.53837240010034,181.55405969999265,182.5543658999959,182.5382690000115,,,,,,,,,,,,,,,,,,,,,,,,,,,,,,,,,,,,,,,,,,,,,,,,,,,,,,,,,,,,,,,,,,,,,,,,,,,,,,,,,,,,,B_7,001,2024-11-28_14h04.40.870,untitled,2024.1.5,None,2024-11-28 14h04.53.731221 +0530,
triangle.png,you,0,Z,,,,,,,,,3,2,14,3,,,,,,,,,182.5543658999959,,,,,,,,,,,,,,,,,,,,,,,,,,,,,,,,,,182.53861480008345,182.5543658999959,183.03826350008603,183.03826350008603,183.03826350008603,183.03826350008603,183.05463470006362,183.33811220002826,183.33811220002826,183.33811220002826,183.7224979000166,z,0.6771813000086695,None,183.72292650002055,183.73859160009306,184.73901560006198,184.7227944000624,,,,,,,,,,,,,,,,,,,,,,,,,,,,,,,,,,,,,,,,,,,,,,,,,,,,,,,,,,,,,,,,,,,,,,,,,,,,,,,,,,,,,B_7,001,2024-11-28_14h04.40.870,untitled,2024.1.5,None,2024-11-28 14h04.53.731221 +0530,
triangle.png,stranger,1,M,,,,,,,,,3,3,15,1,,,,,,,,,184.73901560006198,,,,,,,,,,,,,,,,,,,,,,,,,,,,,,,,,,184.7231398000149,184.73901560006198,185.22275160008576,185.22275160008576,185.22275160008576,185.22275160008576,185.2391906999983,185.52280740009155,185.52280740009155,185.52280740009155,186.1235972000286,m,0.8850175000261515,None,186.1240264000371,186.13963400002103,187.14029400004074,187.12395490007475,,,,,,,,,,,,,,,,,,,,,,,,,,,,,,,,,,,,,,,,,,,,,,,,,,,,,,,,,,,,,,,,,,,,,,,,,,,,,,,,,,,,,B_7,001,2024-11-28_14h04.40.870,untitled,2024.1.5,None,2024-11-28 14h04.53.731221 +0530,
triangle.png,you,0,Z,,,,,,,,,4,0,16,3,,,,,,,,,187.14029400004074,,,,,,,,,,,,,,,,,,,,,,,,,,,,,,,,,,187.1243038000539,187.14029400004074,187.62374150007963,187.62374150007963,187.62374150007963,187.62374150007963,187.64062180009205,187.92369550000876,187.92369550000876,187.92369550000876,188.70804789999966,None,,,188.70824070007075,188.72429919999558,189.72482060000766,189.7088117999956,188.72429919999558,,,,,,,,,,,,,,,,,,,,,,,,,,,,,,,,,,,,,,,,,,,,,,,,,,,,,,,,,,,,,,,,,,,,,,,,,,,,,,,,,,,,B_7,001,2024-11-28_14h04.40.870,untitled,2024.1.5,None,2024-11-28 14h04.53.731221 +0530,
square.png,you,1,M,,,,,,,,,4,1,17,0,,,,,,,,,189.72482060000766,,,,,,,,,,,,,,,,,,,,,,,,,,,,,,,,,,189.70915990008507,189.72482060000766,190.22528840007726,190.22528840007726,190.22528840007726,190.22528840007726,190.22528840007726,190.5250573999947,190.5250573999947,190.5250573999947,190.7426638000179,m,0.5015768999001011,None,190.74308720009867,190.7585970000364,191.7593015000457,191.74318690004293,,,,,,,,,,,,,,,,,,,,,,,,,,,,,,,,,,,,,,,,,,,,,,,,,,,,,,,,,,,,,,,,,,,,,,,,,,,,,,,,,,,,,B_7,001,2024-11-28_14h04.40.870,untitled,2024.1.5,None,2024-11-28 14h04.53.731221 +0530,
square.png,stranger,0,Z,,,,,,,,,4,2,18,2,,,,,,,,,191.7593015000457,,,,,,,,,,,,,,,,,,,,,,,,,,,,,,,,,,191.74353790003806,191.7593015000457,192.24279980000574,192.24279980000574,192.24279980000574,192.24279980000574,192.25940189999528,192.54299890005495,192.54299890005495,192.54299890005495,192.94399230007548,z,0.6880804999964312,None,192.94442980003078,192.95980620000046,193.9602457000874,193.94416030007415,,,,,,,,,,,,,,,,,,,,,,,,,,,,,,,,,,,,,,,,,,,,,,,,,,,,,,,,,,,,,,,,,,,,,,,,,,,,,,,,,,,,,B_7,001,2024-11-28_14h04.40.870,untitled,2024.1.5,None,2024-11-28 14h04.53.731221 +0530,
triangle.png,stranger,1,M,,,,,,,,,4,3,19,1,,,,,,,,,193.9602457000874,,,,,,,,,,,,,,,,,,,,,,,,,,,,,,,,,,193.9445118000731,193.9602457000874,194.44395530002657,194.44395530002657,194.44395530002657,194.44395530002657,194.460587700014,194.7441577001009,194.7441577001009,194.7441577001009,195.44519200001378,z,0.9994180999929085,None,195.44562030001543,195.46098610002082,196.46163850009907,196.4452996000182,,,,,,,,,,,,,,,,,,,,,,,,,,,,,,,,,,,,,,,,,,,,,,,,,,,,,,,,,,,,,,,,,,,,,,,,,,,,,,,,,,,,,B_7,001,2024-11-28_14h04.40.870,untitled,2024.1.5,None,2024-11-28 14h04.53.731221 +0530,
square.png,you,1,M,,,,,,,,,5,0,20,0,,,,,,,,,196.46163850009907,,,,,,,,,,,,,,,,,,,,,,,,,,,,,,,,,,196.44565630005673,196.46163850009907,196.94526150007732,196.94526150007732,196.94526150007732,196.94526150007732,196.96199010009877,197.24530820001382,197.24530820001382,197.24530820001382,197.79619830008596,m,0.8496438999427482,None,197.7966406000778,197.81250580004416,198.81261710007675,198.79651910008397,,,,,,,,,,,,,,,,,,,,,,,,,,,,,,,,,,,,,,,,,,,,,,,,,,,,,,,,,,,,,,,,,,,,,,,,,,,,,,,,,,,,,B_7,001,2024-11-28_14h04.40.870,untitled,2024.1.5,None,2024-11-28 14h04.53.731221 +0530,
triangle.png,stranger,1,M,,,,,,,,,5,1,21,1,,,,,,,,,198.81261710007675,,,,,,,,,,,,,,,,,,,,,,,,,,,,,,,,,,198.7968755000038,198.81261710007675,199.2964577000821,199.2964577000821,199.2964577000821,199.2964577000821,199.31324500008486,199.59662620001473,199.59662620001473,199.59662620001473,199.96438110002782,m,0.6576665999600664,None,199.9648078000173,199.97993040003348,200.98047619999852,200.96454370010179,,,,,,,,,,,,,,,,,,,,,,,,,,,,,,,,,,,,,,,,,,,,,,,,,,,,,,,,,,,,,,,,,,,,,,,,,,,,,,,,,,,,,B_7,001,2024-11-28_14h04.40.870,untitled,2024.1.5,None,2024-11-28 14h04.53.731221 +0530,
square.png,stranger,0,Z,,,,,,,,,5,2,22,2,,,,,,,,,200.98047619999852,,,,,,,,,,,,,,,,,,,,,,,,,,,,,,,,,,200.96492769999895,200.98047619999852,201.46421760006342,201.46421760006342,201.46421760006342,201.46421760006342,201.48081040009856,201.76426730002277,201.76426730002277,201.76426730002277,202.29895840003155,z,0.8315334999933839,None,202.29942789999768,202.31470109999646,203.31532960000914,203.29891420004424,,,,,,,,,,,,,,,,,,,,,,,,,,,,,,,,,,,,,,,,,,,,,,,,,,,,,,,,,,,,,,,,,,,,,,,,,,,,,,,,,,,,,B_7,001,2024-11-28_14h04.40.870,untitled,2024.1.5,None,2024-11-28 14h04.53.731221 +0530,
triangle.png,you,0,Z,,,,,,,,,5,3,23,3,,,,,,,,,203.31532960000914,,,,,,,,,,,,,,,,,,,,,,,,,,,,,,,,,,203.29925899999216,203.31532960000914,203.7990848000627,203.7990848000627,203.7990848000627,203.7990848000627,203.81531560001895,204.09884630003944,204.09884630003944,204.09884630003944,204.6331067000283,z,0.8283485999563709,None,204.63352240005042,204.64920270000584,205.64945090003312,205.6334609000478,,,,,,,,,,,,,,,,,,,,,,,,,,,,,,,,,,,,,,,,,,,,,,,,,,,,,,,,,,,,,,,,,,,,,,,,,,,,,,,,,,,,,B_7,001,2024-11-28_14h04.40.870,untitled,2024.1.5,None,2024-11-28 14h04.53.731221 +0530,
square.png,you,1,M,,,,,,,,,6,0,24,0,,,,,,,,,205.64945090003312,,,,,,,,,,,,,,,,,,,,,,,,,,,,,,,,,,205.63380660000257,205.64945090003312,206.13329370005522,206.13329370005522,206.13329370005522,206.13329370005522,206.14992150000762,206.4333040000638,206.4333040000638,206.4333040000638,206.85108720010612,m,0.7015436999499798,None,206.85151030006818,206.86696800007485,207.86742940009572,207.8512997000944,,,,,,,,,,,,,,,,,,,,,,,,,,,,,,,,,,,,,,,,,,,,,,,,,,,,,,,,,,,,,,,,,,,,,,,,,,,,,,,,,,,,,B_7,001,2024-11-28_14h04.40.870,untitled,2024.1.5,None,2024-11-28 14h04.53.731221 +0530,
triangle.png,you,0,Z,,,,,,,,,6,1,25,3,,,,,,,,,207.86742940009572,,,,,,,,,,,,,,,,,,,,,,,,,,,,,,,,,,207.85164280002937,207.86742940009572,208.35118490003515,208.35118490003515,208.35118490003515,208.35118490003515,208.36774810007773,208.65100090007763,208.65100090007763,208.65100090007763,208.96870120009407,z,0.6110020000487566,None,208.96912060002796,208.9847742000129,209.985198300099,209.96882569999434,,,,,,,,,,,,,,,,,,,,,,,,,,,,,,,,,,,,,,,,,,,,,,,,,,,,,,,,,,,,,,,,,,,,,,,,,,,,,,,,,,,,,B_7,001,2024-11-28_14h04.40.870,untitled,2024.1.5,None,2024-11-28 14h04.53.731221 +0530,
square.png,stranger,0,Z,,,,,,,,,6,2,26,2,,,,,,,,,209.985198300099,,,,,,,,,,,,,,,,,,,,,,,,,,,,,,,,,,209.96917060005944,209.985198300099,210.46883220004383,210.46883220004383,210.46883220004383,210.46883220004383,210.48571870010346,210.76878909999505,210.76878909999505,210.76878909999505,211.32007440004963,z,0.8344226999906823,None,211.3205001000315,211.33609550003894,212.33643980009947,212.32011530001182,,,,,,,,,,,,,,,,,,,,,,,,,,,,,,,,,,,,,,,,,,,,,,,,,,,,,,,,,,,,,,,,,,,,,,,,,,,,,,,,,,,,,B_7,001,2024-11-28_14h04.40.870,untitled,2024.1.5,None,2024-11-28 14h04.53.731221 +0530,
triangle.png,stranger,1,M,,,,,,,,,6,3,27,1,,,,,,,,,212.33643980009947,,,,,,,,,,,,,,,,,,,,,,,,,,,,,,,,,,212.3204703000374,212.33643980009947,212.82012640009634,212.82012640009634,212.82012640009634,212.82012640009634,212.83659630001057,213.1202290999936,213.1202290999936,213.1202290999936,213.90442870010156,None,,,213.90461970004253,213.92068450001534,214.921342000016,214.905060900026,213.92068450001534,,,,,,,,,,,,,,,,,,,,,,,,,,,,,,,,,,,,,,,,,,,,,,,,,,,,,,,,,,,,,,,,,,,,,,,,,,,,,,,,,,,,B_7,001,2024-11-28_14h04.40.870,untitled,2024.1.5,None,2024-11-28 14h04.53.731221 +0530,
triangle.png,you,0,Z,,,,,,,,,7,0,28,3,,,,,,,,,214.921342000016,,,,,,,,,,,,,,,,,,,,,,,,,,,,,,,,,,214.90540950000286,214.921342000016,215.42142270004842,215.42142270004842,215.42142270004842,215.42142270004842,215.42142270004842,215.7216007000534,215.7216007000534,215.7216007000534,216.10585070005618,z,0.6780477999709547,None,216.10628100007307,216.12159770005383,217.12240640004165,217.10594080004375,,,,,,,,,,,,,,,,,,,,,,,,,,,,,,,,,,,,,,,,,,,,,,,,,,,,,,,,,,,,,,,,,,,,,,,,,,,,,,,,,,,,,B_7,001,2024-11-28_14h04.40.870,untitled,2024.1.5,None,2024-11-28 14h04.53.731221 +0530,
triangle.png,stranger,1,M,,,,,,,,,7,1,29,1,,,,,,,,,217.12240640004165,,,,,,,,,,,,,,,,,,,,,,,,,,,,,,,,,,217.1062941000564,217.12240640004165,217.6062175000552,217.6062175000552,217.6062175000552,217.6062175000552,217.62275910004973,217.90608089999296,217.90608089999296,217.90608089999296,218.45711459999438,m,0.8489321999950334,None,218.45755140006077,218.47306330001447,219.47339540009852,219.45714030007366,,,,,,,,,,,,,,,,,,,,,,,,,,,,,,,,,,,,,,,,,,,,,,,,,,,,,,,,,,,,,,,,,,,,,,,,,,,,,,,,,,,,,B_7,001,2024-11-28_14h04.40.870,untitled,2024.1.5,None,2024-11-28 14h04.53.731221 +0530,
square.png,you,1,M,,,,,,,,,7,2,30,0,,,,,,,,,219.47339540009852,,,,,,,,,,,,,,,,,,,,,,,,,,,,,,,,,,219.45748770004138,219.47339540009852,219.95725279999897,219.95725279999897,219.95725279999897,219.95725279999897,219.9738714999985,220.2573253000155,220.2573253000155,220.2573253000155,220.89158420008607,m,0.9179817000404,None,220.89201210008468,220.9077126000775,221.90793320001103,221.89174440002535,,,,,,,,,,,,,,,,,,,,,,,,,,,,,,,,,,,,,,,,,,,,,,,,,,,,,,,,,,,,,,,,,,,,,,,,,,,,,,,,,,,,,B_7,001,2024-11-28_14h04.40.870,untitled,2024.1.5,None,2024-11-28 14h04.53.731221 +0530,
square.png,stranger,0,Z,,,,,,,,,7,3,31,2,,,,,,,,,221.90793320001103,,,,,,,,,,,,,,,,,,,,,,,,,,,,,,,,,,221.89209700003266,221.90793320001103,222.3919740000274,222.3919740000274,222.3919740000274,222.3919740000274,222.40828860003967,222.69158210000023,222.69158210000023,222.69158210000023,223.25934950006194,z,0.8509548000292853,None,223.2597783000674,223.27552480006125,224.2759782000212,224.25972560001537,,,,,,,,,,,,,,,,,,,,,,,,,,,,,,,,,,,,,,,,,,,,,,,,,,,,,,,,,,,,,,,,,,,,,,,,,,,,,,,,,,,,,B_7,001,2024-11-28_14h04.40.870,untitled,2024.1.5,None,2024-11-28 14h04.53.731221 +0530,
triangle.png,stranger,1,M,,,,,,,,,8,0,32,1,,,,,,,,,224.2759782000212,,,,,,,,,,,,,,,,,,,,,,,,,,,,,,,,,,224.26009090000298,224.2759782000212,224.7597920000553,224.7597920000553,224.7597920000553,224.7597920000553,224.7762742000632,225.05973179999273,225.05973179999273,225.05973179999273,225.51049410004634,m,0.7438489999622107,None,225.51091300009284,225.52652740001213,226.52696530008689,226.51069920009468,,,,,,,,,,,,,,,,,,,,,,,,,,,,,,,,,,,,,,,,,,,,,,,,,,,,,,,,,,,,,,,,,,,,,,,,,,,,,,,,,,,,,B_7,001,2024-11-28_14h04.40.870,untitled,2024.1.5,None,2024-11-28 14h04.53.731221 +0530,
triangle.png,you,0,Z,,,,,,,,,8,1,33,3,,,,,,,,,226.52696530008689,,,,,,,,,,,,,,,,,,,,,,,,,,,,,,,,,,226.5110422000289,226.52696530008689,227.01094690000173,227.01094690000173,227.01094690000173,227.01094690000173,227.02754050004296,227.31075540010352,227.31075540010352,227.31075540010352,227.84523680002894,z,0.8329479000531137,None,227.845659899991,227.86107270000502,228.86148100008722,228.84554510004818,,,,,,,,,,,,,,,,,,,,,,,,,,,,,,,,,,,,,,,,,,,,,,,,,,,,,,,,,,,,,,,,,,,,,,,,,,,,,,,,,,,,,B_7,001,2024-11-28_14h04.40.870,untitled,2024.1.5,None,2024-11-28 14h04.53.731221 +0530,
square.png,stranger,0,Z,,,,,,,,,8,2,34,2,,,,,,,,,228.86148100008722,,,,,,,,,,,,,,,,,,,,,,,,,,,,,,,,,,228.8458901999984,228.86148100008722,229.3452646000078,229.3452646000078,229.3452646000078,229.3452646000078,229.3617788000265,229.64524500002153,229.64524500002153,229.64524500002153,230.09643580007832,m,0.7456292000133544,None,230.09686340007465,230.11238780000713,231.11268210003618,231.09652790008113,,,,,,,,,,,,,,,,,,,,,,,,,,,,,,,,,,,,,,,,,,,,,,,,,,,,,,,,,,,,,,,,,,,,,,,,,,,,,,,,,,,,,B_7,001,2024-11-28_14h04.40.870,untitled,2024.1.5,None,2024-11-28 14h04.53.731221 +0530,
square.png,you,1,M,,,,,,,,,8,3,35,0,,,,,,,,,231.11268210003618,,,,,,,,,,,,,,,,,,,,,,,,,,,,,,,,,,231.09687450004276,231.11268210003618,231.59659349999856,231.59659349999856,231.59659349999856,231.59659349999856,231.6132127000019,231.89656620007008,231.89656620007008,231.89656620007008,232.0307367000496,m,0.4266321000177413,None,232.03116740006953,232.04674710007384,233.04699590010568,233.0308645000914,,,,,,,,,,,,,,,,,,,,,,,,,,,,,,,,,,,,,,,,,,,,,,,,,,,,,,,,,,,,,,,,,,,,,,,,,,,,,,,,,,,,,B_7,001,2024-11-28_14h04.40.870,untitled,2024.1.5,None,2024-11-28 14h04.53.731221 +0530,
triangle.png,you,0,Z,,,,,,,,,9,0,36,3,,,,,,,,,233.04699590010568,,,,,,,,,,,,,,,,,,,,,,,,,,,,,,,,,,233.03121240006294,233.04699590010568,233.53090030001476,233.53090030001476,233.53090030001476,233.53090030001476,233.5474419000093,233.83071610005572,233.83071610005572,233.83071610005572,234.03167910000775,m,0.4886568000074476,None,234.0320966000436,234.04771050007548,235.04794680001214,235.03198259999044,,,,,,,,,,,,,,,,,,,,,,,,,,,,,,,,,,,,,,,,,,,,,,,,,,,,,,,,,,,,,,,,,,,,,,,,,,,,,,,,,,,,,B_7,001,2024-11-28_14h04.40.870,untitled,2024.1.5,None,2024-11-28 14h04.53.731221 +0530,
square.png,you,1,M,,,,,,,,,9,1,37,0,,,,,,,,,235.04794680001214,,,,,,,,,,,,,,,,,,,,,,,,,,,,,,,,,,235.03233469999395,235.04794680001214,235.53173130005598,235.53173130005598,235.53173130005598,235.53173130005598,235.5484851000365,235.83173289999831,235.83173289999831,235.83173289999831,236.19923490006477,m,0.6600688999751583,None,236.19966899999417,236.21525420004036,237.21604339999612,237.19959180010483,,,,,,,,,,,,,,,,,,,,,,,,,,,,,,,,,,,,,,,,,,,,,,,,,,,,,,,,,,,,,,,,,,,,,,,,,,,,,,,,,,,,,B_7,001,2024-11-28_14h04.40.870,untitled,2024.1.5,None,2024-11-28 14h04.53.731221 +0530,
triangle.png,stranger,1,M,,,,,,,,,9,2,38,1,,,,,,,,,237.21604339999612,,,,,,,,,,,,,,,,,,,,,,,,,,,,,,,,,,237.19993610004894,237.21604339999612,237.69972160004545,237.69972160004545,237.69972160004545,237.69972160004545,237.7163617000915,237.99968740006443,237.99968740006443,237.99968740006443,238.08358870004304,z,0.38233960000798106,None,238.08401009999216,238.09978899999987,239.10016630007885,239.08407800004352,,,,,,,,,,,,,,,,,,,,,,,,,,,,,,,,,,,,,,,,,,,,,,,,,,,,,,,,,,,,,,,,,,,,,,,,,,,,,,,,,,,,,B_7,001,2024-11-28_14h04.40.870,untitled,2024.1.5,None,2024-11-28 14h04.53.731221 +0530,
square.png,stranger,0,Z,,,,,,,,,9,3,39,2,,,,,,,,,239.10016630007885,,,,,,,,,,,,,,,,,,,,,,,,,,,,,,,,,,239.08443000004627,239.10016630007885,239.58379820000846,239.58379820000846,239.58379820000846,239.58379820000846,239.60068660008255,239.88387290004175,239.88387290004175,239.88387290004175,240.33486530010123,z,0.7438736000331119,None,240.33529130008537,240.35066790005658,241.3513250000542,241.3350760000758,,,,,,,,,,,,,,,,,,,,,,,,,,,,,,,,,,,,,,,,,,,,,,,,,,,,,,,,,,,,,,,,,,,,,,,,,,,,,,,,,,,,,B_7,001,2024-11-28_14h04.40.870,untitled,2024.1.5,None,2024-11-28 14h04.53.731221 +0530,
square.png,you,1,M,,,,,,,,,10,0,40,0,,,,,,,,,241.3513250000542,,,,,,,,,,,,,,,,,,,,,,,,,,,,,,,,,,241.3354281000793,241.3513250000542,241.83496670005843,241.83496670005843,241.83496670005843,241.83496670005843,241.85174559999723,242.1353087000316,242.1353087000316,242.1353087000316,242.50266030000057,m,0.655093599925749,None,242.5030869001057,242.51844810007606,243.51916200004052,243.5029086000286,,,,,,,,,,,,,,,,,,,,,,,,,,,,,,,,,,,,,,,,,,,,,,,,,,,,,,,,,,,,,,,,,,,,,,,,,,,,,,,,,,,,,B_7,001,2024-11-28_14h04.40.870,untitled,2024.1.5,None,2024-11-28 14h04.53.731221 +0530,
triangle.png,you,0,Z,,,,,,,,,10,1,41,3,,,,,,,,,243.51916200004052,,,,,,,,,,,,,,,,,,,,,,,,,,,,,,,,,,243.50325599999633,243.51916200004052,244.00299080007244,244.00299080007244,244.00299080007244,244.00299080007244,244.01936840009876,244.30271960003302,244.30271960003302,244.30271960003302,244.98737660003826,z,0.9718914999393746,None,244.98780280002393,245.00336930004414,246.0039376000641,245.98767410009168,,,,,,,,,,,,,,,,,,,,,,,,,,,,,,,,,,,,,,,,,,,,,,,,,,,,,,,,,,,,,,,,,,,,,,,,,,,,,,,,,,,,,B_7,001,2024-11-28_14h04.40.870,untitled,2024.1.5,None,2024-11-28 14h04.53.731221 +0530,
square.png,stranger,0,Z,,,,,,,,,10,2,42,2,,,,,,,,,246.0039376000641,,,,,,,,,,,,,,,,,,,,,,,,,,,,,,,,,,245.98802370007616,246.0039376000641,246.4875457000453,246.4875457000453,246.4875457000453,246.4875457000453,246.50392710010055,246.78741170000285,246.78741170000285,246.78741170000285,247.12184480007272,m,0.632104399963282,None,247.12232950003818,247.1377837000182,248.13816690002568,248.12178750010207,,,,,,,,,,,,,,,,,,,,,,,,,,,,,,,,,,,,,,,,,,,,,,,,,,,,,,,,,,,,,,,,,,,,,,,,,,,,,,,,,,,,,B_7,001,2024-11-28_14h04.40.870,untitled,2024.1.5,None,2024-11-28 14h04.53.731221 +0530,
triangle.png,stranger,1,M,,,,,,,,,10,3,43,1,,,,,,,,,248.13816690002568,,,,,,,,,,,,,,,,,,,,,,,,,,,,,,,,,,248.12214120000135,248.13816690002568,248.62169699999504,248.62169699999504,248.62169699999504,248.62169699999504,248.63830930006225,248.92197840008885,248.92197840008885,248.92197840008885,249.70599400007632,None,,,249.70618280000053,249.72238380007911,250.72270270006265,250.7064864001004,249.72238380007911,,,,,,,,,,,,,,,,,,,,,,,,,,,,,,,,,,,,,,,,,,,,,,,,,,,,,,,,,,,,,,,,,,,,,,,,,,,,,,,,,,,,B_7,001,2024-11-28_14h04.40.870,untitled,2024.1.5,None,2024-11-28 14h04.53.731221 +0530,
triangle.png,stranger,1,M,,,,,,,,,11,0,44,1,,,,,,,,,250.72270270006265,,,,,,,,,,,,,,,,,,,,,,,,,,,,,,,,,,250.70683889999054,250.72270270006265,251.22312880004756,251.22312880004756,251.22312880004756,251.22312880004756,251.22312880004756,251.5230598000344,251.5230598000344,251.5230598000344,251.69064780010376,m,0.4556826000334695,None,251.69114940008149,251.70666980009992,252.70727620006073,252.6908148000948,,,,,,,,,,,,,,,,,,,,,,,,,,,,,,,,,,,,,,,,,,,,,,,,,,,,,,,,,,,,,,,,,,,,,,,,,,,,,,,,,,,,,B_7,001,2024-11-28_14h04.40.870,untitled,2024.1.5,None,2024-11-28 14h04.53.731221 +0530,
square.png,you,1,M,,,,,,,,,11,1,45,0,,,,,,,,,252.70727620006073,,,,,,,,,,,,,,,,,,,,,,,,,,,,,,,,,,252.69115600001533,252.70727620006073,253.1907900000224,253.1907900000224,253.1907900000224,253.1907900000224,253.2073834000621,253.49082470010035,253.49082470010035,253.49082470010035,253.75858760008123,m,0.5600965999765322,None,253.75901310006157,253.77448140003253,254.77499730000272,254.75867090001702,,,,,,,,,,,,,,,,,,,,,,,,,,,,,,,,,,,,,,,,,,,,,,,,,,,,,,,,,,,,,,,,,,,,,,,,,,,,,,,,,,,,,B_7,001,2024-11-28_14h04.40.870,untitled,2024.1.5,None,2024-11-28 14h04.53.731221 +0530,
triangle.png,you,0,Z,,,,,,,,,11,2,46,3,,,,,,,,,254.77499730000272,,,,,,,,,,,,,,,,,,,,,,,,,,,,,,,,,,254.75901130004786,254.77499730000272,255.25882370001636,255.25882370001636,255.25882370001636,255.25882370001636,255.27539880003314,255.55849790002685,255.55849790002685,255.55849790002685,255.70942560001276,z,0.43539900006726384,None,255.7098510999931,255.7253364000935,256.72587750002276,256.70980620000046,,,,,,,,,,,,,,,,,,,,,,,,,,,,,,,,,,,,,,,,,,,,,,,,,,,,,,,,,,,,,,,,,,,,,,,,,,,,,,,,,,,,,B_7,001,2024-11-28_14h04.40.870,untitled,2024.1.5,None,2024-11-28 14h04.53.731221 +0530,
square.png,stranger,0,Z,,,,,,,,,11,3,47,2,,,,,,,,,256.72587750002276,,,,,,,,,,,,,,,,,,,,,,,,,,,,,,,,,,256.7101523000747,256.72587750002276,257.20987190003507,257.20987190003507,257.20987190003507,257.20987190003507,257.2261043000035,257.5097745000385,257.5097745000385,257.5097745000385,258.0441620000638,z,0.8296406000154093,None,258.04458900005557,258.059971800074,259.06037320010364,259.0440617999993,,,,,,,,,,,,,,,,,,,,,,,,,,,,,,,,,,,,,,,,,,,,,,,,,,,,,,,,,,,,,,,,,,,,,,,,,,,,,,,,,,,,,B_7,001,2024-11-28_14h04.40.870,untitled,2024.1.5,None,2024-11-28 14h04.53.731221 +0530,
triangle.png,you,0,Z,,,,,,,,,12,0,48,3,,,,,,,,,259.06037320010364,,,,,,,,,,,,,,,,,,,,,,,,,,,,,,,,,,259.04440770007204,259.06037320010364,259.5442632000195,259.5442632000195,259.5442632000195,259.5442632000195,259.56074179999996,259.8442672000965,259.8442672000965,259.8442672000965,260.32876890001353,z,0.7825183999957517,None,260.3291939001065,260.3444881000323,261.3450558000477,261.32877430005465,,,,,,,,,,,,,,,,,,,,,,,,,,,,,,,,,,,,,,,,,,,,,,,,,,,,,,,,,,,,,,,,,,,,,,,,,,,,,,,,,,,,,B_7,001,2024-11-28_14h04.40.870,untitled,2024.1.5,None,2024-11-28 14h04.53.731221 +0530,
square.png,stranger,0,Z,,,,,,,,,12,1,49,2,,,,,,,,,261.3450558000477,,,,,,,,,,,,,,,,,,,,,,,,,,,,,,,,,,261.3291237000376,261.3450558000477,261.8285494000884,261.8285494000884,261.8285494000884,261.8285494000884,261.8453722000122,262.12860500009265,262.12860500009265,262.12860500009265,262.4462802000344,m,0.610253700055182,None,262.4467014000984,262.4621232000645,263.46266210009344,263.44623080000747,,,,,,,,,,,,,,,,,,,,,,,,,,,,,,,,,,,,,,,,,,,,,,,,,,,,,,,,,,,,,,,,,,,,,,,,,,,,,,,,,,,,,B_7,001,2024-11-28_14h04.40.870,untitled,2024.1.5,None,2024-11-28 14h04.53.731221 +0530,
square.png,you,1,M,,,,,,,,,12,2,50,0,,,,,,,,,263.46266210009344,,,,,,,,,,,,,,,,,,,,,,,,,,,,,,,,,,263.4465816000011,263.46266210009344,263.9461873000255,263.9461873000255,263.9461873000255,263.9461873000255,263.96299300005194,264.2463835000526,264.2463835000526,264.2463835000526,264.61385110008996,m,0.6566080000484362,None,264.6142678000033,264.63009450002573,265.630350499996,265.6142766000703,,,,,,,,,,,,,,,,,,,,,,,,,,,,,,,,,,,,,,,,,,,,,,,,,,,,,,,,,,,,,,,,,,,,,,,,,,,,,,,,,,,,,B_7,001,2024-11-28_14h04.40.870,untitled,2024.1.5,None,2024-11-28 14h04.53.731221 +0530,
triangle.png,stranger,1,M,,,,,,,,,12,3,51,1,,,,,,,,,265.630350499996,,,,,,,,,,,,,,,,,,,,,,,,,,,,,,,,,,265.6146497000009,265.630350499996,266.1142166000791,266.1142166000791,266.1142166000791,266.1142166000791,266.1307081000414,266.41431650007144,266.41431650007144,266.41431650007144,266.89870850008447,m,0.7799714999273419,None,266.899131400045,266.9148209000705,267.91488769999705,267.898625300033,,,,,,,,,,,,,,,,,,,,,,,,,,,,,,,,,,,,,,,,,,,,,,,,,,,,,,,,,,,,,,,,,,,,,,,,,,,,,,,,,,,,,B_7,001,2024-11-28_14h04.40.870,untitled,2024.1.5,None,2024-11-28 14h04.53.731221 +0530,
triangle.png,you,0,Z,,,,,,,,,13,0,52,3,,,,,,,,,267.91488769999705,,,,,,,,,,,,,,,,,,,,,,,,,,,,,,,,,,267.8989736000076,267.91488769999705,268.3987928000279,268.3987928000279,268.3987928000279,268.3987928000279,268.4154738000361,268.698595300084,268.698595300084,268.698595300084,269.2331696000183,z,0.8322498999768868,None,269.2336267000064,269.2491283999989,270.24969200009946,270.2331709000282,,,,,,,,,,,,,,,,,,,,,,,,,,,,,,,,,,,,,,,,,,,,,,,,,,,,,,,,,,,,,,,,,,,,,,,,,,,,,,,,,,,,,B_7,001,2024-11-28_14h04.40.870,untitled,2024.1.5,None,2024-11-28 14h04.53.731221 +0530,
square.png,you,1,M,,,,,,,,,13,1,53,0,,,,,,,,,270.24969200009946,,,,,,,,,,,,,,,,,,,,,,,,,,,,,,,,,,270.2335199000081,270.24969200009946,270.7330817000475,270.7330817000475,270.7330817000475,270.7330817000475,270.749746000045,271.0333970000502,271.0333970000502,271.0333970000502,271.4007634000154,m,0.6627468999940902,None,271.40118170005735,271.41691610007547,272.4174989000894,272.40115060005337,,,,,,,,,,,,,,,,,,,,,,,,,,,,,,,,,,,,,,,,,,,,,,,,,,,,,,,,,,,,,,,,,,,,,,,,,,,,,,,,,,,,,B_7,001,2024-11-28_14h04.40.870,untitled,2024.1.5,None,2024-11-28 14h04.53.731221 +0530,
square.png,stranger,0,Z,,,,,,,,,13,2,54,2,,,,,,,,,272.4174989000894,,,,,,,,,,,,,,,,,,,,,,,,,,,,,,,,,,272.40149970003404,272.4174989000894,272.9010282000527,272.9010282000527,272.9010282000527,272.9010282000527,272.9176275000209,273.2008884000825,273.2008884000825,273.2008884000825,273.9852053000359,None,,,273.9853937000735,274.0013342000311,275.00188780005556,274.98554040002637,274.0013342000311,,,,,,,,,,,,,,,,,,,,,,,,,,,,,,,,,,,,,,,,,,,,,,,,,,,,,,,,,,,,,,,,,,,,,,,,,,,,,,,,,,,,B_7,001,2024-11-28_14h04.40.870,untitled,2024.1.5,None,2024-11-28 14h04.53.731221 +0530,
triangle.png,stranger,1,M,,,,,,,,,13,3,55,1,,,,,,,,,275.00188780005556,,,,,,,,,,,,,,,,,,,,,,,,,,,,,,,,,,274.98588819999713,275.00188780005556,275.5023922000546,275.5023922000546,275.5023922000546,275.5023922000546,275.5023922000546,275.8023696000455,275.8023696000455,275.8023696000455,276.2533286000835,z,0.7358199999434873,None,276.2537588000996,276.2691305000335,277.26989830005914,277.25337730010506,,,,,,,,,,,,,,,,,,,,,,,,,,,,,,,,,,,,,,,,,,,,,,,,,,,,,,,,,,,,,,,,,,,,,,,,,,,,,,,,,,,,,B_7,001,2024-11-28_14h04.40.870,untitled,2024.1.5,None,2024-11-28 14h04.53.731221 +0530,
square.png,you,1,M,,,,,,,,,14,0,56,0,,,,,,,,,277.26989830005914,,,,,,,,,,,,,,,,,,,,,,,,,,,,,,,,,,277.2537251000758,277.26989830005914,277.75373590004165,277.75373590004165,277.75373590004165,277.75373590004165,277.77033090009354,278.05348690005485,278.05348690005485,278.05348690005485,278.2878806000808,m,0.5296015999047086,None,278.2883039000444,278.3037634000648,279.30419610009994,279.28789110004436,,,,,,,,,,,,,,,,,,,,,,,,,,,,,,,,,,,,,,,,,,,,,,,,,,,,,,,,,,,,,,,,,,,,,,,,,,,,,,,,,,,,,B_7,001,2024-11-28_14h04.40.870,untitled,2024.1.5,None,2024-11-28 14h04.53.731221 +0530,
triangle.png,stranger,1,M,,,,,,,,,14,1,57,1,,,,,,,,,279.30419610009994,,,,,,,,,,,,,,,,,,,,,,,,,,,,,,,,,,279.28827350004576,279.30419610009994,279.7879344000248,279.7879344000248,279.7879344000248,279.7879344000248,279.80454740009736,280.08800950006116,280.08800950006116,280.08800950006116,280.5054114999948,z,0.7141747999703512,None,280.5058499000734,280.5215540000936,281.5220455999952,281.5059605001006,,,,,,,,,,,,,,,,,,,,,,,,,,,,,,,,,,,,,,,,,,,,,,,,,,,,,,,,,,,,,,,,,,,,,,,,,,,,,,,,,,,,,B_7,001,2024-11-28_14h04.40.870,untitled,2024.1.5,None,2024-11-28 14h04.53.731221 +0530,
square.png,stranger,0,Z,,,,,,,,,14,2,58,2,,,,,,,,,281.5220455999952,,,,,,,,,,,,,,,,,,,,,,,,,,,,,,,,,,281.5063013000181,281.5220455999952,282.00587940006517,282.00587940006517,282.00587940006517,282.00587940006517,282.0222101000836,282.3058269000612,282.3058269000612,282.3058269000612,282.706616200041,m,0.6923893999774009,None,282.7070416000206,282.72259530005977,283.7230190000264,283.7067765000975,,,,,,,,,,,,,,,,,,,,,,,,,,,,,,,,,,,,,,,,,,,,,,,,,,,,,,,,,,,,,,,,,,,,,,,,,,,,,,,,,,,,,B_7,001,2024-11-28_14h04.40.870,untitled,2024.1.5,None,2024-11-28 14h04.53.731221 +0530,
triangle.png,you,0,Z,,,,,,,,,14,3,59,3,,,,,,,,,283.7230190000264,,,,,,,,,,,,,,,,,,,,,,,,,,,,,,,,,,283.7071239000652,283.7230190000264,284.2068421000149,284.2068421000149,284.2068421000149,284.2068421000149,284.2233642000938,284.50669390009716,284.50669390009716,284.50669390009716,284.65757250005845,m,0.447311699972488,None,284.65799500001594,284.67380390001927,285.6740359000396,285.65785529999994,,,,,,,,,,,,,,,,,,,,,,,,,,,,,,,,,,,,,,,,,,,,,,,,,,,,,,,,,,,,,,,,,,,,,,,,,,,,,,,,,,,,,B_7,001,2024-11-28_14h04.40.870,untitled,2024.1.5,None,2024-11-28 14h04.53.731221 +0530,
triangle.png,stranger,1,M,,,,,,,,,15,0,60,1,,,,,,,,,285.6740359000396,,,,,,,,,,,,,,,,,,,,,,,,,,,,,,,,,,285.65820170007646,285.6740359000396,286.15767360001337,286.15767360001337,286.15767360001337,286.15767360001337,286.174522300018,286.45770640007686,286.45770640007686,286.45770640007686,286.592065700097,m,0.4331298000179231,None,286.5924893000629,286.6080356000457,287.60846700007096,287.59213670005556,,,,,,,,,,,,,,,,,,,,,,,,,,,,,,,,,,,,,,,,,,,,,,,,,,,,,,,,,,,,,,,,,,,,,,,,,,,,,,,,,,,,,B_7,001,2024-11-28_14h04.40.870,untitled,2024.1.5,None,2024-11-28 14h04.53.731221 +0530,
square.png,you,1,M,,,,,,,,,15,1,61,0,,,,,,,,,287.60846700007096,,,,,,,,,,,,,,,,,,,,,,,,,,,,,,,,,,287.592483800021,287.60846700007096,288.09232070005964,288.09232070005964,288.09232070005964,288.09232070005964,288.1086901000235,288.39226570003666,288.39226570003666,288.39226570003666,288.60969390009996,m,0.5025591999292374,None,288.61011610005517,288.62552460003644,289.6263377000578,289.60989469999913,,,,,,,,,,,,,,,,,,,,,,,,,,,,,,,,,,,,,,,,,,,,,,,,,,,,,,,,,,,,,,,,,,,,,,,,,,,,,,,,,,,,,B_7,001,2024-11-28_14h04.40.870,untitled,2024.1.5,None,2024-11-28 14h04.53.731221 +0530,
square.png,stranger,0,Z,,,,,,,,,15,2,62,2,,,,,,,,,289.6263377000578,,,,,,,,,,,,,,,,,,,,,,,,,,,,,,,,,,289.61024080007337,289.6263377000578,290.10977020009886,290.10977020009886,290.10977020009886,290.10977020009886,290.1265845000744,290.4100218000822,290.4100218000822,290.4100218000822,290.9276979001006,z,0.8058010000968352,None,290.9281233000802,290.9435353000881,291.9441494999919,291.92772860010155,,,,,,,,,,,,,,,,,,,,,,,,,,,,,,,,,,,,,,,,,,,,,,,,,,,,,,,,,,,,,,,,,,,,,,,,,,,,,,,,,,,,,B_7,001,2024-11-28_14h04.40.870,untitled,2024.1.5,None,2024-11-28 14h04.53.731221 +0530,
triangle.png,you,0,Z,,,,,,,,,15,3,63,3,,,,,,,,,291.9441494999919,,,,,,,,,,,,,,,,,,,,,,,,,,,,,,,,,,291.92807370005175,291.9441494999919,292.4274880000157,292.4274880000157,292.4274880000157,292.4274880000157,292.4443584000692,292.72768860007636,292.72768860007636,292.72768860007636,293.14523820008617,z,0.7114496999420226,None,293.14568970003165,293.161494400003,294.16168830008246,294.1456304000458,,,,,,,,,,,,,,,,,,,,,,,,,,,,,,,,,,,,,,,,,,,,,,,,,,,,,,,,,,,,,,,,,,,,,,,,,,,,,,,,,,,,,B_7,001,2024-11-28_14h04.40.870,untitled,2024.1.5,None,2024-11-28 14h04.53.731221 +0530,
triangle.png,you,0,Z,,,,,,,,,16,0,64,3,,,,,,,,,294.16168830008246,,,,,,,,,,,,,,,,,,,,,,,,,,,,,,,,,,294.14598310005385,294.16168830008246,294.6457264000783,294.6457264000783,294.6457264000783,294.6457264000783,294.66202410007827,294.9454214000143,294.9454214000143,294.9454214000143,295.37965570006054,z,0.7295794999226928,None,295.38009830005467,295.3958304000553,296.3963688000804,296.3801324000815,,,,,,,,,,,,,,,,,,,,,,,,,,,,,,,,,,,,,,,,,,,,,,,,,,,,,,,,,,,,,,,,,,,,,,,,,,,,,,,,,,,,,B_7,001,2024-11-28_14h04.40.870,untitled,2024.1.5,None,2024-11-28 14h04.53.731221 +0530,
triangle.png,stranger,1,M,,,,,,,,,16,1,65,1,,,,,,,,,296.3963688000804,,,,,,,,,,,,,,,,,,,,,,,,,,,,,,,,,,296.38048020005226,296.3963688000804,296.87990950001404,296.87990950001404,296.87990950001404,296.87990950001404,296.89678340009414,297.18004180002026,297.18004180002026,297.18004180002026,297.74779779999517,m,0.8595013000303879,None,297.7482272000052,297.7635325000156,298.76421200006735,298.74791740009096,,,,,,,,,,,,,,,,,,,,,,,,,,,,,,,,,,,,,,,,,,,,,,,,,,,,,,,,,,,,,,,,,,,,,,,,,,,,,,,,,,,,,B_7,001,2024-11-28_14h04.40.870,untitled,2024.1.5,None,2024-11-28 14h04.53.731221 +0530,
square.png,you,1,M,,,,,,,,,16,2,66,0,,,,,,,,,298.76421200006735,,,,,,,,,,,,,,,,,,,,,,,,,,,,,,,,,,298.74827129999176,298.76421200006735,299.24805350007955,299.24805350007955,299.24805350007955,299.24805350007955,299.2645642000716,299.54791240009945,299.54791240009945,299.54791240009945,300.0824066000059,m,0.818011499941349,None,300.0828295000829,300.09836060006637,301.0986200000625,301.0826556000393,,,,,,,,,,,,,,,,,,,,,,,,,,,,,,,,,,,,,,,,,,,,,,,,,,,,,,,,,,,,,,,,,,,,,,,,,,,,,,,,,,,,,B_7,001,2024-11-28_14h04.40.870,untitled,2024.1.5,None,2024-11-28 14h04.53.731221 +0530,
square.png,stranger,0,Z,,,,,,,,,16,3,67,2,,,,,,,,,301.0986200000625,,,,,,,,,,,,,,,,,,,,,,,,,,,,,,,,,,301.0830075000413,301.0986200000625,301.58235200005583,301.58235200005583,301.58235200005583,301.58235200005583,301.5993320000125,301.88249490002636,301.88249490002636,301.88249490002636,302.4502276000567,z,0.8612663999665529,None,302.4506544000469,302.46611870010383,303.4666046000784,303.4504457000876,,,,,,,,,,,,,,,,,,,,,,,,,,,,,,,,,,,,,,,,,,,,,,,,,,,,,,,,,,,,,,,,,,,,,,,,,,,,,,,,,,,,,B_7,001,2024-11-28_14h04.40.870,untitled,2024.1.5,None,2024-11-28 14h04.53.731221 +0530,
square.png,stranger,0,Z,,,,,,,,,17,0,68,2,,,,,,,,,303.4666046000784,,,,,,,,,,,,,,,,,,,,,,,,,,,,,,,,,,303.45079840009566,303.4666046000784,303.95010320004076,303.95010320004076,303.95010320004076,303.95010320004076,303.96705090010073,304.2503646000987,304.2503646000987,304.2503646000987,304.7845855000196,z,0.8213652999838814,None,304.78500740008894,304.8004871000303,305.8012442000909,305.78507650003303,,,,,,,,,,,,,,,,,,,,,,,,,,,,,,,,,,,,,,,,,,,,,,,,,,,,,,,,,,,,,,,,,,,,,,,,,,,,,,,,,,,,,B_7,001,2024-11-28_14h04.40.870,untitled,2024.1.5,None,2024-11-28 14h04.53.731221 +0530,
triangle.png,you,0,Z,,,,,,,,,17,1,69,3,,,,,,,,,305.8012442000909,,,,,,,,,,,,,,,,,,,,,,,,,,,,,,,,,,305.78542309999466,305.8012442000909,306.2849376000231,306.2849376000231,306.2849376000231,306.2849376000231,306.30129630002193,306.58493140002247,306.58493140002247,306.58493140002247,307.05240650009364,z,0.7539320000214502,None,307.052825700026,307.068508700002,308.06913210009225,308.0525393000571,,,,,,,,,,,,,,,,,,,,,,,,,,,,,,,,,,,,,,,,,,,,,,,,,,,,,,,,,,,,,,,,,,,,,,,,,,,,,,,,,,,,,B_7,001,2024-11-28_14h04.40.870,untitled,2024.1.5,None,2024-11-28 14h04.53.731221 +0530,
triangle.png,stranger,1,M,,,,,,,,,17,2,70,1,,,,,,,,,308.06913210009225,,,,,,,,,,,,,,,,,,,,,,,,,,,,,,,,,,308.05289340007585,308.06913210009225,308.5528459000634,308.5528459000634,308.5528459000634,308.5528459000634,308.56920970010106,308.85283480002545,308.85283480002545,308.85283480002545,309.3535814000061,m,0.7986596999689937,None,309.3540054000914,309.36953460006043,310.3700964000309,310.3537764000939,,,,,,,,,,,,,,,,,,,,,,,,,,,,,,,,,,,,,,,,,,,,,,,,,,,,,,,,,,,,,,,,,,,,,,,,,,,,,,,,,,,,,B_7,001,2024-11-28_14h04.40.870,untitled,2024.1.5,None,2024-11-28 14h04.53.731221 +0530,
square.png,you,1,M,,,,,,,,,17,3,71,0,,,,,,,,,310.3700964000309,,,,,,,,,,,,,,,,,,,,,,,,,,,,,,,,,,310.35412900010124,310.3700964000309,310.8538100000005,310.8538100000005,310.8538100000005,310.8538100000005,310.8705717000412,311.1539856001036,311.1539856001036,311.1539856001036,311.5882027000189,m,0.72554020001553,None,311.58862709999084,311.60417760000564,312.60450750007294,312.5885486000916,,,,,,,,,,,,,,,,,,,,,,,,,,,,,,,,,,,,,,,,,,,,,,,,,,,,,,,,,,,,,,,,,,,,,,,,,,,,,,,,,,,,,B_7,001,2024-11-28_14h04.40.870,untitled,2024.1.5,None,2024-11-28 14h04.53.731221 +0530,
triangle.png,stranger,1,M,,,,,,,,,18,0,72,1,,,,,,,,,312.60450750007294,,,,,,,,,,,,,,,,,,,,,,,,,,,,,,,,,,312.5888984000776,312.60450750007294,313.08855440001935,313.08855440001935,313.08855440001935,313.08855440001935,313.10488810006063,313.3883288000943,313.3883288000943,313.3883288000943,313.9393817000091,m,0.8356087000574917,None,313.93980000005104,313.95520680001937,314.95598120009527,314.9394376000855,,,,,,,,,,,,,,,,,,,,,,,,,,,,,,,,,,,,,,,,,,,,,,,,,,,,,,,,,,,,,,,,,,,,,,,,,,,,,,,,,,,,,B_7,001,2024-11-28_14h04.40.870,untitled,2024.1.5,None,2024-11-28 14h04.53.731221 +0530,
square.png,stranger,0,Z,,,,,,,,,18,1,73,2,,,,,,,,,314.95598120009527,,,,,,,,,,,,,,,,,,,,,,,,,,,,,,,,,,314.9397825000342,314.95598120009527,315.43963070004247,315.43963070004247,315.43963070004247,315.43963070004247,315.45635840005707,315.73971400002483,315.73971400002483,315.73971400002483,316.2239009999903,z,0.775711499969475,None,316.2243209000444,316.23987620009575,317.2403262000298,317.2238651000662,,,,,,,,,,,,,,,,,,,,,,,,,,,,,,,,,,,,,,,,,,,,,,,,,,,,,,,,,,,,,,,,,,,,,,,,,,,,,,,,,,,,,B_7,001,2024-11-28_14h04.40.870,untitled,2024.1.5,None,2024-11-28 14h04.53.731221 +0530,
triangle.png,you,0,Z,,,,,,,,,18,2,74,3,,,,,,,,,317.2403262000298,,,,,,,,,,,,,,,,,,,,,,,,,,,,,,,,,,317.22421810007654,317.2403262000298,317.7239574000705,317.7239574000705,317.7239574000705,317.7239574000705,317.740686400095,318.0240027999971,318.0240027999971,318.0240027999971,318.69179760001134,z,0.9557075999910012,None,318.6922182000708,318.70787200005725,319.70816899999045,319.69223280006554,,,,,,,,,,,,,,,,,,,,,,,,,,,,,,,,,,,,,,,,,,,,,,,,,,,,,,,,,,,,,,,,,,,,,,,,,,,,,,,,,,,,,B_7,001,2024-11-28_14h04.40.870,untitled,2024.1.5,None,2024-11-28 14h04.53.731221 +0530,
square.png,you,1,M,,,,,,,,,18,3,75,0,,,,,,,,,319.70816899999045,,,,,,,,,,,,,,,,,,,,,,,,,,,,,,,,,,319.6925809000386,319.70816899999045,320.19202090008184,320.19202090008184,320.19202090008184,320.19202090008184,320.20878820004873,320.4920300000813,320.4920300000813,320.4920300000813,320.8262100000866,m,0.6309520999202505,None,320.826638400089,320.8422367000021,321.84256910008844,321.8263484000927,,,,,,,,,,,,,,,,,,,,,,,,,,,,,,,,,,,,,,,,,,,,,,,,,,,,,,,,,,,,,,,,,,,,,,,,,,,,,,,,,,,,,B_7,001,2024-11-28_14h04.40.870,untitled,2024.1.5,None,2024-11-28 14h04.53.731221 +0530,
triangle.png,stranger,1,M,,,,,,,,,19,0,76,1,,,,,,,,,321.84256910008844,,,,,,,,,,,,,,,,,,,,,,,,,,,,,,,,,,321.82669620006345,321.84256910008844,322.3265237000305,322.3265237000305,322.3265237000305,322.3265237000305,322.3429637000663,322.62631890003104,322.62631890003104,322.62631890003104,323.06068210001104,m,0.7282679000636563,None,323.0611203000881,323.0766485000495,324.0772321000695,324.0609671000857,,,,,,,,,,,,,,,,,,,,,,,,,,,,,,,,,,,,,,,,,,,,,,,,,,,,,,,,,,,,,,,,,,,,,,,,,,,,,,,,,,,,,B_7,001,2024-11-28_14h04.40.870,untitled,2024.1.5,None,2024-11-28 14h04.53.731221 +0530,
square.png,you,1,M,,,,,,,,,19,1,77,0,,,,,,,,,324.0772321000695,,,,,,,,,,,,,,,,,,,,,,,,,,,,,,,,,,324.0613101000199,324.0772321000695,324.5608126000734,324.5608126000734,324.5608126000734,324.5608126000734,324.5773853000719,324.86070240009576,324.86070240009576,324.86070240009576,325.411913500051,m,0.8377957999473438,None,325.41235120000783,325.4277854000684,326.42827190004755,326.41205849999096,,,,,,,,,,,,,,,,,,,,,,,,,,,,,,,,,,,,,,,,,,,,,,,,,,,,,,,,,,,,,,,,,,,,,,,,,,,,,,,,,,,,,B_7,001,2024-11-28_14h04.40.870,untitled,2024.1.5,None,2024-11-28 14h04.53.731221 +0530,
triangle.png,you,0,Z,,,,,,,,,19,2,78,3,,,,,,,,,326.42827190004755,,,,,,,,,,,,,,,,,,,,,,,,,,,,,,,,,,326.41240650007967,326.42827190004755,326.91196260007564,326.91196260007564,326.91196260007564,326.91196260007564,326.9288596000988,327.21199400001206,327.21199400001206,327.21199400001206,327.69644950004295,z,0.7753741999622434,None,327.69687900005374,327.71229779999703,328.7129799000686,328.6967322001001,,,,,,,,,,,,,,,,,,,,,,,,,,,,,,,,,,,,,,,,,,,,,,,,,,,,,,,,,,,,,,,,,,,,,,,,,,,,,,,,,,,,,B_7,001,2024-11-28_14h04.40.870,untitled,2024.1.5,None,2024-11-28 14h04.53.731221 +0530,
square.png,stranger,0,Z,,,,,,,,,19,3,79,2,,,,,,,,,328.7129799000686,,,,,,,,,,,,,,,,,,,,,,,,,,,,,,,,,,328.69708080007695,328.7129799000686,329.1964093000861,329.1964093000861,329.1964093000861,329.1964093000861,329.2133202000987,329.49649600009434,329.49649600009434,329.49649600009434,330.0308288000524,m,0.8309538000030443,None,330.03125970007386,330.04681690002326,331.04742519999854,331.0311346000526,,,,,,,,,,,,,,,,,,,,,,,,,,,,,,,,,,,,,,,,,,,,,,,,,,,,,,,,,,,,,,,,,,,,,,,,,,,,,,,,,,,,,B_7,001,2024-11-28_14h04.40.870,untitled,2024.1.5,None,2024-11-28 14h04.53.731221 +0530,
triangle.png,you,0,Z,,,,,,,,,20,0,80,3,,,,,,,,,331.04742519999854,,,,,,,,,,,,,,,,,,,,,,,,,,,,,,,,,,331.0314828000264,331.04742519999854,331.53123560000677,331.53123560000677,331.53123560000677,331.53123560000677,331.5476929000579,331.83124329999555,331.83124329999555,331.83124329999555,332.21530860010535,m,0.6724187000654638,None,332.2157325000735,332.2314775000559,333.23197060008533,333.2155793000711,,,,,,,,,,,,,,,,,,,,,,,,,,,,,,,,,,,,,,,,,,,,,,,,,,,,,,,,,,,,,,,,,,,,,,,,,,,,,,,,,,,,,B_7,001,2024-11-28_14h04.40.870,untitled,2024.1.5,None,2024-11-28 14h04.53.731221 +0530,
triangle.png,stranger,1,M,,,,,,,,,20,1,81,1,,,,,,,,,333.23197060008533,,,,,,,,,,,,,,,,,,,,,,,,,,,,,,,,,,333.2159294000594,333.23197060008533,333.71581800002605,333.71581800002605,333.71581800002605,333.71581800002605,333.7321321000345,334.0156364000868,334.0156364000868,334.0156364000868,334.7833938000258,m,1.055443000048399,None,334.78382370003965,334.79955660004634,335.79982280009426,335.78356890007854,,,,,,,,,,,,,,,,,,,,,,,,,,,,,,,,,,,,,,,,,,,,,,,,,,,,,,,,,,,,,,,,,,,,,,,,,,,,,,,,,,,,,B_7,001,2024-11-28_14h04.40.870,untitled,2024.1.5,None,2024-11-28 14h04.53.731221 +0530,
square.png,you,1,M,,,,,,,,,20,2,82,0,,,,,,,,,335.79982280009426,,,,,,,,,,,,,,,,,,,,,,,,,,,,,,,,,,335.78392020007595,335.79982280009426,336.28365910006687,336.28365910006687,336.28365910006687,336.28365910006687,336.30008000007365,336.58367790002376,336.58367790002376,336.58367790002376,336.8846332000103,m,0.5990359999705106,None,336.8850802000379,336.90047900006175,337.9010240000207,337.8846723000752,,,,,,,,,,,,,,,,,,,,,,,,,,,,,,,,,,,,,,,,,,,,,,,,,,,,,,,,,,,,,,,,,,,,,,,,,,,,,,,,,,,,,B_7,001,2024-11-28_14h04.40.870,untitled,2024.1.5,None,2024-11-28 14h04.53.731221 +0530,
square.png,stranger,0,Z,,,,,,,,,20,3,83,2,,,,,,,,,337.9010240000207,,,,,,,,,,,,,,,,,,,,,,,,,,,,,,,,,,337.8850203000475,337.9010240000207,338.3845608000411,338.3845608000411,338.3845608000411,338.3845608000411,338.40122200001497,338.68460710009094,338.68460710009094,338.68460710009094,339.20242220000364,z,0.8099036000203341,None,339.20285300002433,339.2181591000408,340.21889270003885,340.20249620010145,,,,,,,,,,,,,,,,,,,,,,,,,,,,,,,,,,,,,,,,,,,,,,,,,,,,,,,,,,,,,,,,,,,,,,,,,,,,,,,,,,,,,B_7,001,2024-11-28_14h04.40.870,untitled,2024.1.5,None,2024-11-28 14h04.53.731221 +0530,
triangle.png,stranger,1,M,,,,,,,,,21,0,84,1,,,,,,,,,340.21889270003885,,,,,,,,,,,,,,,,,,,,,,,,,,,,,,,,,,340.20284030004404,340.21889270003885,340.7023993000621,340.7023993000621,340.7023993000621,340.7023993000621,340.71928600000683,341.0024287000997,341.0024287000997,341.0024287000997,341.70373340009246,m,0.9971986999735236,None,341.70415620005224,341.71954010007903,342.72022000001743,342.70371790009085,,,,,,,,,,,,,,,,,,,,,,,,,,,,,,,,,,,,,,,,,,,,,,,,,,,,,,,,,,,,,,,,,,,,,,,,,,,,,,,,,,,,,B_7,001,2024-11-28_14h04.40.870,untitled,2024.1.5,None,2024-11-28 14h04.53.731221 +0530,
square.png,stranger,0,Z,,,,,,,,,21,1,85,2,,,,,,,,,342.72022000001743,,,,,,,,,,,,,,,,,,,,,,,,,,,,,,,,,,342.7040657000616,342.72022000001743,343.20409690006636,343.20409690006636,343.20409690006636,343.20409690006636,343.2205285000382,343.5037960000336,343.5037960000336,343.5037960000336,344.00492730003316,m,0.7951391999376938,None,344.00535059999675,344.02081130002625,345.021182000055,345.00496610009577,,,,,,,,,,,,,,,,,,,,,,,,,,,,,,,,,,,,,,,,,,,,,,,,,,,,,,,,,,,,,,,,,,,,,,,,,,,,,,,,,,,,,B_7,001,2024-11-28_14h04.40.870,untitled,2024.1.5,None,2024-11-28 14h04.53.731221 +0530,
square.png,you,1,M,,,,,,,,,21,2,86,0,,,,,,,,,345.021182000055,,,,,,,,,,,,,,,,,,,,,,,,,,,,,,,,,,345.0053156000795,345.021182000055,345.50499720009975,345.50499720009975,345.50499720009975,345.50499720009975,345.52170760009903,345.804862900055,345.804862900055,345.804862900055,346.23911600001156,m,0.7189931001048535,None,346.23953780008014,346.255286800093,347.25579280010425,347.2394174000947,,,,,,,,,,,,,,,,,,,,,,,,,,,,,,,,,,,,,,,,,,,,,,,,,,,,,,,,,,,,,,,,,,,,,,,,,,,,,,,,,,,,,B_7,001,2024-11-28_14h04.40.870,untitled,2024.1.5,None,2024-11-28 14h04.53.731221 +0530,
triangle.png,you,0,Z,,,,,,,,,21,3,87,3,,,,,,,,,347.25579280010425,,,,,,,,,,,,,,,,,,,,,,,,,,,,,,,,,,347.2397674000822,347.25579280010425,347.7397439000197,347.7397439000197,347.7397439000197,347.7397439000197,347.75599690002855,348.0394390000729,348.0394390000729,348.0394390000729,348.49040190002415,z,0.7391183000290766,None,348.4908277000068,348.5065026000375,349.5070712000597,349.4905091000255,,,,,,,,,,,,,,,,,,,,,,,,,,,,,,,,,,,,,,,,,,,,,,,,,,,,,,,,,,,,,,,,,,,,,,,,,,,,,,,,,,,,,B_7,001,2024-11-28_14h04.40.870,untitled,2024.1.5,None,2024-11-28 14h04.53.731221 +0530,
triangle.png,stranger,1,M,,,,,,,,,22,0,88,1,,,,,,,,,349.5070712000597,,,,,,,,,,,,,,,,,,,,,,,,,,,,,,,,,,349.49085130007006,349.5070712000597,349.9908607000252,349.9908607000252,349.9908607000252,349.9908607000252,350.0075165000744,350.2907928000204,350.2907928000204,350.2907928000204,350.8582667000592,m,0.8512445000233129,None,350.85869810008444,350.8744554000441,351.87468740006443,351.8585549000418,,,,,,,,,,,,,,,,,,,,,,,,,,,,,,,,,,,,,,,,,,,,,,,,,,,,,,,,,,,,,,,,,,,,,,,,,,,,,,,,,,,,,B_7,001,2024-11-28_14h04.40.870,untitled,2024.1.5,None,2024-11-28 14h04.53.731221 +0530,
square.png,stranger,0,Z,,,,,,,,,22,1,89,2,,,,,,,,,351.87468740006443,,,,,,,,,,,,,,,,,,,,,,,,,,,,,,,,,,351.8589064000407,351.87468740006443,352.3585716000525,352.3585716000525,352.3585716000525,352.3585716000525,352.3751302000601,352.6584132000571,352.6584132000571,352.6584132000571,353.1930502000032,z,0.8325529999565333,None,353.1934804000193,353.20885950000957,354.2092305000406,354.1930368000176,,,,,,,,,,,,,,,,,,,,,,,,,,,,,,,,,,,,,,,,,,,,,,,,,,,,,,,,,,,,,,,,,,,,,,,,,,,,,,,,,,,,,B_7,001,2024-11-28_14h04.40.870,untitled,2024.1.5,None,2024-11-28 14h04.53.731221 +0530,
square.png,you,1,M,,,,,,,,,22,2,90,0,,,,,,,,,354.2092305000406,,,,,,,,,,,,,,,,,,,,,,,,,,,,,,,,,,354.193382400088,354.2092305000406,354.69308920006733,354.69308920006733,354.69308920006733,354.69308920006733,354.7094811000861,354.99295109999366,354.99295109999366,354.99295109999366,355.4439229000127,m,0.7496098999399692,None,355.4443521000212,355.4600397000322,356.4605847999919,356.44401950004976,,,,,,,,,,,,,,,,,,,,,,,,,,,,,,,,,,,,,,,,,,,,,,,,,,,,,,,,,,,,,,,,,,,,,,,,,,,,,,,,,,,,,B_7,001,2024-11-28_14h04.40.870,untitled,2024.1.5,None,2024-11-28 14h04.53.731221 +0530,
triangle.png,you,0,Z,,,,,,,,,22,3,91,3,,,,,,,,,356.4605847999919,,,,,,,,,,,,,,,,,,,,,,,,,,,,,,,,,,356.444371300051,356.4605847999919,356.94407130009495,356.94407130009495,356.94407130009495,356.94407130009495,356.96077000000514,357.24403210007586,357.24403210007586,357.24403210007586,357.7285889000632,z,0.774744899943471,None,357.72900839999784,357.7443264001049,358.74512140010484,358.72872140002437,,,,,,,,,,,,,,,,,,,,,,,,,,,,,,,,,,,,,,,,,,,,,,,,,,,,,,,,,,,,,,,,,,,,,,,,,,,,,,,,,,,,,B_7,001,2024-11-28_14h04.40.870,untitled,2024.1.5,None,2024-11-28 14h04.53.731221 +0530,
triangle.png,you,0,Z,,,,,,,,,23,0,92,3,,,,,,,,,358.74512140010484,,,,,,,,,,,,,,,,,,,,,,,,,,,,,,,,,,358.7290634000674,358.74512140010484,359.22859060007613,359.22859060007613,359.22859060007613,359.22859060007613,359.24523180001415,359.5288356000092,359.5288356000092,359.5288356000092,359.7629198000068,m,0.5231564999558032,None,359.763342600083,359.77876070002094,360.77956709999125,360.7633303999901,,,,,,,,,,,,,,,,,,,,,,,,,,,,,,,,,,,,,,,,,,,,,,,,,,,,,,,,,,,,,,,,,,,,,,,,,,,,,,,,,,,,,B_7,001,2024-11-28_14h04.40.870,untitled,2024.1.5,None,2024-11-28 14h04.53.731221 +0530,
square.png,you,1,M,,,,,,,,,23,1,93,0,,,,,,,,,360.77956709999125,,,,,,,,,,,,,,,,,,,,,,,,,,,,,,,,,,360.76368860004004,360.77956709999125,361.26316100009717,361.26316100009717,361.26316100009717,361.26316100009717,361.2796951000346,361.562964700046,361.562964700046,361.562964700046,361.7807836000575,m,0.5123231000034139,None,361.78121210006066,361.796585700009,362.79722730000503,362.7808200001018,,,,,,,,,,,,,,,,,,,,,,,,,,,,,,,,,,,,,,,,,,,,,,,,,,,,,,,,,,,,,,,,,,,,,,,,,,,,,,,,,,,,,B_7,001,2024-11-28_14h04.40.870,untitled,2024.1.5,None,2024-11-28 14h04.53.731221 +0530,
triangle.png,stranger,1,M,,,,,,,,,23,2,94,1,,,,,,,,,362.79722730000503,,,,,,,,,,,,,,,,,,,,,,,,,,,,,,,,,,362.78116890008096,362.79722730000503,363.28085870004725,363.28085870004725,363.28085870004725,363.28085870004725,363.29741460003424,363.58086270000786,363.58086270000786,363.58086270000786,363.73155300004873,z,0.43394789996091276,None,363.73198889999185,363.74765560007654,364.74817670008633,364.7317329000216,,,,,,,,,,,,,,,,,,,,,,,,,,,,,,,,,,,,,,,,,,,,,,,,,,,,,,,,,,,,,,,,,,,,,,,,,,,,,,,,,,,,,B_7,001,2024-11-28_14h04.40.870,untitled,2024.1.5,None,2024-11-28 14h04.53.731221 +0530,
square.png,stranger,0,Z,,,,,,,,,23,3,95,2,,,,,,,,,364.74817670008633,,,,,,,,,,,,,,,,,,,,,,,,,,,,,,,,,,364.73208129999693,364.74817670008633,365.2317062000511,365.2317062000511,365.2317062000511,365.2317062000511,365.24832590005826,365.5318776000058,365.5318776000058,365.5318776000058,365.64911080000456,m,0.41615249996539205,None,365.649529300048,365.6652682001004,366.6655551000731,366.64951990009286,,,,,,,,,,,,,,,,,,,,,,,,,,,,,,,,,,,,,,,,,,,,,,,,,,,,,,,,,,,,,,,,,,,,,,,,,,,,,,,,,,,,,B_7,001,2024-11-28_14h04.40.870,untitled,2024.1.5,None,2024-11-28 14h04.53.731221 +0530,
square.png,stranger,0,Z,,,,,,,,,24,0,96,2,,,,,,,,,366.6655551000731,,,,,,,,,,,,,,,,,,,,,,,,,,,,,,,,,,366.64986740006134,366.6655551000731,367.14931270002853,367.14931270002853,367.14931270002853,367.14931270002853,367.16606469999533,367.44943290005904,367.44943290005904,367.44943290005904,367.56685220007785,m,0.40628999995533377,None,367.56728990003467,367.58309500000905,368.5835228000069,368.5670463000424,,,,,,,,,,,,,,,,,,,,,,,,,,,,,,,,,,,,,,,,,,,,,,,,,,,,,,,,,,,,,,,,,,,,,,,,,,,,,,,,,,,,,B_7,001,2024-11-28_14h04.40.870,untitled,2024.1.5,None,2024-11-28 14h04.53.731221 +0530,
triangle.png,stranger,1,M,,,,,,,,,24,1,97,1,,,,,,,,,368.5835228000069,,,,,,,,,,,,,,,,,,,,,,,,,,,,,,,,,,368.5673884000862,368.5835228000069,369.0669675000245,369.0669675000245,369.0669675000245,369.0669675000245,369.08357160002925,369.36699910007883,369.36699910007883,369.36699910007883,369.818098400021,z,0.7483454999746755,None,369.81851920008194,369.8339104000479,370.8346193000907,370.81831600004807,,,,,,,,,,,,,,,,,,,,,,,,,,,,,,,,,,,,,,,,,,,,,,,,,,,,,,,,,,,,,,,,,,,,,,,,,,,,,,,,,,,,,B_7,001,2024-11-28_14h04.40.870,untitled,2024.1.5,None,2024-11-28 14h04.53.731221 +0530,
triangle.png,you,0,Z,,,,,,,,,24,2,98,3,,,,,,,,,370.8346193000907,,,,,,,,,,,,,,,,,,,,,,,,,,,,,,,,,,370.8186612999998,370.8346193000907,371.31854300003033,371.31854300003033,371.31854300003033,371.31854300003033,371.33484640007373,371.61827199999243,371.61827199999243,371.61827199999243,372.4023661999963,None,,,372.40255470003467,372.4187612000387,373.419091100106,373.40304530004505,372.4187612000387,,,,,,,,,,,,,,,,,,,,,,,,,,,,,,,,,,,,,,,,,,,,,,,,,,,,,,,,,,,,,,,,,,,,,,,,,,,,,,,,,,,,B_7,001,2024-11-28_14h04.40.870,untitled,2024.1.5,None,2024-11-28 14h04.53.731221 +0530,
square.png,you,1,M,,,,,,,,,24,3,99,0,,,,,,,,,373.419091100106,,,,,,,,,,,,,,,,,,,,,,,,,,,,,,,,,,373.40339540003333,373.419091100106,373.9197897000704,373.9197897000704,373.9197897000704,373.9197897000704,373.9197897000704,374.2194965000963,374.2194965000963,374.2194965000963,374.3871901000384,m,0.462236599996686,None,374.3876120999921,374.4029380000429,375.4033650000347,375.3873196000932,,,,,,,,,,,,,,,,,,,,,,,,,,,,,,,,,,,,,,,,,,,,,,,,,,,,,,,,,,,,,,,,,,,,,,,,,,,,,,,,,,,,,B_7,001,2024-11-28_14h04.40.870,untitled,2024.1.5,None,2024-11-28 14h04.53.731221 +0530,
triangle.png,stranger,1,M,,,,,,,,,25,0,100,1,,,,,,,,,375.4033650000347,,,,,,,,,,,,,,,,,,,,,,,,,,,,,,,,,,375.38767379999626,375.4033650000347,375.8873671001056,375.8873671001056,375.8873671001056,375.8873671001056,375.90397720003966,376.187376899994,376.187376899994,376.187376899994,376.50474230002146,m,0.6028483000118285,None,376.50516180007253,376.52090060000774,377.5213840000797,377.5051730000414,,,,,,,,,,,,,,,,,,,,,,,,,,,,,,,,,,,,,,,,,,,,,,,,,,,,,,,,,,,,,,,,,,,,,,,,,,,,,,,,,,,,,B_7,001,2024-11-28_14h04.40.870,untitled,2024.1.5,None,2024-11-28 14h04.53.731221 +0530,
triangle.png,you,0,Z,,,,,,,,,25,1,101,3,,,,,,,,,377.5213840000797,,,,,,,,,,,,,,,,,,,,,,,,,,,,,,,,,,377.50552160001826,377.5213840000797,378.0052819000557,378.0052819000557,378.0052819000557,378.0052819000557,378.02150260005146,378.3050459000515,378.3050459000515,378.3050459000515,378.7724293000065,z,0.7659306999994442,None,378.77284750004765,378.7886097000446,379.7891901000403,379.77277510007843,,,,,,,,,,,,,,,,,,,,,,,,,,,,,,,,,,,,,,,,,,,,,,,,,,,,,,,,,,,,,,,,,,,,,,,,,,,,,,,,,,,,,B_7,001,2024-11-28_14h04.40.870,untitled,2024.1.5,None,2024-11-28 14h04.53.731221 +0530,
square.png,stranger,0,Z,,,,,,,,,25,2,102,2,,,,,,,,,379.7891901000403,,,,,,,,,,,,,,,,,,,,,,,,,,,,,,,,,,379.7731224000454,379.7891901000403,380.2729811000172,380.2729811000172,380.2729811000172,380.2729811000172,380.2894649000373,380.572866100003,380.572866100003,380.572866100003,381.0405241000699,z,0.7578427999978885,None,381.0409535000799,381.0563809000887,382.05711400008295,382.04086569999345,,,,,,,,,,,,,,,,,,,,,,,,,,,,,,,,,,,,,,,,,,,,,,,,,,,,,,,,,,,,,,,,,,,,,,,,,,,,,,,,,,,,,B_7,001,2024-11-28_14h04.40.870,untitled,2024.1.5,None,2024-11-28 14h04.53.731221 +0530,
square.png,you,1,M,,,,,,,,,25,3,103,0,,,,,,,,,382.05711400008295,,,,,,,,,,,,,,,,,,,,,,,,,,,,,,,,,,382.0412117000669,382.05711400008295,382.5406177000841,382.5406177000841,382.5406177000841,382.5406177000841,382.55733910005074,382.8407415000256,382.8407415000256,382.8407415000256,383.05825550004374,m,0.5133798999013379,None,383.05867620010395,383.0743670000229,384.07454000005964,384.05851290002465,,,,,,,,,,,,,,,,,,,,,,,,,,,,,,,,,,,,,,,,,,,,,,,,,,,,,,,,,,,,,,,,,,,,,,,,,,,,,,,,,,,,,B_7,001,2024-11-28_14h04.40.870,untitled,2024.1.5,None,2024-11-28 14h04.53.731221 +0530,
square.png,you,1,M,,,,,,,,,26,0,104,0,,,,,,,,,384.07454000005964,,,,,,,,,,,,,,,,,,,,,,,,,,,,,,,,,,384.05886450002436,384.07454000005964,384.55850150005426,384.55850150005426,384.55850150005426,384.55850150005426,384.5752638000995,384.8584961000597,384.8584961000597,384.8584961000597,385.0425602000905,m,0.47636950004380196,None,385.04297609999776,385.0585423000157,386.0591149000684,386.04276530002244,,,,,,,,,,,,,,,,,,,,,,,,,,,,,,,,,,,,,,,,,,,,,,,,,,,,,,,,,,,,,,,,,,,,,,,,,,,,,,,,,,,,,B_7,001,2024-11-28_14h04.40.870,untitled,2024.1.5,None,2024-11-28 14h04.53.731221 +0530,
square.png,stranger,0,Z,,,,,,,,,26,1,105,2,,,,,,,,,386.0591149000684,,,,,,,,,,,,,,,,,,,,,,,,,,,,,,,,,,386.04312150005717,386.0591149000684,386.5425062000286,386.5425062000286,386.5425062000286,386.5425062000286,386.55929970007855,386.8426957000047,386.8426957000047,386.8426957000047,387.1269920000341,z,0.5731485000578687,None,387.1274228000548,387.14296430000104,388.14337589999195,388.1270458000945,,,,,,,,,,,,,,,,,,,,,,,,,,,,,,,,,,,,,,,,,,,,,,,,,,,,,,,,,,,,,,,,,,,,,,,,,,,,,,,,,,,,,B_7,001,2024-11-28_14h04.40.870,untitled,2024.1.5,None,2024-11-28 14h04.53.731221 +0530,
triangle.png,stranger,1,M,,,,,,,,,26,2,106,1,,,,,,,,,388.14337589999195,,,,,,,,,,,,,,,,,,,,,,,,,,,,,,,,,,388.1273968000896,388.14337589999195,388.6272652000189,388.6272652000189,388.6272652000189,388.6272652000189,388.6438289000653,388.92722230008803,388.92722230008803,388.92722230008803,389.3781868000515,m,0.7355685000075027,None,389.37861580005847,389.39418830000795,390.39458960003685,390.3783102000598,,,,,,,,,,,,,,,,,,,,,,,,,,,,,,,,,,,,,,,,,,,,,,,,,,,,,,,,,,,,,,,,,,,,,,,,,,,,,,,,,,,,,B_7,001,2024-11-28_14h04.40.870,untitled,2024.1.5,None,2024-11-28 14h04.53.731221 +0530,
triangle.png,you,0,Z,,,,,,,,,26,3,107,3,,,,,,,,,390.39458960003685,,,,,,,,,,,,,,,,,,,,,,,,,,,,,,,,,,390.3786647000816,390.39458960003685,390.87809220002964,390.87809220002964,390.87809220002964,390.87809220002964,390.8948895999929,391.1781936000334,391.1781936000334,391.1781936000334,391.49594020005316,z,0.6094096000306308,None,391.49636740004644,391.51203020010144,392.51236050005537,392.49605410010554,,,,,,,,,,,,,,,,,,,,,,,,,,,,,,,,,,,,,,,,,,,,,,,,,,,,,,,,,,,,,,,,,,,,,,,,,,,,,,,,,,,,,B_7,001,2024-11-28_14h04.40.870,untitled,2024.1.5,None,2024-11-28 14h04.53.731221 +0530,
triangle.png,stranger,1,M,,,,,,,,,27,0,108,1,,,,,,,,,392.51236050005537,,,,,,,,,,,,,,,,,,,,,,,,,,,,,,,,,,392.49640880001243,392.51236050005537,392.9963189000264,392.9963189000264,392.9963189000264,392.9963189000264,393.0125456000678,393.2960567000555,393.2960567000555,393.2960567000555,393.76344410004094,z,0.7539611000102013,None,393.76387600007,393.77955890004523,394.78010740003083,394.76395690010395,,,,,,,,,,,,,,,,,,,,,,,,,,,,,,,,,,,,,,,,,,,,,,,,,,,,,,,,,,,,,,,,,,,,,,,,,,,,,,,,,,,,,B_7,001,2024-11-28_14h04.40.870,untitled,2024.1.5,None,2024-11-28 14h04.53.731221 +0530,
square.png,you,1,M,,,,,,,,,27,1,109,0,,,,,,,,,394.78010740003083,,,,,,,,,,,,,,,,,,,,,,,,,,,,,,,,,,394.7643117000116,394.78010740003083,395.2638506999938,395.2638506999938,395.2638506999938,395.2638506999938,395.2804490000708,395.56395550002344,395.56395550002344,395.56395550002344,395.84810380009003,m,0.5796619000611827,None,395.84853140008636,395.8640546000097,396.86459130002186,396.8484296000097,,,,,,,,,,,,,,,,,,,,,,,,,,,,,,,,,,,,,,,,,,,,,,,,,,,,,,,,,,,,,,,,,,,,,,,,,,,,,,,,,,,,,B_7,001,2024-11-28_14h04.40.870,untitled,2024.1.5,None,2024-11-28 14h04.53.731221 +0530,
square.png,stranger,0,Z,,,,,,,,,27,2,110,2,,,,,,,,,396.86459130002186,,,,,,,,,,,,,,,,,,,,,,,,,,,,,,,,,,396.84878290002234,396.86459130002186,397.3481590000447,397.3481590000447,397.3481590000447,397.3481590000447,397.36493420007173,397.64820560009684,397.64820560009684,397.64820560009684,397.83239490003325,m,0.47513479995541275,None,397.8328203000128,397.8483248000266,398.8490519000916,398.83273690007627,,,,,,,,,,,,,,,,,,,,,,,,,,,,,,,,,,,,,,,,,,,,,,,,,,,,,,,,,,,,,,,,,,,,,,,,,,,,,,,,,,,,,B_7,001,2024-11-28_14h04.40.870,untitled,2024.1.5,None,2024-11-28 14h04.53.731221 +0530,
triangle.png,you,0,Z,,,,,,,,,27,3,111,3,,,,,,,,,398.8490519000916,,,,,,,,,,,,,,,,,,,,,,,,,,,,,,,,,,398.83308860007674,398.8490519000916,399.3327792000491,399.3327792000491,399.3327792000491,399.3327792000491,399.34914920001756,399.6327682000119,399.6327682000119,399.6327682000119,400.1336733000353,m,0.789955599932,None,400.134104100056,400.14965650008526,401.1499922000803,401.1339101000922,,,,,,,,,,,,,,,,,,,,,,,,,,,,,,,,,,,,,,,,,,,,,,,,,,,,,,,,,,,,,,,,,,,,,,,,,,,,,,,,,,,,,B_7,001,2024-11-28_14h04.40.870,untitled,2024.1.5,None,2024-11-28 14h04.53.731221 +0530,
square.png,you,1,M,,,,,,,,,28,0,112,0,,,,,,,,,401.1499922000803,,,,,,,,,,,,,,,,,,,,,,,,,,,,,,,,,,401.13426130008884,401.1499922000803,401.6339960000478,401.6339960000478,401.6339960000478,401.6339960000478,401.6503118000692,401.9337759000482,401.9337759000482,401.9337759000482,402.0178417999996,m,0.38079309999011457,None,402.0182705000043,402.03379450005013,403.03436260006856,403.01817230007146,,,,,,,,,,,,,,,,,,,,,,,,,,,,,,,,,,,,,,,,,,,,,,,,,,,,,,,,,,,,,,,,,,,,,,,,,,,,,,,,,,,,,B_7,001,2024-11-28_14h04.40.870,untitled,2024.1.5,None,2024-11-28 14h04.53.731221 +0530,
triangle.png,you,0,Z,,,,,,,,,28,1,113,3,,,,,,,,,403.03436260006856,,,,,,,,,,,,,,,,,,,,,,,,,,,,,,,,,,403.01852340006735,403.03436260006856,403.51801320002414,403.51801320002414,403.51801320002414,403.51801320002414,403.5346363000572,403.8181104999967,403.8181104999967,403.8181104999967,404.019122500089,m,0.4936277000233531,None,404.01955050008837,404.0351229000371,405.03532460005954,405.0190796999959,,,,,,,,,,,,,,,,,,,,,,,,,,,,,,,,,,,,,,,,,,,,,,,,,,,,,,,,,,,,,,,,,,,,,,,,,,,,,,,,,,,,,B_7,001,2024-11-28_14h04.40.870,untitled,2024.1.5,None,2024-11-28 14h04.53.731221 +0530,
square.png,stranger,0,Z,,,,,,,,,28,2,114,2,,,,,,,,,405.03532460005954,,,,,,,,,,,,,,,,,,,,,,,,,,,,,,,,,,405.0194286000915,405.03532460005954,405.51928170002066,405.51928170002066,405.51928170002066,405.51928170002066,405.5358618000755,405.81912430003285,405.81912430003285,405.81912430003285,406.1699848000426,m,0.6428541999775916,None,406.17041200003587,406.1860744000878,407.18665490008425,407.1704813000979,,,,,,,,,,,,,,,,,,,,,,,,,,,,,,,,,,,,,,,,,,,,,,,,,,,,,,,,,,,,,,,,,,,,,,,,,,,,,,,,,,,,,B_7,001,2024-11-28_14h04.40.870,untitled,2024.1.5,None,2024-11-28 14h04.53.731221 +0530,
triangle.png,stranger,1,M,,,,,,,,,28,3,115,1,,,,,,,,,407.18665490008425,,,,,,,,,,,,,,,,,,,,,,,,,,,,,,,,,,407.1708795001032,407.18665490008425,407.67009980010334,407.67009980010334,407.67009980010334,407.67009980010334,407.6867507999996,407.97052400000393,407.97052400000393,407.97052400000393,408.2879640000174,z,0.607930599944666,None,408.2883839000715,408.30372730002273,409.30425270006526,409.2878142000409,,,,,,,,,,,,,,,,,,,,,,,,,,,,,,,,,,,,,,,,,,,,,,,,,,,,,,,,,,,,,,,,,,,,,,,,,,,,,,,,,,,,,B_7,001,2024-11-28_14h04.40.870,untitled,2024.1.5,None,2024-11-28 14h04.53.731221 +0530,
square.png,you,1,M,,,,,,,,,29,0,116,0,,,,,,,,,409.30425270006526,,,,,,,,,,,,,,,,,,,,,,,,,,,,,,,,,,409.2881583000999,409.30425270006526,409.7881218000548,409.7881218000548,409.7881218000548,409.7881218000548,409.80447680002544,410.0880629000021,410.0880629000021,410.0880629000021,410.2553518000059,m,0.4515811000019312,None,410.2557761000935,410.2716195000103,411.272142300033,411.2556358000729,,,,,,,,,,,,,,,,,,,,,,,,,,,,,,,,,,,,,,,,,,,,,,,,,,,,,,,,,,,,,,,,,,,,,,,,,,,,,,,,,,,,,B_7,001,2024-11-28_14h04.40.870,untitled,2024.1.5,None,2024-11-28 14h04.53.731221 +0530,
square.png,stranger,0,Z,,,,,,,,,29,1,117,2,,,,,,,,,411.272142300033,,,,,,,,,,,,,,,,,,,,,,,,,,,,,,,,,,411.2559865000658,411.272142300033,411.75574230006896,411.75574230006896,411.75574230006896,411.75574230006896,411.77244490000885,412.0555199000519,412.0555199000519,412.0555199000519,412.32322670007125,m,0.5623176000081003,None,412.32364550000057,412.3391217000317,413.33965370000806,413.32362720009405,,,,,,,,,,,,,,,,,,,,,,,,,,,,,,,,,,,,,,,,,,,,,,,,,,,,,,,,,,,,,,,,,,,,,,,,,,,,,,,,,,,,,B_7,001,2024-11-28_14h04.40.870,untitled,2024.1.5,None,2024-11-28 14h04.53.731221 +0530,
triangle.png,stranger,1,M,,,,,,,,,29,2,118,1,,,,,,,,,413.33965370000806,,,,,,,,,,,,,,,,,,,,,,,,,,,,,,,,,,413.32397600007243,413.33965370000806,413.8232622999931,413.8232622999931,413.8232622999931,413.8232622999931,413.83990520006046,414.1234065000899,414.1234065000899,414.1234065000899,414.70772860001307,m,0.8828105001011863,None,414.7081591000315,414.72357000003103,415.72441630007233,415.7079992000945,,,,,,,,,,,,,,,,,,,,,,,,,,,,,,,,,,,,,,,,,,,,,,,,,,,,,,,,,,,,,,,,,,,,,,,,,,,,,,,,,,,,,B_7,001,2024-11-28_14h04.40.870,untitled,2024.1.5,None,2024-11-28 14h04.53.731221 +0530,
triangle.png,you,0,Z,,,,,,,,,29,3,119,3,,,,,,,,,415.72441630007233,,,,,,,,,,,,,,,,,,,,,,,,,,,,,,,,,,415.7083453000523,415.72441630007233,416.2080491000088,416.2080491000088,416.2080491000088,416.2080491000088,416.2246027000947,416.50797999999486,416.50797999999486,416.50797999999486,416.8920945000136,z,0.6754256000276655,None,416.89251930010505,416.9083164000185,417.90859290002845,417.89246180001646,,,,,,,,,,,,,,,,,,,,,,,,,,,,,,,,,,,,,,,,,,,,,,,,,,,,,,,,,,,,,,,,,,,,,,,,,,,,,,,,,,,,,B_7,001,2024-11-28_14h04.40.870,untitled,2024.1.5,None,2024-11-28 14h04.53.731221 +0530,
triangle.png,stranger,1,M,,,,,,,,,30,0,120,1,,,,,,,,,417.90859290002845,,,,,,,,,,,,,,,,,,,,,,,,,,,,,,,,,,417.8928087000968,417.90859290002845,418.39254260004964,418.39254260004964,418.39254260004964,418.39254260004964,418.4091088999994,418.6923410000745,418.6923410000745,418.6923410000745,419.34378610004205,m,0.9469813000177965,None,419.3442090000026,419.35938370006625,420.3601307000499,420.34361900005024,,,,,,,,,,,,,,,,,,,,,,,,,,,,,,,,,,,,,,,,,,,,,,,,,,,,,,,,,,,,,,,,,,,,,,,,,,,,,,,,,,,,,B_7,001,2024-11-28_14h04.40.870,untitled,2024.1.5,None,2024-11-28 14h04.53.731221 +0530,
square.png,stranger,0,Z,,,,,,,,,30,1,121,2,,,,,,,,,420.3601307000499,,,,,,,,,,,,,,,,,,,,,,,,,,,,,,,,,,420.3439676000271,420.3601307000499,420.84380270005204,420.84380270005204,420.84380270005204,420.84380270005204,420.8602945000166,421.1437486000359,421.1437486000359,421.1437486000359,421.71117930009495,z,0.8557898999424651,None,421.7116096999962,421.72750260005705,422.7280015000142,422.7115313000977,,,,,,,,,,,,,,,,,,,,,,,,,,,,,,,,,,,,,,,,,,,,,,,,,,,,,,,,,,,,,,,,,,,,,,,,,,,,,,,,,,,,,B_7,001,2024-11-28_14h04.40.870,untitled,2024.1.5,None,2024-11-28 14h04.53.731221 +0530,
square.png,you,1,M,,,,,,,,,30,2,122,0,,,,,,,,,422.7280015000142,,,,,,,,,,,,,,,,,,,,,,,,,,,,,,,,,,422.71188020007685,422.7280015000142,423.2115054000169,423.2115054000169,423.2115054000169,423.2115054000169,423.2280672000488,423.51164730009623,423.51164730009623,423.51164730009623,423.9290297999978,m,0.7162278000032529,None,423.9294818000635,423.94522390002385,424.9456951000029,424.9293786000926,,,,,,,,,,,,,,,,,,,,,,,,,,,,,,,,,,,,,,,,,,,,,,,,,,,,,,,,,,,,,,,,,,,,,,,,,,,,,,,,,,,,,B_7,001,2024-11-28_14h04.40.870,untitled,2024.1.5,None,2024-11-28 14h04.53.731221 +0530,
triangle.png,you,0,Z,,,,,,,,,30,3,123,3,,,,,,,,,424.9456951000029,,,,,,,,,,,,,,,,,,,,,,,,,,,,,,,,,,424.92972980008926,424.9456951000029,425.4292474000249,425.4292474000249,425.4292474000249,425.4292474000249,425.4460756999906,425.7294437000528,425.7294437000528,425.7294437000528,426.31384300009813,m,0.8776316000148654,None,426.3142729999963,426.32965630001854,427.33015560009517,427.3141016000882,,,,,,,,,,,,,,,,,,,,,,,,,,,,,,,,,,,,,,,,,,,,,,,,,,,,,,,,,,,,,,,,,,,,,,,,,,,,,,,,,,,,,B_7,001,2024-11-28_14h04.40.870,untitled,2024.1.5,None,2024-11-28 14h04.53.731221 +0530,
square.png,stranger,0,Z,,,,,,,,,31,0,124,2,,,,,,,,,427.33015560009517,,,,,,,,,,,,,,,,,,,,,,,,,,,,,,,,,,427.3144490000559,427.33015560009517,427.8140342000406,427.8140342000406,427.8140342000406,427.8140342000406,427.83050650008954,428.11398960009683,428.11398960009683,428.11398960009683,428.7316656000912,z,0.9042756999842823,None,428.73209210007917,428.7475325000705,429.7480606000172,429.73185820004437,,,,,,,,,,,,,,,,,,,,,,,,,,,,,,,,,,,,,,,,,,,,,,,,,,,,,,,,,,,,,,,,,,,,,,,,,,,,,,,,,,,,,B_7,001,2024-11-28_14h04.40.870,untitled,2024.1.5,None,2024-11-28 14h04.53.731221 +0530,
square.png,you,1,M,,,,,,,,,31,1,125,0,,,,,,,,,429.7480606000172,,,,,,,,,,,,,,,,,,,,,,,,,,,,,,,,,,429.7322061000159,429.7480606000172,430.2319887999911,430.2319887999911,430.2319887999911,430.2319887999911,430.2485915001016,430.53197660006117,430.53197660006117,430.53197660006117,430.9159707000945,m,0.6702228999929503,None,430.91638880001847,430.93210000009276,431.9325637000147,431.9161276000086,,,,,,,,,,,,,,,,,,,,,,,,,,,,,,,,,,,,,,,,,,,,,,,,,,,,,,,,,,,,,,,,,,,,,,,,,,,,,,,,,,,,,B_7,001,2024-11-28_14h04.40.870,untitled,2024.1.5,None,2024-11-28 14h04.53.731221 +0530,
triangle.png,stranger,1,M,,,,,,,,,31,2,126,1,,,,,,,,,431.9325637000147,,,,,,,,,,,,,,,,,,,,,,,,,,,,,,,,,,431.9165836001048,431.9325637000147,432.4163998001022,432.4163998001022,432.4163998001022,432.4163998001022,432.43282340001315,432.7161679000128,432.7161679000128,432.7161679000128,433.3007623000303,m,0.879338400089182,None,433.3011860999977,433.3166102000978,434.31727570004296,434.3009636000497,,,,,,,,,,,,,,,,,,,,,,,,,,,,,,,,,,,,,,,,,,,,,,,,,,,,,,,,,,,,,,,,,,,,,,,,,,,,,,,,,,,,,B_7,001,2024-11-28_14h04.40.870,untitled,2024.1.5,None,2024-11-28 14h04.53.731221 +0530,
triangle.png,you,0,Z,,,,,,,,,31,3,127,3,,,,,,,,,434.31727570004296,,,,,,,,,,,,,,,,,,,,,,,,,,,,,,,,,,434.3013147000456,434.31727570004296,434.8007288000081,434.8007288000081,434.8007288000081,434.8007288000081,434.8176233000122,435.1009742000606,435.1009742000606,435.1009742000606,435.6521669999929,z,0.8493876999709755,None,435.65267320000567,435.6678570000222,436.6683956000488,436.6522582001053,,,,,,,,,,,,,,,,,,,,,,,,,,,,,,,,,,,,,,,,,,,,,,,,,,,,,,,,,,,,,,,,,,,,,,,,,,,,,,,,,,,,,B_7,001,2024-11-28_14h04.40.870,untitled,2024.1.5,None,2024-11-28 14h04.53.731221 +0530,
square.png,stranger,0,Z,,,,,,,,,32,0,128,2,,,,,,,,,436.6683956000488,,,,,,,,,,,,,,,,,,,,,,,,,,,,,,,,,,436.65260570007376,436.6683956000488,437.1521963000996,437.1521963000996,437.1521963000996,437.1521963000996,437.1688234000467,437.45219660003204,437.45219660003204,437.45219660003204,438.15328410000075,z,0.9946071000304073,None,438.1537106001051,438.1691183000803,439.1697449000785,439.15352550009266,,,,,,,,,,,,,,,,,,,,,,,,,,,,,,,,,,,,,,,,,,,,,,,,,,,,,,,,,,,,,,,,,,,,,,,,,,,,,,,,,,,,,B_7,001,2024-11-28_14h04.40.870,untitled,2024.1.5,None,2024-11-28 14h04.53.731221 +0530,
triangle.png,you,0,Z,,,,,,,,,32,1,129,3,,,,,,,,,439.1697449000785,,,,,,,,,,,,,,,,,,,,,,,,,,,,,,,,,,439.1538765000878,439.1697449000785,439.6532651000889,439.6532651000889,439.6532651000889,439.6532651000889,439.6701843000483,439.95335690001957,439.95335690001957,439.95335690001957,440.6378212000709,z,0.9689481999957934,None,440.6382395999972,440.65399590006564,441.654344700044,441.63810250000097,,,,,,,,,,,,,,,,,,,,,,,,,,,,,,,,,,,,,,,,,,,,,,,,,,,,,,,,,,,,,,,,,,,,,,,,,,,,,,,,,,,,,B_7,001,2024-11-28_14h04.40.870,untitled,2024.1.5,None,2024-11-28 14h04.53.731221 +0530,
triangle.png,stranger,1,M,,,,,,,,,32,2,130,1,,,,,,,,,441.654344700044,,,,,,,,,,,,,,,,,,,,,,,,,,,,,,,,,,441.63844740006607,441.654344700044,442.13823760009836,442.13823760009836,442.13823760009836,442.13823760009836,442.15447599999607,442.43797770002857,442.43797770002857,442.43797770002857,443.0559276000131,m,0.9166717000771314,None,443.05635080009233,443.071654300089,444.07216750003863,444.0559072000906,,,,,,,,,,,,,,,,,,,,,,,,,,,,,,,,,,,,,,,,,,,,,,,,,,,,,,,,,,,,,,,,,,,,,,,,,,,,,,,,,,,,,B_7,001,2024-11-28_14h04.40.870,untitled,2024.1.5,None,2024-11-28 14h04.53.731221 +0530,
square.png,you,1,M,,,,,,,,,32,3,131,0,,,,,,,,,444.07216750003863,,,,,,,,,,,,,,,,,,,,,,,,,,,,,,,,,,444.0562732000835,444.07216750003863,444.5555938000325,444.5555938000325,444.5555938000325,444.5555938000325,444.5725699000759,444.85594700009096,444.85594700009096,444.85594700009096,445.44003050005995,m,0.8832470999332145,None,445.44046620000154,445.45643810008187,446.4568158000475,446.44034820003435,,,,,,,,,,,,,,,,,,,,,,,,,,,,,,,,,,,,,,,,,,,,,,,,,,,,,,,,,,,,,,,,,,,,,,,,,,,,,,,,,,,,,B_7,001,2024-11-28_14h04.40.870,untitled,2024.1.5,None,2024-11-28 14h04.53.731221 +0530,
square.png,you,1,M,,,,,,,,,33,0,132,0,,,,,,,,,446.4568158000475,,,,,,,,,,,,,,,,,,,,,,,,,,,,,,,,,,446.440695199999,446.4568158000475,446.9402627000818,446.9402627000818,446.9402627000818,446.9402627000818,446.957107800059,447.2403359001037,447.2403359001037,447.2403359001037,447.8916361000156,m,0.9355467999121174,None,447.8920599000994,447.90738000010606,448.9080707000103,448.89163750002626,,,,,,,,,,,,,,,,,,,,,,,,,,,,,,,,,,,,,,,,,,,,,,,,,,,,,,,,,,,,,,,,,,,,,,,,,,,,,,,,,,,,,B_7,001,2024-11-28_14h04.40.870,untitled,2024.1.5,None,2024-11-28 14h04.53.731221 +0530,
square.png,stranger,0,Z,,,,,,,,,33,1,133,2,,,,,,,,,448.9080707000103,,,,,,,,,,,,,,,,,,,,,,,,,,,,,,,,,,448.89198970003054,448.9080707000103,449.3916253000498,449.3916253000498,449.3916253000498,449.3916253000498,449.40824540005997,449.6915879000444,449.6915879000444,449.6915879000444,450.0759289000416,z,0.6711620999267325,None,450.0763585000532,450.09180580009706,451.09249400009867,451.0761066999985,,,,,,,,,,,,,,,,,,,,,,,,,,,,,,,,,,,,,,,,,,,,,,,,,,,,,,,,,,,,,,,,,,,,,,,,,,,,,,,,,,,,,B_7,001,2024-11-28_14h04.40.870,untitled,2024.1.5,None,2024-11-28 14h04.53.731221 +0530,
triangle.png,you,0,Z,,,,,,,,,33,2,134,3,,,,,,,,,451.09249400009867,,,,,,,,,,,,,,,,,,,,,,,,,,,,,,,,,,451.07645280007273,451.09249400009867,451.5760185000254,451.5760185000254,451.5760185000254,451.5760185000254,451.5926476001041,451.87625060009304,451.87625060009304,451.87625060009304,452.510560200084,z,0.9229228000622243,None,452.51098230003845,452.5267158000497,453.5271034000907,453.51069590006955,,,,,,,,,,,,,,,,,,,,,,,,,,,,,,,,,,,,,,,,,,,,,,,,,,,,,,,,,,,,,,,,,,,,,,,,,,,,,,,,,,,,,B_7,001,2024-11-28_14h04.40.870,untitled,2024.1.5,None,2024-11-28 14h04.53.731221 +0530,
triangle.png,stranger,1,M,,,,,,,,,33,3,135,1,,,,,,,,,453.5271034000907,,,,,,,,,,,,,,,,,,,,,,,,,,,,,,,,,,453.511043000035,453.5271034000907,454.0108412000118,454.0108412000118,454.0108412000118,454.0108412000118,454.0273396000266,454.3106803999981,454.3106803999981,454.3106803999981,454.8616582000395,m,0.8392898000311106,None,454.8620978000108,454.8776330000255,455.87807560001966,455.8619578999933,,,,,,,,,,,,,,,,,,,,,,,,,,,,,,,,,,,,,,,,,,,,,,,,,,,,,,,,,,,,,,,,,,,,,,,,,,,,,,,,,,,,,B_7,001,2024-11-28_14h04.40.870,untitled,2024.1.5,None,2024-11-28 14h04.53.731221 +0530,
square.png,you,1,M,,,,,,,,,34,0,136,0,,,,,,,,,455.87807560001966,,,,,,,,,,,,,,,,,,,,,,,,,,,,,,,,,,455.86229980003554,455.87807560001966,456.3620844000252,456.3620844000252,456.3620844000252,456.3620844000252,456.37862130010035,456.6618235000642,456.6618235000642,456.6618235000642,457.27962040004786,m,0.9080080999992788,None,457.2800725999987,457.29559059999883,458.2961098999949,458.27999920002185,,,,,,,,,,,,,,,,,,,,,,,,,,,,,,,,,,,,,,,,,,,,,,,,,,,,,,,,,,,,,,,,,,,,,,,,,,,,,,,,,,,,,B_7,001,2024-11-28_14h04.40.870,untitled,2024.1.5,None,2024-11-28 14h04.53.731221 +0530,
triangle.png,stranger,1,M,,,,,,,,,34,1,137,1,,,,,,,,,458.2961098999949,,,,,,,,,,,,,,,,,,,,,,,,,,,,,,,,,,458.28034620010294,458.2961098999949,458.77964810002595,458.77964810002595,458.77964810002595,458.77964810002595,458.79642290004995,459.0797605999978,459.0797605999978,459.0797605999978,459.66427680000197,m,0.872016099980101,None,459.6647013000911,459.6801586000947,460.68077660002746,460.6643740000436,,,,,,,,,,,,,,,,,,,,,,,,,,,,,,,,,,,,,,,,,,,,,,,,,,,,,,,,,,,,,,,,,,,,,,,,,,,,,,,,,,,,,B_7,001,2024-11-28_14h04.40.870,untitled,2024.1.5,None,2024-11-28 14h04.53.731221 +0530,
square.png,stranger,0,Z,,,,,,,,,34,2,138,2,,,,,,,,,460.68077660002746,,,,,,,,,,,,,,,,,,,,,,,,,,,,,,,,,,460.664724900038,460.68077660002746,461.16427380009554,461.16427380009554,461.16427380009554,461.16427380009554,461.1811113000149,461.4644508000929,461.4644508000929,461.4644508000929,462.0322376000695,z,0.8634852999821305,None,462.03265840001404,462.0479469000129,463.04856640007347,463.03240690007806,,,,,,,,,,,,,,,,,,,,,,,,,,,,,,,,,,,,,,,,,,,,,,,,,,,,,,,,,,,,,,,,,,,,,,,,,,,,,,,,,,,,,B_7,001,2024-11-28_14h04.40.870,untitled,2024.1.5,None,2024-11-28 14h04.53.731221 +0530,
triangle.png,you,0,Z,,,,,,,,,34,3,139,3,,,,,,,,,463.04856640007347,,,,,,,,,,,,,,,,,,,,,,,,,,,,,,,,,,463.0327555000549,463.04856640007347,463.53241310000885,463.53241310000885,463.53241310000885,463.53241310000885,463.5487621000502,463.8323430001037,463.8323430001037,463.8323430001037,464.60026850004215,z,1.0553303000051528,None,464.60069630004,464.6160858999938,465.616627600044,465.60041600000113,,,,,,,,,,,,,,,,,,,,,,,,,,,,,,,,,,,,,,,,,,,,,,,,,,,,,,,,,,,,,,,,,,,,,,,,,,,,,,,,,,,,,B_7,001,2024-11-28_14h04.40.870,untitled,2024.1.5,None,2024-11-28 14h04.53.731221 +0530,
square.png,stranger,0,Z,,,,,,,,,35,0,140,2,,,,,,,,,465.616627600044,,,,,,,,,,,,,,,,,,,,,,,,,,,,,,,,,,465.6007644000929,465.616627600044,466.10037430003285,466.10037430003285,466.10037430003285,466.10037430003285,466.11694780003745,466.40034710010514,466.40034710010514,466.40034710010514,467.05148380005267,z,0.9501113999867812,None,467.05192260001786,467.0671636000043,468.0678512000013,468.05157440004405,,,,,,,,,,,,,,,,,,,,,,,,,,,,,,,,,,,,,,,,,,,,,,,,,,,,,,,,,,,,,,,,,,,,,,,,,,,,,,,,,,,,,B_7,001,2024-11-28_14h04.40.870,untitled,2024.1.5,None,2024-11-28 14h04.53.731221 +0530,
triangle.png,you,0,Z,,,,,,,,,35,1,141,3,,,,,,,,,468.0678512000013,,,,,,,,,,,,,,,,,,,,,,,,,,,,,,,,,,468.05192340002395,468.0678512000013,468.5514245000668,468.5514245000668,468.5514245000668,468.5514245000668,468.5681325000478,468.8513874000637,468.8513874000637,468.8513874000637,469.35259580006823,z,0.7955455000046641,None,469.35301950003486,469.36845619999804,470.36913120001554,470.3526675000321,,,,,,,,,,,,,,,,,,,,,,,,,,,,,,,,,,,,,,,,,,,,,,,,,,,,,,,,,,,,,,,,,,,,,,,,,,,,,,,,,,,,,B_7,001,2024-11-28_14h04.40.870,untitled,2024.1.5,None,2024-11-28 14h04.53.731221 +0530,
square.png,you,1,M,,,,,,,,,35,2,142,0,,,,,,,,,470.36913120001554,,,,,,,,,,,,,,,,,,,,,,,,,,,,,,,,,,470.35301620000973,470.36913120001554,470.85280610003974,470.85280610003974,470.85280610003974,470.85280610003974,470.86938710010145,471.1525072000222,471.1525072000222,471.1525072000222,471.5204810000723,m,0.6625602999702096,None,471.52090190001763,471.53615820000414,472.53667980001774,472.52071040007286,,,,,,,,,,,,,,,,,,,,,,,,,,,,,,,,,,,,,,,,,,,,,,,,,,,,,,,,,,,,,,,,,,,,,,,,,,,,,,,,,,,,,B_7,001,2024-11-28_14h04.40.870,untitled,2024.1.5,None,2024-11-28 14h04.53.731221 +0530,
triangle.png,stranger,1,M,,,,,,,,,35,3,143,1,,,,,,,,,472.53667980001774,,,,,,,,,,,,,,,,,,,,,,,,,,,,,,,,,,472.5210653000977,472.53667980001774,473.0206306000473,473.0206306000473,473.0206306000473,473.0206306000473,473.03725600009784,473.3205019000452,473.3205019000452,473.3205019000452,474.1047156000277,None,,,474.1049068000866,474.121045100037,475.1213083000621,475.1053128000349,474.121045100037,,,,,,,,,,,,,,,,,,,,,,,,,,,,,,,,,,,,,,,,,,,,,,,,,,,,,,,,,,,,,,,,,,,,,,,,,,,,,,,,,,,,B_7,001,2024-11-28_14h04.40.870,untitled,2024.1.5,None,2024-11-28 14h04.53.731221 +0530,
square.png,stranger,0,Z,,,,,,,,,36,0,144,2,,,,,,,,,475.1213083000621,,,,,,,,,,,,,,,,,,,,,,,,,,,,,,,,,,475.105670100078,475.1213083000621,475.6219867001055,475.6219867001055,475.6219867001055,475.6219867001055,475.6219867001055,475.9219917000737,475.9219917000737,475.9219917000737,476.3894786000019,z,0.7609616999980062,None,476.3899026000872,476.405325400061,477.40586440009065,477.3897200000938,,,,,,,,,,,,,,,,,,,,,,,,,,,,,,,,,,,,,,,,,,,,,,,,,,,,,,,,,,,,,,,,,,,,,,,,,,,,,,,,,,,,,B_7,001,2024-11-28_14h04.40.870,untitled,2024.1.5,None,2024-11-28 14h04.53.731221 +0530,
