stimulus_b,label_b,is_match_b,shouldpress_b,stimulus_2b,label_2b,is_match_2b,shouldpress_2b,p_trials.thisRepN,p_trials.thisTrialN,p_trials.thisN,p_trials.thisIndex,trials.thisRepN,trials.thisTrialN,trials.thisN,trials.thisIndex,p_trials_2.thisRepN,p_trials_2.thisTrialN,p_trials_2.thisN,p_trials_2.thisIndex,trials_2.thisRepN,trials_2.thisTrialN,trials_2.thisN,trials_2.thisIndex,thisRow.t,notes,Intruduction.started,text_3.started,key_resp_2.started,Intruduction.stopped,key_resp_2.keys,key_resp_2.rt,key_resp_2.duration,self_other_instructions.started,text_4.started,key_resp_3.started,self_other_instructions.stopped,key_resp_3.keys,key_resp_3.rt,key_resp_3.duration,self_other_info.started,square_image.started,triangle_image.started,self_label.started,other_label.started,key_resp_4.started,text_5.started,self_other_info.stopped,key_resp_4.keys,key_resp_4.rt,key_resp_4.duration,self_other_starting_2.started,text_6.started,key_resp_5.started,self_other_starting_2.stopped,key_resp_5.keys,key_resp_5.rt,key_resp_5.duration,b1.started,p_fication.started,p_fixation_3.started,p_text.started,key_resp_p.started,p_image.started,p_fication.stopped,p_fixation_3.stopped,p_text.stopped,p_image.stopped,b1.stopped,key_resp_p.keys,key_resp_p.rt,key_resp_p.duration,b_feedback.started,text_15.started,text_15.stopped,b_feedback.stopped,key_resp_p.stopped,start2.started,start_2.started,key_resp_11.started,start2.stopped,key_resp_11.keys,key_resp_11.rt,key_resp_11.duration,break_3.started,text_13.started,text_14.started,key_resp_10.started,text_13.stopped,break_3.stopped,key_resp_10.keys,key_resp_10.rt,key_resp_10.duration,self_instructions_2.started,text_10.started,key_resp_7.started,self_instructions_2.stopped,key_resp_7.keys,key_resp_7.rt,key_resp_7.duration,self_intro_2.started,circle_image.started,diamond_image.started,Disgusting_self_lable.started,Desirable_self_lable.started,key_resp_8.started,text_11.started,self_intro_2.stopped,key_resp_8.keys,key_resp_8.rt,key_resp_8.duration,self_starting_3.started,text_12.started,key_resp_9.started,self_starting_3.stopped,key_resp_9.keys,key_resp_9.rt,key_resp_9.duration,practice2.started,p_fixation_2.started,p_fixation_4.started,p_text_8.started,key_resp_6_p.started,p_image_2.started,p_fixation_2.stopped,p_fixation_4.stopped,p_text_8.stopped,p_image_2.stopped,practice2.stopped,key_resp_6_p.keys,key_resp_6_p.rt,key_resp_6_p.duration,feedback_2_p.started,text_16.started,text_16.stopped,feedback_2_p.stopped,key_resp_6_p.stopped,trial_2.started,fixation_2.started,fixation_4.started,text_8.started,key_resp_6.started,image_2.started,fixation_2.stopped,fixation_4.stopped,text_8.stopped,image_2.stopped,key_resp_6.stopped,trial_2.stopped,key_resp_6.keys,feedback_2.started,text_9.started,text_9.stopped,feedback_2.stopped,key_resp_6.rt,key_resp_6.duration,Thank_you.started,text_7.started,Thank_you.stopped,participant,session,date,expName,psychopyVersion,frameRate,expStart,
,,,,,,,,,,,,,,,,,,,,,,,,,,0.0026746001094579697,0.0064091000240296125,0.0064091000240296125,7.49435060005635,space,7.475250600022264,None,,,,,,,,,,,,,,,,,,,,,,,,,,,,,,,,,,,,,,,,,,,,,,,,,,,,,,,,,,,,,,,,,,,,,,,,,,,,,,,,,,,,,,,,,,,,,,,,,,,,,,,,,,,,,,,,,,,,,,,,,,,,,,,b_8,001,2024-11-29_09h56.10.133,untitled,2024.1.5,None,2024-11-29 09h56.33.867954 +0530,
,,,,,,,,,,,,,,,,,,,,,,,,,,,,,,,,,7.494375800015405,7.508737800060771,7.508737800060771,8.52668020001147,space,1.008333900012076,None,,,,,,,,,,,,,,,,,,,,,,,,,,,,,,,,,,,,,,,,,,,,,,,,,,,,,,,,,,,,,,,,,,,,,,,,,,,,,,,,,,,,,,,,,,,,,,,,,,,,,,,,,,,,,,,,,,,,,,,,b_8,001,2024-11-29_09h56.10.133,untitled,2024.1.5,None,2024-11-29 09h56.33.867954 +0530,
,,,,,,,,,,,,,,,,,,,,,,,,,,,,,,,,,,,,,,,,8.52670540008694,8.55970189999789,8.55970189999789,8.55970189999789,8.55970189999789,8.55970189999789,8.55970189999789,9.576337700011209,space,1.0098061999306083,None,,,,,,,,,,,,,,,,,,,,,,,,,,,,,,,,,,,,,,,,,,,,,,,,,,,,,,,,,,,,,,,,,,,,,,,,,,,,,,,,,,,,,,,,,,,,,,,,,,,,,,,,,,,,,b_8,001,2024-11-29_09h56.10.133,untitled,2024.1.5,None,2024-11-29 09h56.33.867954 +0530,
,,,,,,,,,,,,,,,,,,,,,,,,,,,,,,,,,,,,,,,,,,,,,,,,,,,9.576363900094293,9.592476000078022,9.592476000078022,11.377110400004312,space,1.780386000056751,None,,,,,,,,,,,,,,,,,,,,,,,,,,,,,,,,,,,,,,,,,,,,,,,,,,,,,,,,,,,,,,,,,,,,,,,,,,,,,,,,,,,,,,,,,,,,,,,,,,,,,,b_8,001,2024-11-29_09h56.10.133,untitled,2024.1.5,None,2024-11-29 09h56.33.867954 +0530,
triangle.png,stranger,1,M,,,,,0,0,0,1,,,,,,,,,,,,,11.393978200037964,,,,,,,,,,,,,,,,,,,,,,,,,,,,,,,,,,11.382818300044164,11.393978200037964,11.876796800061129,11.876796800061129,11.876796800061129,11.876796800061129,11.893178600003012,12.176488000084646,12.176488000084646,12.176488000084646,12.694327600067481,z,0.8049542000517249,None,12.694705000030808,12.710137400077656,13.711026400094852,13.694433900061995,,,,,,,,,,,,,,,,,,,,,,,,,,,,,,,,,,,,,,,,,,,,,,,,,,,,,,,,,,,,,,,,,,,,,,,,,,,,,,,,,,,,b_8,001,2024-11-29_09h56.10.133,untitled,2024.1.5,None,2024-11-29 09h56.33.867954 +0530,
square.png,stranger,0,Z,,,,,0,1,1,2,,,,,,,,,,,,,13.711026400094852,,,,,,,,,,,,,,,,,,,,,,,,,,,,,,,,,,13.694667100091465,13.711026400094852,14.194272100110538,14.194272100110538,14.194272100110538,14.194272100110538,14.211011000094004,14.494448100100271,14.494448100100271,14.494448100100271,15.078861700021662,z,0.8699385999934748,None,15.079110600054264,15.094652500003576,16.095277700107545,16.07883940008469,,,,,,,,,,,,,,,,,,,,,,,,,,,,,,,,,,,,,,,,,,,,,,,,,,,,,,,,,,,,,,,,,,,,,,,,,,,,,,,,,,,,b_8,001,2024-11-29_09h56.10.133,untitled,2024.1.5,None,2024-11-29 09h56.33.867954 +0530,
square.png,you,1,M,,,,,0,2,2,0,,,,,,,,,,,,,16.095277700107545,,,,,,,,,,,,,,,,,,,,,,,,,,,,,,,,,,16.079076300025918,16.095277700107545,16.578928100061603,16.578928100061603,16.578928100061603,16.578928100061603,16.59567550010979,16.878914800006896,16.878914800006896,16.878914800006896,17.246711300103925,m,0.6626124000176787,None,17.246965200058185,17.262365400092676,18.262883700081147,18.24686620000284,,,,,,,,,,,,,,,,,,,,,,,,,,,,,,,,,,,,,,,,,,,,,,,,,,,,,,,,,,,,,,,,,,,,,,,,,,,,,,,,,,,,b_8,001,2024-11-29_09h56.10.133,untitled,2024.1.5,None,2024-11-29 09h56.33.867954 +0530,
triangle.png,you,0,Z,,,,,0,3,3,3,,,,,,,,,,,,,18.262883700081147,,,,,,,,,,,,,,,,,,,,,,,,,,,,,,,,,,18.24709850002546,18.262883700081147,18.74661690008361,18.74661690008361,18.74661690008361,18.74661690008361,18.7632388001075,19.04647980001755,19.04647980001755,19.04647980001755,19.6644695000723,z,0.9069975999882445,None,19.664711800054647,19.680492000072263,20.68094230000861,20.664476900012232,,,,,,,,,,,,,,,,,,,,,,,,,,,,,,,,,,,,,,,,,,,,,,,,,,,,,,,,,,,,,,,,,,,,,,,,,,,,,,,,,,,,b_8,001,2024-11-29_09h56.10.133,untitled,2024.1.5,None,2024-11-29 09h56.33.867954 +0530,
square.png,you,1,M,,,,,1,0,4,0,,,,,,,,,,,,,20.68094230000861,,,,,,,,,,,,,,,,,,,,,,,,,,,,,,,,,,20.6647114000516,20.68094230000861,21.164536000113003,21.164536000113003,21.164536000113003,21.164536000113003,21.180991900037043,21.464326500077732,21.464326500077732,21.464326500077732,21.965573300025426,m,0.7923204000107944,None,21.965815900010057,21.981509900069796,22.9823210000759,22.965898200054653,,,,,,,,,,,,,,,,,,,,,,,,,,,,,,,,,,,,,,,,,,,,,,,,,,,,,,,,,,,,,,,,,,,,,,,,,,,,,,,,,,,,b_8,001,2024-11-29_09h56.10.133,untitled,2024.1.5,None,2024-11-29 09h56.33.867954 +0530,
triangle.png,you,0,Z,,,,,1,1,5,3,,,,,,,,,,,,,22.9823210000759,,,,,,,,,,,,,,,,,,,,,,,,,,,,,,,,,,22.966126700048335,22.9823210000759,23.465641500079073,23.465641500079073,23.465641500079073,23.465641500079073,23.482280500000343,23.765741200069897,23.765741200069897,23.765741200069897,24.216829900047742,z,0.7355551000218838,None,24.21707430004608,24.232649700017646,25.233228800003417,25.21678030001931,,,,,,,,,,,,,,,,,,,,,,,,,,,,,,,,,,,,,,,,,,,,,,,,,,,,,,,,,,,,,,,,,,,,,,,,,,,,,,,,,,,,b_8,001,2024-11-29_09h56.10.133,untitled,2024.1.5,None,2024-11-29 09h56.33.867954 +0530,
square.png,stranger,0,Z,,,,,1,2,6,2,,,,,,,,,,,,,25.233228800003417,,,,,,,,,,,,,,,,,,,,,,,,,,,,,,,,,,25.217011000029743,25.233228800003417,25.716859100037254,25.716859100037254,25.716859100037254,25.716859100037254,25.733655800111592,26.016892100102268,26.016892100102268,26.016892100102268,26.50135970010888,z,0.776903000078164,None,26.50160450011026,26.51726770005189,27.51805820001755,27.501511300099082,,,,,,,,,,,,,,,,,,,,,,,,,,,,,,,,,,,,,,,,,,,,,,,,,,,,,,,,,,,,,,,,,,,,,,,,,,,,,,,,,,,,b_8,001,2024-11-29_09h56.10.133,untitled,2024.1.5,None,2024-11-29 09h56.33.867954 +0530,
triangle.png,stranger,1,M,,,,,1,3,7,1,,,,,,,,,,,,,27.51805820001755,,,,,,,,,,,,,,,,,,,,,,,,,,,,,,,,,,27.501739200088196,27.51805820001755,28.001334300031886,28.001334300031886,28.001334300031886,28.001334300031886,28.01808650000021,28.301471200073138,28.301471200073138,28.301471200073138,28.93587720009964,z,0.9310387000441551,None,28.936122000101022,28.95188910001889,29.952384900068864,29.936011100071482,,,,,,,,,,,,,,,,,,,,,,,,,,,,,,,,,,,,,,,,,,,,,,,,,,,,,,,,,,,,,,,,,,,,,,,,,,,,,,,,,,,,b_8,001,2024-11-29_09h56.10.133,untitled,2024.1.5,None,2024-11-29 09h56.33.867954 +0530,
triangle.png,stranger,1,M,,,,,2,0,8,1,,,,,,,,,,,,,29.952384900068864,,,,,,,,,,,,,,,,,,,,,,,,,,,,,,,,,,29.936243600095622,29.952384900068864,30.436349700088613,30.436349700088613,30.436349700088613,30.436349700088613,30.452928700018674,30.736172300064936,30.736172300064936,30.736172300064936,31.220368400099687,m,0.7734907999401912,None,31.220616700011306,31.236061300034635,32.236724300077185,32.22055420000106,,,,,,,,,,,,,,,,,,,,,,,,,,,,,,,,,,,,,,,,,,,,,,,,,,,,,,,,,,,,,,,,,,,,,,,,,,,,,,,,,,,,b_8,001,2024-11-29_09h56.10.133,untitled,2024.1.5,None,2024-11-29 09h56.33.867954 +0530,
square.png,stranger,0,Z,,,,,2,1,9,2,,,,,,,,,,,,,32.236724300077185,,,,,,,,,,,,,,,,,,,,,,,,,,,,,,,,,,32.22078990004957,32.236724300077185,32.72043610003311,32.72043610003311,32.72043610003311,32.72043610003311,32.73714430001564,33.02043490007054,33.02043490007054,33.02043490007054,33.48824630002491,z,0.7650240000803024,None,33.48856530000921,33.50446240010206,34.504673700081185,34.48846950009465,,,,,,,,,,,,,,,,,,,,,,,,,,,,,,,,,,,,,,,,,,,,,,,,,,,,,,,,,,,,,,,,,,,,,,,,,,,,,,,,,,,,b_8,001,2024-11-29_09h56.10.133,untitled,2024.1.5,None,2024-11-29 09h56.33.867954 +0530,
triangle.png,you,0,Z,,,,,2,2,10,3,,,,,,,,,,,,,34.504673700081185,,,,,,,,,,,,,,,,,,,,,,,,,,,,,,,,,,34.488696700078435,34.504673700081185,34.98829370003659,34.98829370003659,34.98829370003659,34.98829370003659,35.005314200068824,35.28827890008688,35.28827890008688,35.28827890008688,35.72273740009405,z,0.7239349000155926,None,35.72298140008934,35.73871590010822,36.73920030007139,36.72279160004109,,,,,,,,,,,,,,,,,,,,,,,,,,,,,,,,,,,,,,,,,,,,,,,,,,,,,,,,,,,,,,,,,,,,,,,,,,,,,,,,,,,,b_8,001,2024-11-29_09h56.10.133,untitled,2024.1.5,None,2024-11-29 09h56.33.867954 +0530,
square.png,you,1,M,,,,,2,3,11,0,,,,,,,,,,,,,36.73920030007139,,,,,,,,,,,,,,,,,,,,,,,,,,,,,,,,,,36.72302270005457,36.73920030007139,37.22278609999921,37.22278609999921,37.22278609999921,37.22278609999921,37.23953970009461,37.5227982000215,37.5227982000215,37.5227982000215,38.20726130006369,m,0.9826489000115544,None,38.20750870008487,38.22308210004121,39.223773100064136,39.20737990003545,,,,,,,,,,,,,,,,,,,,,,,,,,,,,,,,,,,,,,,,,,,,,,,,,,,,,,,,,,,,,,,,,,,,,,,,,,,,,,,,,,,,b_8,001,2024-11-29_09h56.10.133,untitled,2024.1.5,None,2024-11-29 09h56.33.867954 +0530,
square.png,stranger,0,Z,,,,,3,0,12,2,,,,,,,,,,,,,39.223773100064136,,,,,,,,,,,,,,,,,,,,,,,,,,,,,,,,,,39.20761130005121,39.223773100064136,39.707364900037646,39.707364900037646,39.707364900037646,39.707364900037646,39.72410069999751,40.007641500094905,40.007641500094905,40.007641500094905,40.64179020002484,m,0.9186341000022367,None,40.64203460002318,40.65784070000518,41.65843410009984,41.64202850009315,,,,,,,,,,,,,,,,,,,,,,,,,,,,,,,,,,,,,,,,,,,,,,,,,,,,,,,,,,,,,,,,,,,,,,,,,,,,,,,,,,,,b_8,001,2024-11-29_09h56.10.133,untitled,2024.1.5,None,2024-11-29 09h56.33.867954 +0530,
triangle.png,you,0,Z,,,,,3,1,13,3,,,,,,,,,,,,,41.65843410009984,,,,,,,,,,,,,,,,,,,,,,,,,,,,,,,,,,41.64226500003133,41.65843410009984,42.14221250009723,42.14221250009723,42.14221250009723,42.14221250009723,42.15864850010257,42.442156100063585,42.442156100063585,42.442156100063585,42.92647290008608,z,0.7829565999563783,None,42.92671650007833,42.94223080005031,43.94278720009606,43.92675110010896,,,,,,,,,,,,,,,,,,,,,,,,,,,,,,,,,,,,,,,,,,,,,,,,,,,,,,,,,,,,,,,,,,,,,,,,,,,,,,,,,,,,b_8,001,2024-11-29_09h56.10.133,untitled,2024.1.5,None,2024-11-29 09h56.33.867954 +0530,
square.png,you,1,M,,,,,3,2,14,0,,,,,,,,,,,,,43.94278720009606,,,,,,,,,,,,,,,,,,,,,,,,,,,,,,,,,,43.926979900104925,43.94278720009606,44.42657000001054,44.42657000001054,44.42657000001054,44.42657000001054,44.4431312000379,44.726702000014484,44.726702000014484,44.726702000014484,45.17752470006235,m,0.7457663998939097,None,45.17776650004089,45.193553200108,46.19397220003884,46.17770590004511,,,,,,,,,,,,,,,,,,,,,,,,,,,,,,,,,,,,,,,,,,,,,,,,,,,,,,,,,,,,,,,,,,,,,,,,,,,,,,,,,,,,b_8,001,2024-11-29_09h56.10.133,untitled,2024.1.5,None,2024-11-29 09h56.33.867954 +0530,
triangle.png,stranger,1,M,,,,,3,3,15,1,,,,,,,,,,,,,46.19397220003884,,,,,,,,,,,,,,,,,,,,,,,,,,,,,,,,,,46.1779336000327,46.19397220003884,46.677667100098915,46.677667100098915,46.677667100098915,46.677667100098915,46.694409100105986,46.97785110003315,46.97785110003315,46.97785110003315,47.67874830006622,z,0.9995720000006258,None,47.6789931000676,47.69468940002844,48.69537530001253,48.67893370008096,,,,,,,,,,,,,,,,,,,,,,,,,,,,,,,,,,,,,,,,,,,,,,,,,,,,,,,,,,,,,,,,,,,,,,,,,,,,,,,,,,,,b_8,001,2024-11-29_09h56.10.133,untitled,2024.1.5,None,2024-11-29 09h56.33.867954 +0530,
triangle.png,you,0,Z,,,,,4,0,16,3,,,,,,,,,,,,,48.69537530001253,,,,,,,,,,,,,,,,,,,,,,,,,,,,,,,,,,48.679164400091395,48.69537530001253,49.17893760011066,49.17893760011066,49.17893760011066,49.17893760011066,49.19574090000242,49.47910410002805,49.47910410002805,49.47910410002805,50.02993990003597,z,0.8427939999382943,None,50.03018230001908,50.04608240001835,51.04641110007651,51.030403900076635,,,,,,,,,,,,,,,,,,,,,,,,,,,,,,,,,,,,,,,,,,,,,,,,,,,,,,,,,,,,,,,,,,,,,,,,,,,,,,,,,,,,b_8,001,2024-11-29_09h56.10.133,untitled,2024.1.5,None,2024-11-29 09h56.33.867954 +0530,
square.png,you,1,M,,,,,4,1,17,0,,,,,,,,,,,,,51.04641110007651,,,,,,,,,,,,,,,,,,,,,,,,,,,,,,,,,,51.03063330007717,51.04641110007651,51.53011900000274,51.53011900000274,51.53011900000274,51.53011900000274,51.54666290001478,51.830151300062425,51.830151300062425,51.830151300062425,52.26456999999937,m,0.7314397000009194,None,52.264808700070716,52.28051040007267,53.280929400003515,53.26463240000885,,,,,,,,,,,,,,,,,,,,,,,,,,,,,,,,,,,,,,,,,,,,,,,,,,,,,,,,,,,,,,,,,,,,,,,,,,,,,,,,,,,,b_8,001,2024-11-29_09h56.10.133,untitled,2024.1.5,None,2024-11-29 09h56.33.867954 +0530,
square.png,stranger,0,Z,,,,,4,2,18,2,,,,,,,,,,,,,53.280929400003515,,,,,,,,,,,,,,,,,,,,,,,,,,,,,,,,,,53.26486710004974,53.280929400003515,53.7648874000879,53.7648874000879,53.7648874000879,53.7648874000879,53.78118740010541,54.06464280001819,54.06464280001819,54.06464280001819,54.53245110006537,m,0.7602069999556988,None,54.53269600006752,54.54815110005438,55.54864480008837,55.5326461000368,,,,,,,,,,,,,,,,,,,,,,,,,,,,,,,,,,,,,,,,,,,,,,,,,,,,,,,,,,,,,,,,,,,,,,,,,,,,,,,,,,,,b_8,001,2024-11-29_09h56.10.133,untitled,2024.1.5,None,2024-11-29 09h56.33.867954 +0530,
triangle.png,stranger,1,M,,,,,4,3,19,1,,,,,,,,,,,,,55.54864480008837,,,,,,,,,,,,,,,,,,,,,,,,,,,,,,,,,,55.53287990007084,55.54864480008837,56.03241070010699,56.03241070010699,56.03241070010699,56.03241070010699,56.049367400002666,56.33238000003621,56.33238000003621,56.33238000003621,57.116796800051816,None,,,57.11692330008373,57.133034700062126,58.13349430006929,58.1172972000204,57.133034700062126,,,,,,,,,,,,,,,,,,,,,,,,,,,,,,,,,,,,,,,,,,,,,,,,,,,,,,,,,,,,,,,,,,,,,,,,,,,,,,,,,,,b_8,001,2024-11-29_09h56.10.133,untitled,2024.1.5,None,2024-11-29 09h56.33.867954 +0530,
,,,,,,,,,,,,,,,,,,,,,,,,,,,,,,,,,,,,,,,,,,,,,,,,,,,,,,,,,,,,,,,,,,,,,,,,,,,,,58.11734240001533,58.13349430006929,58.13349430006929,59.31802830006927,space,1.1757270999951288,None,,,,,,,,,,,,,,,,,,,,,,,,,,,,,,,,,,,,,,,,,,,,,,,,,,,,,,,,,,,,,,,,,,,,,,,,,,,,b_8,001,2024-11-29_09h56.10.133,untitled,2024.1.5,None,2024-11-29 09h56.33.867954 +0530,
square.png,you,1,M,,,,,,,,,0,0,0,0,,,,,,,,,59.333913000067696,,,,,,,,,,,,,,,,,,,,,,,,,,,,,,,,,,59.32328790007159,59.333913000067696,59.81752410007175,59.81752410007175,59.81752410007175,59.81752410007175,59.83429420005996,60.11770940001588,60.11770940001588,60.11770940001588,60.51863010006491,m,0.6956119999522343,None,60.51931500004139,60.53452400001697,61.535094600054435,61.51913470006548,,,,,,,,,,,,,,,,,,,,,,,,,,,,,,,,,,,,,,,,,,,,,,,,,,,,,,,,,,,,,,,,,,,,,,,,,,,,,,,,,,,,b_8,001,2024-11-29_09h56.10.133,untitled,2024.1.5,None,2024-11-29 09h56.33.867954 +0530,
square.png,stranger,0,Z,,,,,,,,,0,1,1,2,,,,,,,,,61.535094600054435,,,,,,,,,,,,,,,,,,,,,,,,,,,,,,,,,,61.51949500001501,61.535094600054435,62.01885370002128,62.01885370002128,62.01885370002128,62.01885370002128,62.03563790000044,62.31911660009064,62.31911660009064,62.31911660009064,62.803532600053586,m,0.7774603000143543,None,62.80398700002115,62.81920430005994,63.81964860006701,63.80361450009514,,,,,,,,,,,,,,,,,,,,,,,,,,,,,,,,,,,,,,,,,,,,,,,,,,,,,,,,,,,,,,,,,,,,,,,,,,,,,,,,,,,,b_8,001,2024-11-29_09h56.10.133,untitled,2024.1.5,None,2024-11-29 09h56.33.867954 +0530,
triangle.png,stranger,1,M,,,,,,,,,0,2,2,1,,,,,,,,,63.81964860006701,,,,,,,,,,,,,,,,,,,,,,,,,,,,,,,,,,63.80396480008494,63.81964860006701,64.30323469999712,64.30323469999712,64.30323469999712,64.30323469999712,64.31984850007575,64.60358260001522,64.60358260001522,64.60358260001522,65.38770440011285,None,,,65.38789750006981,65.40398750000168,66.40430120006204,66.3880142000271,65.40398750000168,,,,,,,,,,,,,,,,,,,,,,,,,,,,,,,,,,,,,,,,,,,,,,,,,,,,,,,,,,,,,,,,,,,,,,,,,,,,,,,,,,,b_8,001,2024-11-29_09h56.10.133,untitled,2024.1.5,None,2024-11-29 09h56.33.867954 +0530,
triangle.png,you,0,Z,,,,,,,,,0,3,3,3,,,,,,,,,66.40430120006204,,,,,,,,,,,,,,,,,,,,,,,,,,,,,,,,,,66.38837710011285,66.40430120006204,66.90469860006124,66.90469860006124,66.90469860006124,66.90469860006124,66.90469860006124,67.2049296000041,67.2049296000041,67.2049296000041,67.9889863000717,None,,,67.9891753999982,68.00504050008021,69.00591900001746,68.98936920007691,68.00504050008021,,,,,,,,,,,,,,,,,,,,,,,,,,,,,,,,,,,,,,,,,,,,,,,,,,,,,,,,,,,,,,,,,,,,,,,,,,,,,,,,,,,b_8,001,2024-11-29_09h56.10.133,untitled,2024.1.5,None,2024-11-29 09h56.33.867954 +0530,
triangle.png,you,0,Z,,,,,,,,,1,0,4,3,,,,,,,,,69.00591900001746,,,,,,,,,,,,,,,,,,,,,,,,,,,,,,,,,,68.98971730004996,69.00591900001746,69.5061678000493,69.5061678000493,69.5061678000493,69.5061678000493,69.5061678000493,69.80604030005634,69.80604030005634,69.80604030005634,70.3236330000218,z,0.8150647999718785,None,70.32405260007363,70.33979450003244,71.34049800003413,71.32419590000063,,,,,,,,,,,,,,,,,,,,,,,,,,,,,,,,,,,,,,,,,,,,,,,,,,,,,,,,,,,,,,,,,,,,,,,,,,,,,,,,,,,,b_8,001,2024-11-29_09h56.10.133,untitled,2024.1.5,None,2024-11-29 09h56.33.867954 +0530,
triangle.png,stranger,1,M,,,,,,,,,1,1,5,1,,,,,,,,,71.34049800003413,,,,,,,,,,,,,,,,,,,,,,,,,,,,,,,,,,71.3245453001,71.34049800003413,71.82410120009445,71.82410120009445,71.82410120009445,71.82410120009445,71.84071430005133,72.12375190004241,72.12375190004241,72.12375190004241,72.69172380003147,m,0.852287899935618,None,72.69214890000876,72.7075526000699,73.70821530011017,73.6921434000833,,,,,,,,,,,,,,,,,,,,,,,,,,,,,,,,,,,,,,,,,,,,,,,,,,,,,,,,,,,,,,,,,,,,,,,,,,,,,,,,,,,,b_8,001,2024-11-29_09h56.10.133,untitled,2024.1.5,None,2024-11-29 09h56.33.867954 +0530,
square.png,you,1,M,,,,,,,,,1,2,6,0,,,,,,,,,73.70821530011017,,,,,,,,,,,,,,,,,,,,,,,,,,,,,,,,,,73.69249490008224,73.70821530011017,74.19184580002911,74.19184580002911,74.19184580002911,74.19184580002911,74.20847660000436,74.49199820007198,74.49199820007198,74.49199820007198,74.79286560008768,m,0.5935957999899983,None,74.79329180007335,74.80867040005978,75.80916200007778,75.79308360000141,,,,,,,,,,,,,,,,,,,,,,,,,,,,,,,,,,,,,,,,,,,,,,,,,,,,,,,,,,,,,,,,,,,,,,,,,,,,,,,,,,,,b_8,001,2024-11-29_09h56.10.133,untitled,2024.1.5,None,2024-11-29 09h56.33.867954 +0530,
square.png,stranger,0,Z,,,,,,,,,1,3,7,2,,,,,,,,,75.80916200007778,,,,,,,,,,,,,,,,,,,,,,,,,,,,,,,,,,75.79344100004528,75.80916200007778,76.29299700004049,76.29299700004049,76.29299700004049,76.29299700004049,76.30932300002314,76.5929014000576,76.5929014000576,76.5929014000576,77.1442014001077,z,0.8485614999663085,None,77.14466340001673,77.1600370000815,78.1604851000011,78.14415260008536,,,,,,,,,,,,,,,,,,,,,,,,,,,,,,,,,,,,,,,,,,,,,,,,,,,,,,,,,,,,,,,,,,,,,,,,,,,,,,,,,,,,b_8,001,2024-11-29_09h56.10.133,untitled,2024.1.5,None,2024-11-29 09h56.33.867954 +0530,
square.png,you,1,M,,,,,,,,,2,0,8,0,,,,,,,,,78.1604851000011,,,,,,,,,,,,,,,,,,,,,,,,,,,,,,,,,,78.14450390008278,78.1604851000011,78.64437490003183,78.64437490003183,78.64437490003183,78.64437490003183,78.66067340003792,78.9443058000179,78.9443058000179,78.9443058000179,79.0949611000251,m,0.44495160004589707,None,79.09538500010967,79.1110076000914,80.11150800005998,80.09523670002818,,,,,,,,,,,,,,,,,,,,,,,,,,,,,,,,,,,,,,,,,,,,,,,,,,,,,,,,,,,,,,,,,,,,,,,,,,,,,,,,,,,,b_8,001,2024-11-29_09h56.10.133,untitled,2024.1.5,None,2024-11-29 09h56.33.867954 +0530,
square.png,stranger,0,Z,,,,,,,,,2,1,9,2,,,,,,,,,80.11150800005998,,,,,,,,,,,,,,,,,,,,,,,,,,,,,,,,,,80.09559480007738,80.11150800005998,80.59492770000361,80.59492770000361,80.59492770000361,80.59492770000361,80.61180490010884,80.89504110009875,80.89504110009875,80.89504110009875,81.36260400002357,m,0.7625201001064852,None,81.36304260010365,81.37856450001709,82.37922590004746,82.36322450009175,,,,,,,,,,,,,,,,,,,,,,,,,,,,,,,,,,,,,,,,,,,,,,,,,,,,,,,,,,,,,,,,,,,,,,,,,,,,,,,,,,,,b_8,001,2024-11-29_09h56.10.133,untitled,2024.1.5,None,2024-11-29 09h56.33.867954 +0530,
triangle.png,stranger,1,M,,,,,,,,,2,2,10,1,,,,,,,,,82.37922590004746,,,,,,,,,,,,,,,,,,,,,,,,,,,,,,,,,,82.36357470008079,82.37922590004746,82.8628655000357,82.8628655000357,82.8628655000357,82.8628655000357,82.87950720009394,83.16292600007728,83.16292600007728,83.16292600007728,83.63042719999794,m,0.7548139999853447,None,83.63089020003099,83.64636990008876,84.64723740005866,84.6309665000299,,,,,,,,,,,,,,,,,,,,,,,,,,,,,,,,,,,,,,,,,,,,,,,,,,,,,,,,,,,,,,,,,,,,,,,,,,,,,,,,,,,,b_8,001,2024-11-29_09h56.10.133,untitled,2024.1.5,None,2024-11-29 09h56.33.867954 +0530,
triangle.png,you,0,Z,,,,,,,,,2,3,11,3,,,,,,,,,84.64723740005866,,,,,,,,,,,,,,,,,,,,,,,,,,,,,,,,,,84.63132280006539,84.64723740005866,85.13116860005539,85.13116860005539,85.13116860005539,85.13116860005539,85.14735330000985,85.43070540006738,85.43070540006738,85.43070540006738,85.88175310008228,z,0.7418955999892205,None,85.88218080007937,85.89769850007724,86.89823859999888,86.88200130010955,,,,,,,,,,,,,,,,,,,,,,,,,,,,,,,,,,,,,,,,,,,,,,,,,,,,,,,,,,,,,,,,,,,,,,,,,,,,,,,,,,,,b_8,001,2024-11-29_09h56.10.133,untitled,2024.1.5,None,2024-11-29 09h56.33.867954 +0530,
triangle.png,stranger,1,M,,,,,,,,,3,0,12,1,,,,,,,,,86.89823859999888,,,,,,,,,,,,,,,,,,,,,,,,,,,,,,,,,,86.88235390000045,86.89823859999888,87.3820855000522,87.3820855000522,87.3820855000522,87.3820855000522,87.39878050005063,87.68195300002117,87.68195300002117,87.68195300002117,88.032826700015,m,0.6351455999538302,None,88.0332518001087,88.04878820001613,89.04931310005486,89.03350390004925,,,,,,,,,,,,,,,,,,,,,,,,,,,,,,,,,,,,,,,,,,,,,,,,,,,,,,,,,,,,,,,,,,,,,,,,,,,,,,,,,,,,b_8,001,2024-11-29_09h56.10.133,untitled,2024.1.5,None,2024-11-29 09h56.33.867954 +0530,
triangle.png,you,0,Z,,,,,,,,,3,1,13,3,,,,,,,,,89.04931310005486,,,,,,,,,,,,,,,,,,,,,,,,,,,,,,,,,,89.03385700006038,89.04931310005486,89.53303859999869,89.53303859999869,89.53303859999869,89.53303859999869,89.54970660002436,89.8330817000242,89.8330817000242,89.8330817000242,90.26739340007771,z,0.7284807999385521,None,90.26783260004595,90.28340640000533,91.28378130006604,91.26738309999928,,,,,,,,,,,,,,,,,,,,,,,,,,,,,,,,,,,,,,,,,,,,,,,,,,,,,,,,,,,,,,,,,,,,,,,,,,,,,,,,,,,,b_8,001,2024-11-29_09h56.10.133,untitled,2024.1.5,None,2024-11-29 09h56.33.867954 +0530,
square.png,stranger,0,Z,,,,,,,,,3,2,14,2,,,,,,,,,91.28378130006604,,,,,,,,,,,,,,,,,,,,,,,,,,,,,,,,,,91.26774210005533,91.28378130006604,91.76732850004919,91.76732850004919,91.76732850004919,91.76732850004919,91.78418490011245,92.06756340002175,92.06756340002175,92.06756340002175,92.41851270000916,z,0.6463580999989063,None,92.4189563000109,92.43444920005277,93.43502510001417,93.41877020010725,,,,,,,,,,,,,,,,,,,,,,,,,,,,,,,,,,,,,,,,,,,,,,,,,,,,,,,,,,,,,,,,,,,,,,,,,,,,,,,,,,,,b_8,001,2024-11-29_09h56.10.133,untitled,2024.1.5,None,2024-11-29 09h56.33.867954 +0530,
square.png,you,1,M,,,,,,,,,3,3,15,0,,,,,,,,,93.43502510001417,,,,,,,,,,,,,,,,,,,,,,,,,,,,,,,,,,93.4191232000012,93.43502510001417,93.91853920009453,93.91853920009453,93.91853920009453,93.91853920009453,93.9353839000687,94.2187772000907,94.2187772000907,94.2187772000907,94.46938710007817,m,0.5351709999376908,None,94.4698113000486,94.48563430004288,95.48601400002372,95.4697738001123,,,,,,,,,,,,,,,,,,,,,,,,,,,,,,,,,,,,,,,,,,,,,,,,,,,,,,,,,,,,,,,,,,,,,,,,,,,,,,,,,,,,b_8,001,2024-11-29_09h56.10.133,untitled,2024.1.5,None,2024-11-29 09h56.33.867954 +0530,
square.png,stranger,0,Z,,,,,,,,,4,0,16,2,,,,,,,,,95.48601400002372,,,,,,,,,,,,,,,,,,,,,,,,,,,,,,,,,,95.4701394001022,95.48601400002372,95.96963930001948,95.96963930001948,95.96963930001948,95.96963930001948,95.98642630001996,96.26961850002408,96.26961850002408,96.26961850002408,96.65399940009229,z,0.6706225000089034,None,96.65442640008405,96.66989710007329,97.67050010000821,97.6542185000144,,,,,,,,,,,,,,,,,,,,,,,,,,,,,,,,,,,,,,,,,,,,,,,,,,,,,,,,,,,,,,,,,,,,,,,,,,,,,,,,,,,,b_8,001,2024-11-29_09h56.10.133,untitled,2024.1.5,None,2024-11-29 09h56.33.867954 +0530,
triangle.png,you,0,Z,,,,,,,,,4,1,17,3,,,,,,,,,97.67050010000821,,,,,,,,,,,,,,,,,,,,,,,,,,,,,,,,,,97.65458130009938,97.67050010000821,98.1542418000754,98.1542418000754,98.1542418000754,98.1542418000754,98.17079810006544,98.45427380001638,98.45427380001638,98.45427380001638,98.97193270002026,z,0.8112620000028983,None,98.97236090002116,98.98775980004575,99.98841300001368,99.97217200009618,,,,,,,,,,,,,,,,,,,,,,,,,,,,,,,,,,,,,,,,,,,,,,,,,,,,,,,,,,,,,,,,,,,,,,,,,,,,,,,,,,,,b_8,001,2024-11-29_09h56.10.133,untitled,2024.1.5,None,2024-11-29 09h56.33.867954 +0530,
triangle.png,stranger,1,M,,,,,,,,,4,2,18,1,,,,,,,,,99.98841300001368,,,,,,,,,,,,,,,,,,,,,,,,,,,,,,,,,,99.97252720000688,99.98841300001368,100.47220900002867,100.47220900002867,100.47220900002867,100.47220900002867,100.48851940000895,100.77192880003713,100.77192880003713,100.77192880003713,101.55617270001676,None,,,101.55638439999893,101.57243440009188,102.57308940007351,102.55692820006516,101.57243440009188,,,,,,,,,,,,,,,,,,,,,,,,,,,,,,,,,,,,,,,,,,,,,,,,,,,,,,,,,,,,,,,,,,,,,,,,,,,,,,,,,,,b_8,001,2024-11-29_09h56.10.133,untitled,2024.1.5,None,2024-11-29 09h56.33.867954 +0530,
square.png,you,1,M,,,,,,,,,4,3,19,0,,,,,,,,,102.57308940007351,,,,,,,,,,,,,,,,,,,,,,,,,,,,,,,,,,102.55728090007324,102.57308940007351,103.07365360006224,103.07365360006224,103.07365360006224,103.07365360006224,103.07365360006224,103.37326070002746,103.37326070002746,103.37326070002746,103.54107600008138,m,0.45186519995331764,None,103.54150380007923,103.55671890010126,104.55739300011192,104.54117620002944,,,,,,,,,,,,,,,,,,,,,,,,,,,,,,,,,,,,,,,,,,,,,,,,,,,,,,,,,,,,,,,,,,,,,,,,,,,,,,,,,,,,b_8,001,2024-11-29_09h56.10.133,untitled,2024.1.5,None,2024-11-29 09h56.33.867954 +0530,
square.png,stranger,0,Z,,,,,,,,,5,0,20,2,,,,,,,,,104.55739300011192,,,,,,,,,,,,,,,,,,,,,,,,,,,,,,,,,,104.54152860003524,104.55739300011192,105.04128620005213,105.04128620005213,105.04128620005213,105.04128620005213,105.05757810000796,105.34108520008158,105.34108520008158,105.34108520008158,105.99231200001668,z,0.9479826999595389,None,105.99274230003357,106.00802990002558,107.00870270002633,106.99228320003022,,,,,,,,,,,,,,,,,,,,,,,,,,,,,,,,,,,,,,,,,,,,,,,,,,,,,,,,,,,,,,,,,,,,,,,,,,,,,,,,,,,,b_8,001,2024-11-29_09h56.10.133,untitled,2024.1.5,None,2024-11-29 09h56.33.867954 +0530,
square.png,you,1,M,,,,,,,,,5,1,21,0,,,,,,,,,107.00870270002633,,,,,,,,,,,,,,,,,,,,,,,,,,,,,,,,,,106.99263110000174,107.00870270002633,107.49255900003482,107.49255900003482,107.49255900003482,107.49255900003482,107.50906780001242,107.79234929999802,107.79234929999802,107.79234929999802,107.95981020003092,m,0.4525932000251487,None,107.96023490000516,107.97577980009373,108.9763302000938,108.96014510001987,,,,,,,,,,,,,,,,,,,,,,,,,,,,,,,,,,,,,,,,,,,,,,,,,,,,,,,,,,,,,,,,,,,,,,,,,,,,,,,,,,,,b_8,001,2024-11-29_09h56.10.133,untitled,2024.1.5,None,2024-11-29 09h56.33.867954 +0530,
triangle.png,stranger,1,M,,,,,,,,,5,2,22,1,,,,,,,,,108.9763302000938,,,,,,,,,,,,,,,,,,,,,,,,,,,,,,,,,,108.96049590001348,108.9763302000938,109.45989290007856,109.45989290007856,109.45989290007856,109.45989290007856,109.47653000010177,109.76025270007085,109.76025270007085,109.76025270007085,110.04410960001405,m,0.5812152000144124,None,110.04453640000429,110.06019070011098,111.06085150002036,111.04445590008982,,,,,,,,,,,,,,,,,,,,,,,,,,,,,,,,,,,,,,,,,,,,,,,,,,,,,,,,,,,,,,,,,,,,,,,,,,,,,,,,,,,,b_8,001,2024-11-29_09h56.10.133,untitled,2024.1.5,None,2024-11-29 09h56.33.867954 +0530,
triangle.png,you,0,Z,,,,,,,,,5,3,23,3,,,,,,,,,111.06085150002036,,,,,,,,,,,,,,,,,,,,,,,,,,,,,,,,,,111.04480830009561,111.06085150002036,111.54438570002094,111.54438570002094,111.54438570002094,111.54438570002094,111.56092560000252,111.84438240004238,111.84438240004238,111.84438240004238,112.04507370002102,z,0.4852657000301406,None,112.04549879999831,112.06118020007852,113.06195990007836,113.04531519999728,,,,,,,,,,,,,,,,,,,,,,,,,,,,,,,,,,,,,,,,,,,,,,,,,,,,,,,,,,,,,,,,,,,,,,,,,,,,,,,,,,,,b_8,001,2024-11-29_09h56.10.133,untitled,2024.1.5,None,2024-11-29 09h56.33.867954 +0530,
square.png,you,1,M,,,,,,,,,6,0,24,0,,,,,,,,,113.06195990007836,,,,,,,,,,,,,,,,,,,,,,,,,,,,,,,,,,113.0456629000837,113.06195990007836,113.54531470010988,113.54531470010988,113.54531470010988,113.54531470010988,113.56193100009114,113.84531310002785,113.84531310002785,113.84531310002785,114.14632729999721,m,0.5956359999254346,None,114.14675020007417,114.16237420006655,115.16272420005407,115.14645510003902,,,,,,,,,,,,,,,,,,,,,,,,,,,,,,,,,,,,,,,,,,,,,,,,,,,,,,,,,,,,,,,,,,,,,,,,,,,,,,,,,,,,b_8,001,2024-11-29_09h56.10.133,untitled,2024.1.5,None,2024-11-29 09h56.33.867954 +0530,
square.png,stranger,0,Z,,,,,,,,,6,1,25,2,,,,,,,,,115.16272420005407,,,,,,,,,,,,,,,,,,,,,,,,,,,,,,,,,,115.14680510002654,115.16272420005407,115.64628760004416,115.64628760004416,115.64628760004416,115.64628760004416,115.66315060004126,115.9464139000047,115.9464139000047,115.9464139000047,116.44787220004946,z,0.7948885000078008,None,116.44841320009436,116.4634205000475,117.46385820000432,117.44780830002856,,,,,,,,,,,,,,,,,,,,,,,,,,,,,,,,,,,,,,,,,,,,,,,,,,,,,,,,,,,,,,,,,,,,,,,,,,,,,,,,,,,,b_8,001,2024-11-29_09h56.10.133,untitled,2024.1.5,None,2024-11-29 09h56.33.867954 +0530,
triangle.png,stranger,1,M,,,,,,,,,6,2,26,1,,,,,,,,,117.46385820000432,,,,,,,,,,,,,,,,,,,,,,,,,,,,,,,,,,117.44819390005432,117.46385820000432,117.96426870010328,117.96426870010328,117.96426870010328,117.96426870010328,117.96426870010328,118.26453330006916,118.26453330006916,118.26453330006916,118.74889340007212,m,0.7681141999782994,None,118.74931740004104,118.76474210002925,119.76511930010747,119.74895300006028,,,,,,,,,,,,,,,,,,,,,,,,,,,,,,,,,,,,,,,,,,,,,,,,,,,,,,,,,,,,,,,,,,,,,,,,,,,,,,,,,,,,b_8,001,2024-11-29_09h56.10.133,untitled,2024.1.5,None,2024-11-29 09h56.33.867954 +0530,
triangle.png,you,0,Z,,,,,,,,,6,3,27,3,,,,,,,,,119.76511930010747,,,,,,,,,,,,,,,,,,,,,,,,,,,,,,,,,,119.74930650007445,119.76511930010747,120.24870890006423,120.24870890006423,120.24870890006423,120.24870890006423,120.26554950000718,120.54872020008042,120.54872020008042,120.54872020008042,120.68304170004558,z,0.4322429000167176,None,120.68347770010587,120.69891280005686,121.69941090000793,121.68324110005051,,,,,,,,,,,,,,,,,,,,,,,,,,,,,,,,,,,,,,,,,,,,,,,,,,,,,,,,,,,,,,,,,,,,,,,,,,,,,,,,,,,,b_8,001,2024-11-29_09h56.10.133,untitled,2024.1.5,None,2024-11-29 09h56.33.867954 +0530,
square.png,stranger,0,Z,,,,,,,,,7,0,28,2,,,,,,,,,121.69941090000793,,,,,,,,,,,,,,,,,,,,,,,,,,,,,,,,,,121.68359530007001,121.69941090000793,122.18306550011039,122.18306550011039,122.18306550011039,122.18306550011039,122.19964140001684,122.48329390003346,122.48329390003346,122.48329390003346,122.76729980006348,m,0.5707294999156147,None,122.7677357000066,122.78337600000668,123.78401960001793,123.76757460006047,,,,,,,,,,,,,,,,,,,,,,,,,,,,,,,,,,,,,,,,,,,,,,,,,,,,,,,,,,,,,,,,,,,,,,,,,,,,,,,,,,,,b_8,001,2024-11-29_09h56.10.133,untitled,2024.1.5,None,2024-11-29 09h56.33.867954 +0530,
square.png,you,1,M,,,,,,,,,7,1,29,0,,,,,,,,,123.78401960001793,,,,,,,,,,,,,,,,,,,,,,,,,,,,,,,,,,123.76792180002667,123.78401960001793,124.26758580002934,124.26758580002934,124.26758580002934,124.26758580002934,124.28419080004096,124.56758650008123,124.56758650008123,124.56758650008123,124.85192120005377,m,0.5778231000294909,None,124.85234480001964,124.86782250006218,125.86826270003803,125.85194250009954,,,,,,,,,,,,,,,,,,,,,,,,,,,,,,,,,,,,,,,,,,,,,,,,,,,,,,,,,,,,,,,,,,,,,,,,,,,,,,,,,,,,b_8,001,2024-11-29_09h56.10.133,untitled,2024.1.5,None,2024-11-29 09h56.33.867954 +0530,
triangle.png,you,0,Z,,,,,,,,,7,2,30,3,,,,,,,,,125.86826270003803,,,,,,,,,,,,,,,,,,,,,,,,,,,,,,,,,,125.8522986000171,125.86826270003803,126.3519638000289,126.3519638000289,126.3519638000289,126.3519638000289,126.36855130002368,126.65206130000297,126.65206130000297,126.65206130000297,127.0195716000162,z,0.653813200071454,None,127.01999950001482,127.03550050000194,128.0359115001047,128.01967340009287,,,,,,,,,,,,,,,,,,,,,,,,,,,,,,,,,,,,,,,,,,,,,,,,,,,,,,,,,,,,,,,,,,,,,,,,,,,,,,,,,,,,b_8,001,2024-11-29_09h56.10.133,untitled,2024.1.5,None,2024-11-29 09h56.33.867954 +0530,
triangle.png,stranger,1,M,,,,,,,,,7,3,31,1,,,,,,,,,128.0359115001047,,,,,,,,,,,,,,,,,,,,,,,,,,,,,,,,,,128.02002350008115,128.0359115001047,128.5198958000401,128.5198958000401,128.5198958000401,128.5198958000401,128.536428200081,128.81987770006526,128.81987770006526,128.81987770006526,129.18785980006214,m,0.6658508999971673,None,129.1882995000342,129.20338459999766,130.203948300099,130.18750920007005,,,,,,,,,,,,,,,,,,,,,,,,,,,,,,,,,,,,,,,,,,,,,,,,,,,,,,,,,,,,,,,,,,,,,,,,,,,,,,,,,,,,b_8,001,2024-11-29_09h56.10.133,untitled,2024.1.5,None,2024-11-29 09h56.33.867954 +0530,
square.png,you,1,M,,,,,,,,,8,0,32,0,,,,,,,,,130.203948300099,,,,,,,,,,,,,,,,,,,,,,,,,,,,,,,,,,130.18786210007966,130.203948300099,130.68743940000422,130.68743940000422,130.68743940000422,130.68743940000422,130.70429560006596,130.98768250003923,130.98768250003923,130.98768250003923,131.28856950008776,m,0.5981124999234453,None,131.2889971000841,131.3046557001071,132.30476220010314,132.28863990004174,,,,,,,,,,,,,,,,,,,,,,,,,,,,,,,,,,,,,,,,,,,,,,,,,,,,,,,,,,,,,,,,,,,,,,,,,,,,,,,,,,,,b_8,001,2024-11-29_09h56.10.133,untitled,2024.1.5,None,2024-11-29 09h56.33.867954 +0530,
square.png,stranger,0,Z,,,,,,,,,8,1,33,2,,,,,,,,,132.30476220010314,,,,,,,,,,,,,,,,,,,,,,,,,,,,,,,,,,132.28899090003688,132.30476220010314,132.78868600004353,132.78868600004353,132.78868600004353,132.78868600004353,132.80542680004146,133.08882510010153,133.08882510010153,133.08882510010153,133.3894993000431,m,0.5928852000506595,None,133.38993070006836,133.40538470004685,134.40593600005377,134.3898688000627,,,,,,,,,,,,,,,,,,,,,,,,,,,,,,,,,,,,,,,,,,,,,,,,,,,,,,,,,,,,,,,,,,,,,,,,,,,,,,,,,,,,b_8,001,2024-11-29_09h56.10.133,untitled,2024.1.5,None,2024-11-29 09h56.33.867954 +0530,
triangle.png,you,0,Z,,,,,,,,,8,2,34,3,,,,,,,,,134.40593600005377,,,,,,,,,,,,,,,,,,,,,,,,,,,,,,,,,,134.39021720003802,134.40593600005377,134.89006520004477,134.89006520004477,134.89006520004477,134.89006520004477,134.90641880000476,135.18980740010738,135.18980740010738,135.18980740010738,135.49059729999863,z,0.5949256999883801,None,135.4910222000908,135.50667480006814,136.50699750008062,136.4907226000214,,,,,,,,,,,,,,,,,,,,,,,,,,,,,,,,,,,,,,,,,,,,,,,,,,,,,,,,,,,,,,,,,,,,,,,,,,,,,,,,,,,,b_8,001,2024-11-29_09h56.10.133,untitled,2024.1.5,None,2024-11-29 09h56.33.867954 +0530,
triangle.png,stranger,1,M,,,,,,,,,8,3,35,1,,,,,,,,,136.50699750008062,,,,,,,,,,,,,,,,,,,,,,,,,,,,,,,,,,136.49107640003785,136.50699750008062,136.9908160000341,136.9908160000341,136.9908160000341,136.9908160000341,137.00737000000663,137.29088490002323,137.29088490002323,137.29088490002323,137.85856890003197,z,0.8664931000676006,None,137.85899400000926,137.87456350005232,138.87508920009714,138.85860880010296,,,,,,,,,,,,,,,,,,,,,,,,,,,,,,,,,,,,,,,,,,,,,,,,,,,,,,,,,,,,,,,,,,,,,,,,,,,,,,,,,,,,b_8,001,2024-11-29_09h56.10.133,untitled,2024.1.5,None,2024-11-29 09h56.33.867954 +0530,
triangle.png,stranger,1,M,,,,,,,,,9,0,36,1,,,,,,,,,138.87508920009714,,,,,,,,,,,,,,,,,,,,,,,,,,,,,,,,,,138.858959000092,138.87508920009714,139.35855520004407,139.35855520004407,139.35855520004407,139.35855520004407,139.37517870008014,139.658718300052,139.658718300052,139.658718300052,140.0425147000933,m,0.6703104000771418,None,140.04295520007145,140.05855460010935,141.0592962000519,141.04316040000413,,,,,,,,,,,,,,,,,,,,,,,,,,,,,,,,,,,,,,,,,,,,,,,,,,,,,,,,,,,,,,,,,,,,,,,,,,,,,,,,,,,,b_8,001,2024-11-29_09h56.10.133,untitled,2024.1.5,None,2024-11-29 09h56.33.867954 +0530,
square.png,stranger,0,Z,,,,,,,,,9,1,37,2,,,,,,,,,141.0592962000519,,,,,,,,,,,,,,,,,,,,,,,,,,,,,,,,,,141.0435118000023,141.0592962000519,141.54313060001004,141.54313060001004,141.54313060001004,141.54313060001004,141.55991670000367,141.84329780004919,141.84329780004919,141.84329780004919,142.29414710006677,m,0.7463482999010012,None,142.29456680000294,142.31026550009847,143.31068890006281,143.29445710009895,,,,,,,,,,,,,,,,,,,,,,,,,,,,,,,,,,,,,,,,,,,,,,,,,,,,,,,,,,,,,,,,,,,,,,,,,,,,,,,,,,,,b_8,001,2024-11-29_09h56.10.133,untitled,2024.1.5,None,2024-11-29 09h56.33.867954 +0530,
triangle.png,you,0,Z,,,,,,,,,9,2,38,3,,,,,,,,,143.31068890006281,,,,,,,,,,,,,,,,,,,,,,,,,,,,,,,,,,143.29480270005297,143.31068890006281,143.79427880002186,143.79427880002186,143.79427880002186,143.79427880002186,143.81105520005804,144.09427890006918,144.09427890006918,144.09427890006918,144.4783568000421,z,0.682738000061363,None,144.47879050008487,144.49434620002285,145.49504730000626,145.4785674000159,,,,,,,,,,,,,,,,,,,,,,,,,,,,,,,,,,,,,,,,,,,,,,,,,,,,,,,,,,,,,,,,,,,,,,,,,,,,,,,,,,,,b_8,001,2024-11-29_09h56.10.133,untitled,2024.1.5,None,2024-11-29 09h56.33.867954 +0530,
square.png,you,1,M,,,,,,,,,9,3,39,0,,,,,,,,,145.49504730000626,,,,,,,,,,,,,,,,,,,,,,,,,,,,,,,,,,145.47892970009707,145.49504730000626,145.978780800011,145.978780800011,145.978780800011,145.978780800011,145.99548090004828,146.27856040000916,146.27856040000916,146.27856040000916,146.79645960009657,m,0.8135074999881908,None,146.79688450007234,146.81231660000049,147.8130185001064,147.79664790001698,,,,,,,,,,,,,,,,,,,,,,,,,,,,,,,,,,,,,,,,,,,,,,,,,,,,,,,,,,,,,,,,,,,,,,,,,,,,,,,,,,,,b_8,001,2024-11-29_09h56.10.133,untitled,2024.1.5,None,2024-11-29 09h56.33.867954 +0530,
triangle.png,stranger,1,M,,,,,,,,,10,0,40,1,,,,,,,,,147.8130185001064,,,,,,,,,,,,,,,,,,,,,,,,,,,,,,,,,,147.7969946000958,147.8130185001064,148.29652790003456,148.29652790003456,148.29652790003456,148.29652790003456,148.31330900010653,148.59665620001033,148.59665620001033,148.59665620001033,149.09748830005992,m,0.7878363999770954,None,149.0979147000471,149.1137413000688,150.11421230004635,150.0976904000854,,,,,,,,,,,,,,,,,,,,,,,,,,,,,,,,,,,,,,,,,,,,,,,,,,,,,,,,,,,,,,,,,,,,,,,,,,,,,,,,,,,,b_8,001,2024-11-29_09h56.10.133,untitled,2024.1.5,None,2024-11-29 09h56.33.867954 +0530,
square.png,you,1,M,,,,,,,,,10,1,41,0,,,,,,,,,150.11421230004635,,,,,,,,,,,,,,,,,,,,,,,,,,,,,,,,,,150.09804330009501,150.11421230004635,150.59781920001842,150.59781920001842,150.59781920001842,150.59781920001842,150.61452250008006,150.8978939000517,150.8978939000517,150.8978939000517,151.09859560010955,m,0.49197460000868887,None,151.09902480000164,151.11483850004151,152.11499710008502,152.09874180005863,,,,,,,,,,,,,,,,,,,,,,,,,,,,,,,,,,,,,,,,,,,,,,,,,,,,,,,,,,,,,,,,,,,,,,,,,,,,,,,,,,,,b_8,001,2024-11-29_09h56.10.133,untitled,2024.1.5,None,2024-11-29 09h56.33.867954 +0530,
square.png,stranger,0,Z,,,,,,,,,10,2,42,2,,,,,,,,,152.11499710008502,,,,,,,,,,,,,,,,,,,,,,,,,,,,,,,,,,152.09909180004615,152.11499710008502,152.59884350001812,152.59884350001812,152.59884350001812,152.59884350001812,152.61552950006444,152.89890860009473,152.89890860009473,152.89890860009473,153.24990650010295,z,0.6385906999930739,None,153.2503320000833,153.26561850006692,154.26642650004942,154.25000980007462,,,,,,,,,,,,,,,,,,,,,,,,,,,,,,,,,,,,,,,,,,,,,,,,,,,,,,,,,,,,,,,,,,,,,,,,,,,,,,,,,,,,b_8,001,2024-11-29_09h56.10.133,untitled,2024.1.5,None,2024-11-29 09h56.33.867954 +0530,
triangle.png,you,0,Z,,,,,,,,,10,3,43,3,,,,,,,,,154.26642650004942,,,,,,,,,,,,,,,,,,,,,,,,,,,,,,,,,,154.25035840005148,154.26642650004942,154.74991550005507,154.74991550005507,154.74991550005507,154.74991550005507,154.76654490001965,155.0499319001101,155.0499319001101,155.0499319001101,155.2339781000046,m,0.4705954999662936,None,155.23439800005872,155.2499721000204,156.25048860011157,156.23423910001293,,,,,,,,,,,,,,,,,,,,,,,,,,,,,,,,,,,,,,,,,,,,,,,,,,,,,,,,,,,,,,,,,,,,,,,,,,,,,,,,,,,,b_8,001,2024-11-29_09h56.10.133,untitled,2024.1.5,None,2024-11-29 09h56.33.867954 +0530,
square.png,stranger,0,Z,,,,,,,,,11,0,44,2,,,,,,,,,156.25048860011157,,,,,,,,,,,,,,,,,,,,,,,,,,,,,,,,,,156.23459590005223,156.25048860011157,156.73413690004963,156.73413690004963,156.73413690004963,156.73413690004963,156.75098350003827,157.03416910010856,157.03416910010856,157.03416910010856,157.30186980008148,m,0.5631522000767291,None,157.30229390005115,157.31809140008409,158.3183998001041,158.30223150004167,,,,,,,,,,,,,,,,,,,,,,,,,,,,,,,,,,,,,,,,,,,,,,,,,,,,,,,,,,,,,,,,,,,,,,,,,,,,,,,,,,,,b_8,001,2024-11-29_09h56.10.133,untitled,2024.1.5,None,2024-11-29 09h56.33.867954 +0530,
triangle.png,stranger,1,M,,,,,,,,,11,1,45,1,,,,,,,,,158.3183998001041,,,,,,,,,,,,,,,,,,,,,,,,,,,,,,,,,,158.3025802000193,158.3183998001041,158.802092500031,158.802092500031,158.802092500031,158.802092500031,158.818748800084,159.10191389999818,159.10191389999818,159.10191389999818,159.43613610009197,m,0.6183004000922665,None,159.43655690003652,159.4523041000357,160.45265590003692,160.43656930001453,,,,,,,,,,,,,,,,,,,,,,,,,,,,,,,,,,,,,,,,,,,,,,,,,,,,,,,,,,,,,,,,,,,,,,,,,,,,,,,,,,,,b_8,001,2024-11-29_09h56.10.133,untitled,2024.1.5,None,2024-11-29 09h56.33.867954 +0530,
triangle.png,you,0,Z,,,,,,,,,11,2,46,3,,,,,,,,,160.45265590003692,,,,,,,,,,,,,,,,,,,,,,,,,,,,,,,,,,160.43692340003327,160.45265590003692,160.9365280000493,160.9365280000493,160.9365280000493,160.9365280000493,160.95302270003594,161.2362438000273,161.2362438000273,161.2362438000273,161.68741710006725,z,0.7488077000016347,None,161.6878387000179,161.703485700069,162.70380150002893,162.68763150006998,,,,,,,,,,,,,,,,,,,,,,,,,,,,,,,,,,,,,,,,,,,,,,,,,,,,,,,,,,,,,,,,,,,,,,,,,,,,,,,,,,,,b_8,001,2024-11-29_09h56.10.133,untitled,2024.1.5,None,2024-11-29 09h56.33.867954 +0530,
square.png,you,1,M,,,,,,,,,11,3,47,0,,,,,,,,,162.70380150002893,,,,,,,,,,,,,,,,,,,,,,,,,,,,,,,,,,162.6879779000301,162.70380150002893,163.18756620003842,163.18756620003842,163.18756620003842,163.18756620003842,163.20415180001874,163.48750540008768,163.48750540008768,163.48750540008768,163.6886547000613,m,0.4939150999998674,None,163.68907830002718,163.70440530008636,164.70482550002635,164.68886630004272,,,,,,,,,,,,,,,,,,,,,,,,,,,,,,,,,,,,,,,,,,,,,,,,,,,,,,,,,,,,,,,,,,,,,,,,,,,,,,,,,,,,b_8,001,2024-11-29_09h56.10.133,untitled,2024.1.5,None,2024-11-29 09h56.33.867954 +0530,
square.png,you,1,M,,,,,,,,,12,0,48,0,,,,,,,,,164.70482550002635,,,,,,,,,,,,,,,,,,,,,,,,,,,,,,,,,,164.68921990005765,164.70482550002635,165.1886790000135,165.1886790000135,165.1886790000135,165.1886790000135,165.2051837000763,165.48868170008063,165.48868170008063,165.48868170008063,165.9062826000154,m,0.7128692000405863,None,165.90670839999802,165.92223460006062,166.9229472000152,166.90657770005055,,,,,,,,,,,,,,,,,,,,,,,,,,,,,,,,,,,,,,,,,,,,,,,,,,,,,,,,,,,,,,,,,,,,,,,,,,,,,,,,,,,,b_8,001,2024-11-29_09h56.10.133,untitled,2024.1.5,None,2024-11-29 09h56.33.867954 +0530,
triangle.png,you,0,Z,,,,,,,,,12,1,49,3,,,,,,,,,166.9229472000152,,,,,,,,,,,,,,,,,,,,,,,,,,,,,,,,,,166.90693300007842,166.9229472000152,167.40633560006972,167.40633560006972,167.40633560006972,167.40633560006972,167.42291700001806,167.7063488001004,167.7063488001004,167.7063488001004,168.07382570009213,z,0.6517405000049621,None,168.07426400005352,168.09004370006733,169.09062450006604,169.07434900000226,,,,,,,,,,,,,,,,,,,,,,,,,,,,,,,,,,,,,,,,,,,,,,,,,,,,,,,,,,,,,,,,,,,,,,,,,,,,,,,,,,,,b_8,001,2024-11-29_09h56.10.133,untitled,2024.1.5,None,2024-11-29 09h56.33.867954 +0530,
triangle.png,stranger,1,M,,,,,,,,,12,2,50,1,,,,,,,,,169.09062450006604,,,,,,,,,,,,,,,,,,,,,,,,,,,,,,,,,,169.07470370002557,169.09062450006604,169.5741551000392,169.5741551000392,169.5741551000392,169.5741551000392,169.59091470006388,169.8743703000946,169.8743703000946,169.8743703000946,170.1585131000029,z,0.5712416999740526,None,170.15894740005024,170.17431780009065,171.17480050004087,171.1588132000761,,,,,,,,,,,,,,,,,,,,,,,,,,,,,,,,,,,,,,,,,,,,,,,,,,,,,,,,,,,,,,,,,,,,,,,,,,,,,,,,,,,,b_8,001,2024-11-29_09h56.10.133,untitled,2024.1.5,None,2024-11-29 09h56.33.867954 +0530,
square.png,stranger,0,Z,,,,,,,,,12,3,51,2,,,,,,,,,171.17480050004087,,,,,,,,,,,,,,,,,,,,,,,,,,,,,,,,,,171.15918200009037,171.17480050004087,171.65845060010906,171.65845060010906,171.65845060010906,171.65845060010906,171.6751942000119,171.95877970010042,171.95877970010042,171.95877970010042,172.32598710001912,z,0.6518496999051422,None,172.32642170006875,172.34211160009727,173.3427076000953,173.3265892000636,,,,,,,,,,,,,,,,,,,,,,,,,,,,,,,,,,,,,,,,,,,,,,,,,,,,,,,,,,,,,,,,,,,,,,,,,,,,,,,,,,,,b_8,001,2024-11-29_09h56.10.133,untitled,2024.1.5,None,2024-11-29 09h56.33.867954 +0530,
square.png,stranger,0,Z,,,,,,,,,13,0,52,2,,,,,,,,,173.3427076000953,,,,,,,,,,,,,,,,,,,,,,,,,,,,,,,,,,173.32693830004428,173.3427076000953,173.82658000010997,173.82658000010997,173.82658000010997,173.82658000010997,173.84295380010735,174.12629230006132,174.12629230006132,174.12629230006132,174.5107664000243,m,0.6697869999334216,None,174.51119080011267,174.52682980010286,175.52730590000283,175.51101640006527,,,,,,,,,,,,,,,,,,,,,,,,,,,,,,,,,,,,,,,,,,,,,,,,,,,,,,,,,,,,,,,,,,,,,,,,,,,,,,,,,,,,b_8,001,2024-11-29_09h56.10.133,untitled,2024.1.5,None,2024-11-29 09h56.33.867954 +0530,
triangle.png,you,0,Z,,,,,,,,,13,1,53,3,,,,,,,,,175.52730590000283,,,,,,,,,,,,,,,,,,,,,,,,,,,,,,,,,,175.51136760006193,175.52730590000283,176.01101590006147,176.01101590006147,176.01101590006147,176.01101590006147,176.02758300001733,176.31086620001588,176.31086620001588,176.31086620001588,176.86184410005808,z,0.8350320999743417,None,176.8623245001072,176.87790290010162,177.87836360000074,177.86212310008705,,,,,,,,,,,,,,,,,,,,,,,,,,,,,,,,,,,,,,,,,,,,,,,,,,,,,,,,,,,,,,,,,,,,,,,,,,,,,,,,,,,,b_8,001,2024-11-29_09h56.10.133,untitled,2024.1.5,None,2024-11-29 09h56.33.867954 +0530,
square.png,you,1,M,,,,,,,,,13,2,54,0,,,,,,,,,177.87836360000074,,,,,,,,,,,,,,,,,,,,,,,,,,,,,,,,,,177.86247710010502,177.87836360000074,178.3620515000075,178.3620515000075,178.3620515000075,178.3620515000075,178.3784874000121,178.66215810005087,178.66215810005087,178.66215810005087,179.06305870006327,m,0.695796100073494,None,179.06348780007102,179.07917410007212,180.07963690010365,180.06315450009424,,,,,,,,,,,,,,,,,,,,,,,,,,,,,,,,,,,,,,,,,,,,,,,,,,,,,,,,,,,,,,,,,,,,,,,,,,,,,,,,,,,,b_8,001,2024-11-29_09h56.10.133,untitled,2024.1.5,None,2024-11-29 09h56.33.867954 +0530,
triangle.png,stranger,1,M,,,,,,,,,13,3,55,1,,,,,,,,,180.07963690010365,,,,,,,,,,,,,,,,,,,,,,,,,,,,,,,,,,180.0635083001107,180.07963690010365,180.56333270005416,180.56333270005416,180.56333270005416,180.56333270005416,180.57991630001925,180.86304020008538,180.86304020008538,180.86304020008538,181.11427290004212,z,0.5489515999797732,None,181.1147019000491,181.1298597001005,182.13032830005977,182.1142243000213,,,,,,,,,,,,,,,,,,,,,,,,,,,,,,,,,,,,,,,,,,,,,,,,,,,,,,,,,,,,,,,,,,,,,,,,,,,,,,,,,,,,b_8,001,2024-11-29_09h56.10.133,untitled,2024.1.5,None,2024-11-29 09h56.33.867954 +0530,
square.png,you,1,M,,,,,,,,,14,0,56,0,,,,,,,,,182.13032830005977,,,,,,,,,,,,,,,,,,,,,,,,,,,,,,,,,,182.11457940004766,182.13032830005977,182.6142274000449,182.6142274000449,182.6142274000449,182.6142274000449,182.63092520006467,182.91391910007223,182.91391910007223,182.91391910007223,183.23177230008878,m,0.6152343000285327,None,183.23220460000448,183.2478578001028,184.24824620003346,184.23207760008518,,,,,,,,,,,,,,,,,,,,,,,,,,,,,,,,,,,,,,,,,,,,,,,,,,,,,,,,,,,,,,,,,,,,,,,,,,,,,,,,,,,,b_8,001,2024-11-29_09h56.10.133,untitled,2024.1.5,None,2024-11-29 09h56.33.867954 +0530,
triangle.png,you,0,Z,,,,,,,,,14,1,57,3,,,,,,,,,184.24824620003346,,,,,,,,,,,,,,,,,,,,,,,,,,,,,,,,,,184.2324315001024,184.24824620003346,184.73203130008187,184.73203130008187,184.73203130008187,184.73203130008187,184.74862530000973,185.03205760009587,185.03205760009587,185.03205760009587,185.4996091000503,z,0.7530808999435976,None,185.50003850006033,185.51565770001616,186.51617620000616,186.49985790008213,,,,,,,,,,,,,,,,,,,,,,,,,,,,,,,,,,,,,,,,,,,,,,,,,,,,,,,,,,,,,,,,,,,,,,,,,,,,,,,,,,,,b_8,001,2024-11-29_09h56.10.133,untitled,2024.1.5,None,2024-11-29 09h56.33.867954 +0530,
triangle.png,stranger,1,M,,,,,,,,,14,2,58,1,,,,,,,,,186.51617620000616,,,,,,,,,,,,,,,,,,,,,,,,,,,,,,,,,,186.50020530004986,186.51617620000616,186.99979620007798,186.99979620007798,186.99979620007798,186.99979620007798,187.0165347000584,187.29991260007955,187.29991260007955,187.29991260007955,187.68404950003605,z,0.6765793999657035,None,187.6844755000202,187.70018700009678,188.7006009001052,188.68437140004244,,,,,,,,,,,,,,,,,,,,,,,,,,,,,,,,,,,,,,,,,,,,,,,,,,,,,,,,,,,,,,,,,,,,,,,,,,,,,,,,,,,,b_8,001,2024-11-29_09h56.10.133,untitled,2024.1.5,None,2024-11-29 09h56.33.867954 +0530,
square.png,stranger,0,Z,,,,,,,,,14,3,59,2,,,,,,,,,188.7006009001052,,,,,,,,,,,,,,,,,,,,,,,,,,,,,,,,,,188.68473160010763,188.7006009001052,189.1842820000602,189.1842820000602,189.1842820000602,189.1842820000602,189.20085460005794,189.48419900005683,189.48419900005683,189.48419900005683,189.90183580003213,z,0.7160829999484122,None,189.90226030000485,189.91798990010284,190.91852950002067,190.9021148000611,,,,,,,,,,,,,,,,,,,,,,,,,,,,,,,,,,,,,,,,,,,,,,,,,,,,,,,,,,,,,,,,,,,,,,,,,,,,,,,,,,,,b_8,001,2024-11-29_09h56.10.133,untitled,2024.1.5,None,2024-11-29 09h56.33.867954 +0530,
triangle.png,you,0,Z,,,,,,,,,15,0,60,3,,,,,,,,,190.91852950002067,,,,,,,,,,,,,,,,,,,,,,,,,,,,,,,,,,190.90247020008974,190.91852950002067,191.4023285000585,191.4023285000585,191.4023285000585,191.4023285000585,191.41860570001882,191.70191310008522,191.70191310008522,191.70191310008522,192.3531062999973,z,0.9379844999639317,None,192.35353860002942,192.36923090007622,193.3697745000245,193.35336639999878,,,,,,,,,,,,,,,,,,,,,,,,,,,,,,,,,,,,,,,,,,,,,,,,,,,,,,,,,,,,,,,,,,,,,,,,,,,,,,,,,,,,b_8,001,2024-11-29_09h56.10.133,untitled,2024.1.5,None,2024-11-29 09h56.33.867954 +0530,
square.png,stranger,0,Z,,,,,,,,,15,1,61,2,,,,,,,,,193.3697745000245,,,,,,,,,,,,,,,,,,,,,,,,,,,,,,,,,,193.35372770007234,193.3697745000245,193.85333130008075,193.85333130008075,193.85333130008075,193.85333130008075,193.86995110008866,194.1534167000791,194.1534167000791,194.1534167000791,194.53763090004213,z,0.6829304000129923,None,194.53805440000724,194.5537212000927,195.55415800004266,195.53796149999835,,,,,,,,,,,,,,,,,,,,,,,,,,,,,,,,,,,,,,,,,,,,,,,,,,,,,,,,,,,,,,,,,,,,,,,,,,,,,,,,,,,,b_8,001,2024-11-29_09h56.10.133,untitled,2024.1.5,None,2024-11-29 09h56.33.867954 +0530,
square.png,you,1,M,,,,,,,,,15,2,62,0,,,,,,,,,195.55415800004266,,,,,,,,,,,,,,,,,,,,,,,,,,,,,,,,,,195.53831860003993,195.55415800004266,196.03772900009062,196.03772900009062,196.03772900009062,196.03772900009062,196.05442640010733,196.33794320002198,196.33794320002198,196.33794320002198,196.70539710007142,m,0.6561589000048116,None,196.70583760004956,196.72106260003056,197.72193170001265,197.70565450005233,,,,,,,,,,,,,,,,,,,,,,,,,,,,,,,,,,,,,,,,,,,,,,,,,,,,,,,,,,,,,,,,,,,,,,,,,,,,,,,,,,,,b_8,001,2024-11-29_09h56.10.133,untitled,2024.1.5,None,2024-11-29 09h56.33.867954 +0530,
triangle.png,stranger,1,M,,,,,,,,,15,3,63,1,,,,,,,,,197.72193170001265,,,,,,,,,,,,,,,,,,,,,,,,,,,,,,,,,,197.70600950007793,197.72193170001265,198.20559760008473,198.20559760008473,198.20559760008473,198.20559760008473,198.2221308000153,198.50569080002606,198.50569080002606,198.50569080002606,198.95643320004456,m,0.7477677999995649,None,198.9568636000622,198.9726154000964,199.9729675000999,199.9568649000721,,,,,,,,,,,,,,,,,,,,,,,,,,,,,,,,,,,,,,,,,,,,,,,,,,,,,,,,,,,,,,,,,,,,,,,,,,,,,,,,,,,,b_8,001,2024-11-29_09h56.10.133,untitled,2024.1.5,None,2024-11-29 09h56.33.867954 +0530,
square.png,stranger,0,Z,,,,,,,,,16,0,64,2,,,,,,,,,199.9729675000999,,,,,,,,,,,,,,,,,,,,,,,,,,,,,,,,,,199.9572129000444,199.9729675000999,200.45670310000423,200.45670310000423,200.45670310000423,200.45670310000423,200.4732780000195,200.75685610005166,200.75685610005166,200.75685610005166,201.1578787000617,z,0.7001141998916864,None,201.15830160002224,201.17360229999758,202.17415060009807,202.15786610008217,,,,,,,,,,,,,,,,,,,,,,,,,,,,,,,,,,,,,,,,,,,,,,,,,,,,,,,,,,,,,,,,,,,,,,,,,,,,,,,,,,,,b_8,001,2024-11-29_09h56.10.133,untitled,2024.1.5,None,2024-11-29 09h56.33.867954 +0530,
triangle.png,you,0,Z,,,,,,,,,16,1,65,3,,,,,,,,,202.17415060009807,,,,,,,,,,,,,,,,,,,,,,,,,,,,,,,,,,202.15821630007122,202.17415060009807,202.6578135000309,202.6578135000309,202.6578135000309,202.6578135000309,202.67445360007696,202.95783480000682,202.95783480000682,202.95783480000682,203.34206610010006,z,0.6753128999844193,None,203.342492600088,203.3581748000579,204.35871840000618,204.34229310008232,,,,,,,,,,,,,,,,,,,,,,,,,,,,,,,,,,,,,,,,,,,,,,,,,,,,,,,,,,,,,,,,,,,,,,,,,,,,,,,,,,,,b_8,001,2024-11-29_09h56.10.133,untitled,2024.1.5,None,2024-11-29 09h56.33.867954 +0530,
square.png,you,1,M,,,,,,,,,16,2,66,0,,,,,,,,,204.35871840000618,,,,,,,,,,,,,,,,,,,,,,,,,,,,,,,,,,204.34264180005994,204.35871840000618,204.84248530003242,204.84248530003242,204.84248530003242,204.84248530003242,204.8590832001064,205.14224920002744,205.14224920002744,205.14224920002744,205.44323370000347,m,0.5875240000896156,None,205.44365660008043,205.45922660001088,206.45975920010824,206.44341240008362,,,,,,,,,,,,,,,,,,,,,,,,,,,,,,,,,,,,,,,,,,,,,,,,,,,,,,,,,,,,,,,,,,,,,,,,,,,,,,,,,,,,b_8,001,2024-11-29_09h56.10.133,untitled,2024.1.5,None,2024-11-29 09h56.33.867954 +0530,
triangle.png,stranger,1,M,,,,,,,,,16,3,67,1,,,,,,,,,206.45975920010824,,,,,,,,,,,,,,,,,,,,,,,,,,,,,,,,,,206.4437576000346,206.45975920010824,206.94345370004885,206.94345370004885,206.94345370004885,206.94345370004885,206.95996360003483,207.24346400005743,207.24346400005743,207.24346400005743,207.71116940001957,m,0.7580706999870017,None,207.71159690001514,207.72709660010878,208.7277014000574,208.71119719999842,,,,,,,,,,,,,,,,,,,,,,,,,,,,,,,,,,,,,,,,,,,,,,,,,,,,,,,,,,,,,,,,,,,,,,,,,,,,,,,,,,,,b_8,001,2024-11-29_09h56.10.133,untitled,2024.1.5,None,2024-11-29 09h56.33.867954 +0530,
triangle.png,stranger,1,M,,,,,,,,,17,0,68,1,,,,,,,,,208.7277014000574,,,,,,,,,,,,,,,,,,,,,,,,,,,,,,,,,,208.7115471001016,208.7277014000574,209.2113867000444,209.2113867000444,209.2113867000444,209.2113867000444,209.22775050008204,209.51114770001732,209.51114770001732,209.51114770001732,210.1291223000735,m,0.9147163999732584,None,210.129546900047,210.14481880003586,211.14535820006859,211.1291107001016,,,,,,,,,,,,,,,,,,,,,,,,,,,,,,,,,,,,,,,,,,,,,,,,,,,,,,,,,,,,,,,,,,,,,,,,,,,,,,,,,,,,b_8,001,2024-11-29_09h56.10.133,untitled,2024.1.5,None,2024-11-29 09h56.33.867954 +0530,
triangle.png,you,0,Z,,,,,,,,,17,1,69,3,,,,,,,,,211.14535820006859,,,,,,,,,,,,,,,,,,,,,,,,,,,,,,,,,,211.12945960008074,211.14535820006859,211.62928100000136,211.62928100000136,211.62928100000136,211.62928100000136,211.64560800010804,211.92910710000433,211.92910710000433,211.92910710000433,212.28006850008387,z,0.6403835999080911,None,212.2805059000384,212.29617480002344,213.2964908001013,213.2802850001026,,,,,,,,,,,,,,,,,,,,,,,,,,,,,,,,,,,,,,,,,,,,,,,,,,,,,,,,,,,,,,,,,,,,,,,,,,,,,,,,,,,,b_8,001,2024-11-29_09h56.10.133,untitled,2024.1.5,None,2024-11-29 09h56.33.867954 +0530,
square.png,stranger,0,Z,,,,,,,,,17,2,70,2,,,,,,,,,213.2964908001013,,,,,,,,,,,,,,,,,,,,,,,,,,,,,,,,,,213.28063600009773,213.2964908001013,213.7801603000844,213.7801603000844,213.7801603000844,213.7801603000844,213.79672370001208,214.08036700007506,214.08036700007506,214.08036700007506,214.53118500008713,z,0.74488679994829,None,214.53168900008313,214.54746330005582,215.54779830004554,215.53139040002134,,,,,,,,,,,,,,,,,,,,,,,,,,,,,,,,,,,,,,,,,,,,,,,,,,,,,,,,,,,,,,,,,,,,,,,,,,,,,,,,,,,,b_8,001,2024-11-29_09h56.10.133,untitled,2024.1.5,None,2024-11-29 09h56.33.867954 +0530,
square.png,you,1,M,,,,,,,,,17,3,71,0,,,,,,,,,215.54779830004554,,,,,,,,,,,,,,,,,,,,,,,,,,,,,,,,,,215.5317452000454,215.54779830004554,216.03126640000846,216.03126640000846,216.03126640000846,216.03126640000846,216.04789640009403,216.33132850006223,216.33132850006223,216.33132850006223,216.66568380000535,m,0.6301916000666097,None,216.66611150000244,216.68152650003321,217.68208580010105,217.66600690002088,,,,,,,,,,,,,,,,,,,,,,,,,,,,,,,,,,,,,,,,,,,,,,,,,,,,,,,,,,,,,,,,,,,,,,,,,,,,,,,,,,,,b_8,001,2024-11-29_09h56.10.133,untitled,2024.1.5,None,2024-11-29 09h56.33.867954 +0530,
square.png,you,1,M,,,,,,,,,18,0,72,0,,,,,,,,,217.68208580010105,,,,,,,,,,,,,,,,,,,,,,,,,,,,,,,,,,217.66636040003505,217.68208580010105,218.1657031000359,218.1657031000359,218.1657031000359,218.1657031000359,218.1823713000631,218.4658494000323,218.4658494000323,218.4658494000323,218.90004830004182,m,0.7282412999775261,None,218.90047720004804,218.9162521000253,219.9166666000383,219.90057480009273,,,,,,,,,,,,,,,,,,,,,,,,,,,,,,,,,,,,,,,,,,,,,,,,,,,,,,,,,,,,,,,,,,,,,,,,,,,,,,,,,,,,b_8,001,2024-11-29_09h56.10.133,untitled,2024.1.5,None,2024-11-29 09h56.33.867954 +0530,
square.png,stranger,0,Z,,,,,,,,,18,1,73,2,,,,,,,,,219.9166666000383,,,,,,,,,,,,,,,,,,,,,,,,,,,,,,,,,,219.90092560008634,219.9166666000383,220.4004846001044,220.4004846001044,220.4004846001044,220.4004846001044,220.41685530007817,220.70035700011067,220.70035700011067,220.70035700011067,221.1680485000834,z,0.7606504999566823,None,221.16847220005002,221.1838683000533,222.18449790007435,222.16841340006795,,,,,,,,,,,,,,,,,,,,,,,,,,,,,,,,,,,,,,,,,,,,,,,,,,,,,,,,,,,,,,,,,,,,,,,,,,,,,,,,,,,,b_8,001,2024-11-29_09h56.10.133,untitled,2024.1.5,None,2024-11-29 09h56.33.867954 +0530,
triangle.png,stranger,1,M,,,,,,,,,18,2,74,1,,,,,,,,,222.18449790007435,,,,,,,,,,,,,,,,,,,,,,,,,,,,,,,,,,222.16879610007163,222.18449790007435,222.6681457000086,222.6681457000086,222.6681457000086,222.6681457000086,222.68498090002686,222.96801390009932,222.96801390009932,222.96801390009932,223.35242570005357,m,0.6761389999883249,None,223.35285290004686,223.36829390004277,224.3689463000046,224.35245140001643,,,,,,,,,,,,,,,,,,,,,,,,,,,,,,,,,,,,,,,,,,,,,,,,,,,,,,,,,,,,,,,,,,,,,,,,,,,,,,,,,,,,b_8,001,2024-11-29_09h56.10.133,untitled,2024.1.5,None,2024-11-29 09h56.33.867954 +0530,
triangle.png,you,0,Z,,,,,,,,,18,3,75,3,,,,,,,,,224.3689463000046,,,,,,,,,,,,,,,,,,,,,,,,,,,,,,,,,,224.35280460002832,224.3689463000046,224.85276930010878,224.85276930010878,224.85276930010878,224.85276930010878,224.8693823000649,225.1526374000823,225.1526374000823,225.1526374000823,225.42027800006326,z,0.5515463999472558,None,225.4207009000238,225.4360271000769,226.43651780008804,226.4204148000572,,,,,,,,,,,,,,,,,,,,,,,,,,,,,,,,,,,,,,,,,,,,,,,,,,,,,,,,,,,,,,,,,,,,,,,,,,,,,,,,,,,,b_8,001,2024-11-29_09h56.10.133,untitled,2024.1.5,None,2024-11-29 09h56.33.867954 +0530,
triangle.png,stranger,1,M,,,,,,,,,19,0,76,1,,,,,,,,,226.43651780008804,,,,,,,,,,,,,,,,,,,,,,,,,,,,,,,,,,226.42076940007973,226.43651780008804,226.92019660002552,226.92019660002552,226.92019660002552,226.92019660002552,226.93681250000373,227.22033140005078,227.22033140005078,227.22033140005078,227.62133250001352,m,0.6968294000253081,None,227.62175650009885,227.63742780010216,228.63799410010688,228.62147580005694,,,,,,,,,,,,,,,,,,,,,,,,,,,,,,,,,,,,,,,,,,,,,,,,,,,,,,,,,,,,,,,,,,,,,,,,,,,,,,,,,,,,b_8,001,2024-11-29_09h56.10.133,untitled,2024.1.5,None,2024-11-29 09h56.33.867954 +0530,
square.png,stranger,0,Z,,,,,,,,,19,1,77,2,,,,,,,,,228.63799410010688,,,,,,,,,,,,,,,,,,,,,,,,,,,,,,,,,,228.62182660005055,228.63799410010688,229.1213693000609,229.1213693000609,229.1213693000609,229.1213693000609,229.13799650000874,229.42135760001838,229.42135760001838,229.42135760001838,229.8555694000097,z,0.7239575999556109,None,229.85604320000857,229.87170480005443,230.87228300003335,230.85615220002364,,,,,,,,,,,,,,,,,,,,,,,,,,,,,,,,,,,,,,,,,,,,,,,,,,,,,,,,,,,,,,,,,,,,,,,,,,,,,,,,,,,,b_8,001,2024-11-29_09h56.10.133,untitled,2024.1.5,None,2024-11-29 09h56.33.867954 +0530,
square.png,you,1,M,,,,,,,,,19,2,78,0,,,,,,,,,230.87228300003335,,,,,,,,,,,,,,,,,,,,,,,,,,,,,,,,,,230.85650100000203,230.87228300003335,231.3558496000478,231.3558496000478,231.3558496000478,231.3558496000478,231.37258290010504,231.6558749000542,231.6558749000542,231.6558749000542,231.88993300008588,m,0.5291919000446796,None,231.89036700001452,231.90629910002463,232.90650650009047,232.89056710002478,,,,,,,,,,,,,,,,,,,,,,,,,,,,,,,,,,,,,,,,,,,,,,,,,,,,,,,,,,,,,,,,,,,,,,,,,,,,,,,,,,,,b_8,001,2024-11-29_09h56.10.133,untitled,2024.1.5,None,2024-11-29 09h56.33.867954 +0530,
triangle.png,you,0,Z,,,,,,,,,19,3,79,3,,,,,,,,,232.90650650009047,,,,,,,,,,,,,,,,,,,,,,,,,,,,,,,,,,232.8909151001135,232.90650650009047,233.39036200009286,233.39036200009286,233.39036200009286,233.39036200009286,233.40709180000704,233.69023110007402,233.69023110007402,233.69023110007402,234.05825520004146,z,0.665916100027971,None,234.05868080002256,234.07401690003462,235.07435600005556,235.05820650001988,,,,,,,,,,,,,,,,,,,,,,,,,,,,,,,,,,,,,,,,,,,,,,,,,,,,,,,,,,,,,,,,,,,,,,,,,,,,,,,,,,,,b_8,001,2024-11-29_09h56.10.133,untitled,2024.1.5,None,2024-11-29 09h56.33.867954 +0530,
square.png,you,1,M,,,,,,,,,20,0,80,0,,,,,,,,,235.07435600005556,,,,,,,,,,,,,,,,,,,,,,,,,,,,,,,,,,235.0585588000249,235.07435600005556,235.5580093000317,235.5580093000317,235.5580093000317,235.5580093000317,235.57463850011118,235.85802270006388,235.85802270006388,235.85802270006388,236.1257366000209,m,0.5583424000069499,None,236.1261612001108,236.14144770009443,237.14202930009924,237.12578690005466,,,,,,,,,,,,,,,,,,,,,,,,,,,,,,,,,,,,,,,,,,,,,,,,,,,,,,,,,,,,,,,,,,,,,,,,,,,,,,,,,,,,b_8,001,2024-11-29_09h56.10.133,untitled,2024.1.5,None,2024-11-29 09h56.33.867954 +0530,
square.png,stranger,0,Z,,,,,,,,,20,1,81,2,,,,,,,,,237.14202930009924,,,,,,,,,,,,,,,,,,,,,,,,,,,,,,,,,,237.12613470002543,237.14202930009924,237.62602810002863,237.62602810002863,237.62602810002863,237.62602810002863,237.6425833000103,237.92589400010183,237.92589400010183,237.92589400010183,238.31018660007976,z,0.6831950000487268,None,238.31061300006695,238.32609930005856,239.32681280001998,239.3102478000801,,,,,,,,,,,,,,,,,,,,,,,,,,,,,,,,,,,,,,,,,,,,,,,,,,,,,,,,,,,,,,,,,,,,,,,,,,,,,,,,,,,,b_8,001,2024-11-29_09h56.10.133,untitled,2024.1.5,None,2024-11-29 09h56.33.867954 +0530,
triangle.png,stranger,1,M,,,,,,,,,20,2,82,1,,,,,,,,,239.32681280001998,,,,,,,,,,,,,,,,,,,,,,,,,,,,,,,,,,239.31059900007676,239.32681280001998,239.810471600038,239.810471600038,239.810471600038,239.810471600038,239.8271230000537,240.1104190000333,240.1104190000333,240.1104190000333,240.5110945000779,m,0.6994601000333205,None,240.51153100002557,240.52722210006323,241.52759170008358,241.51148840005044,,,,,,,,,,,,,,,,,,,,,,,,,,,,,,,,,,,,,,,,,,,,,,,,,,,,,,,,,,,,,,,,,,,,,,,,,,,,,,,,,,,,b_8,001,2024-11-29_09h56.10.133,untitled,2024.1.5,None,2024-11-29 09h56.33.867954 +0530,
triangle.png,you,0,Z,,,,,,,,,20,3,83,3,,,,,,,,,241.52759170008358,,,,,,,,,,,,,,,,,,,,,,,,,,,,,,,,,,241.51190310006496,241.52759170008358,242.01146510010585,242.01146510010585,242.01146510010585,242.01146510010585,242.02798130002338,242.31157290004194,242.31157290004194,242.31157290004194,242.86242810008116,z,0.8381116999080405,None,242.86285770009272,242.87838740006555,243.87885460001417,243.8629312000703,,,,,,,,,,,,,,,,,,,,,,,,,,,,,,,,,,,,,,,,,,,,,,,,,,,,,,,,,,,,,,,,,,,,,,,,,,,,,,,,,,,,b_8,001,2024-11-29_09h56.10.133,untitled,2024.1.5,None,2024-11-29 09h56.33.867954 +0530,
triangle.png,stranger,1,M,,,,,,,,,21,0,84,1,,,,,,,,,243.87885460001417,,,,,,,,,,,,,,,,,,,,,,,,,,,,,,,,,,243.8633183001075,243.87885460001417,244.362783000106,244.362783000106,244.362783000106,244.362783000106,244.37942390004173,244.66255010000896,244.66255010000896,244.66255010000896,244.96362060005777,z,0.5975395999848843,None,244.96404840005562,244.9796680000145,245.98007430008147,245.96393290010747,,,,,,,,,,,,,,,,,,,,,,,,,,,,,,,,,,,,,,,,,,,,,,,,,,,,,,,,,,,,,,,,,,,,,,,,,,,,,,,,,,,,b_8,001,2024-11-29_09h56.10.133,untitled,2024.1.5,None,2024-11-29 09h56.33.867954 +0530,
triangle.png,you,0,Z,,,,,,,,,21,1,85,3,,,,,,,,,245.98007430008147,,,,,,,,,,,,,,,,,,,,,,,,,,,,,,,,,,245.96428380010184,245.98007430008147,246.46364360000007,246.46364360000007,246.46364360000007,246.46364360000007,246.48014480003621,246.76378200005274,246.76378200005274,246.76378200005274,247.19801280007232,z,0.7328227999387309,None,247.19844629999716,247.21411180007271,248.21453190001193,248.19809160009027,,,,,,,,,,,,,,,,,,,,,,,,,,,,,,,,,,,,,,,,,,,,,,,,,,,,,,,,,,,,,,,,,,,,,,,,,,,,,,,,,,,,b_8,001,2024-11-29_09h56.10.133,untitled,2024.1.5,None,2024-11-29 09h56.33.867954 +0530,
square.png,you,1,M,,,,,,,,,21,2,86,0,,,,,,,,,248.21453190001193,,,,,,,,,,,,,,,,,,,,,,,,,,,,,,,,,,248.1984501000261,248.21453190001193,248.69835380010772,248.69835380010772,248.69835380010772,248.69835380010772,248.71500460000243,248.99795240000822,248.99795240000822,248.99795240000822,249.0655988000799,m,0.3546307999640703,None,249.06605600006878,249.08138610003516,250.0820212000981,250.0660086000571,,,,,,,,,,,,,,,,,,,,,,,,,,,,,,,,,,,,,,,,,,,,,,,,,,,,,,,,,,,,,,,,,,,,,,,,,,,,,,,,,,,,b_8,001,2024-11-29_09h56.10.133,untitled,2024.1.5,None,2024-11-29 09h56.33.867954 +0530,
square.png,stranger,0,Z,,,,,,,,,21,3,87,2,,,,,,,,,250.0820212000981,,,,,,,,,,,,,,,,,,,,,,,,,,,,,,,,,,250.06636380008422,250.0820212000981,250.56585320003796,250.56585320003796,250.56585320003796,250.56585320003796,250.5823958000401,250.8657335001044,250.8657335001044,250.8657335001044,251.28340660000686,m,0.7120291000464931,None,251.28384160005953,251.29959390009753,252.2998654000694,252.28352740011178,,,,,,,,,,,,,,,,,,,,,,,,,,,,,,,,,,,,,,,,,,,,,,,,,,,,,,,,,,,,,,,,,,,,,,,,,,,,,,,,,,,,b_8,001,2024-11-29_09h56.10.133,untitled,2024.1.5,None,2024-11-29 09h56.33.867954 +0530,
triangle.png,stranger,1,M,,,,,,,,,22,0,88,1,,,,,,,,,252.2998654000694,,,,,,,,,,,,,,,,,,,,,,,,,,,,,,,,,,252.28388210001867,252.2998654000694,252.783574400004,252.783574400004,252.783574400004,252.783574400004,252.80004940007348,253.08356030005962,253.08356030005962,253.08356030005962,253.5179424000671,z,0.7330794999143109,None,253.51836330001242,253.53402780008037,254.53449040011037,254.51809130003676,,,,,,,,,,,,,,,,,,,,,,,,,,,,,,,,,,,,,,,,,,,,,,,,,,,,,,,,,,,,,,,,,,,,,,,,,,,,,,,,,,,,b_8,001,2024-11-29_09h56.10.133,untitled,2024.1.5,None,2024-11-29 09h56.33.867954 +0530,
square.png,you,1,M,,,,,,,,,22,1,89,0,,,,,,,,,254.53449040011037,,,,,,,,,,,,,,,,,,,,,,,,,,,,,,,,,,254.51843950001057,254.53449040011037,255.01807130000088,255.01807130000088,255.01807130000088,255.01807130000088,255.0349097000435,255.31818520009983,255.31818520009983,255.31818520009983,255.56906530004926,m,0.546303299954161,None,255.56948790000752,255.58483090007212,256.5854772001039,256.5691087000305,,,,,,,,,,,,,,,,,,,,,,,,,,,,,,,,,,,,,,,,,,,,,,,,,,,,,,,,,,,,,,,,,,,,,,,,,,,,,,,,,,,,b_8,001,2024-11-29_09h56.10.133,untitled,2024.1.5,None,2024-11-29 09h56.33.867954 +0530,
triangle.png,you,0,Z,,,,,,,,,22,2,90,3,,,,,,,,,256.5854772001039,,,,,,,,,,,,,,,,,,,,,,,,,,,,,,,,,,256.56946580007207,256.5854772001039,257.0693392000394,257.0693392000394,257.0693392000394,257.0693392000394,257.0859751000535,257.3692258000374,257.3692258000374,257.3692258000374,257.75344200001564,z,0.6689459000481293,None,257.7538698000135,257.76944630010985,258.76983440003823,258.75367690005805,,,,,,,,,,,,,,,,,,,,,,,,,,,,,,,,,,,,,,,,,,,,,,,,,,,,,,,,,,,,,,,,,,,,,,,,,,,,,,,,,,,,b_8,001,2024-11-29_09h56.10.133,untitled,2024.1.5,None,2024-11-29 09h56.33.867954 +0530,
square.png,stranger,0,Z,,,,,,,,,22,3,91,2,,,,,,,,,258.76983440003823,,,,,,,,,,,,,,,,,,,,,,,,,,,,,,,,,,258.7540282000555,258.76983440003823,259.2535907001002,259.2535907001002,259.2535907001002,259.2535907001002,259.2702099001035,259.55364440009,259.55364440009,259.55364440009,259.98797610006295,z,0.7267567999660969,None,259.98840010003187,260.003938900074,261.0044131000759,260.98826640006155,,,,,,,,,,,,,,,,,,,,,,,,,,,,,,,,,,,,,,,,,,,,,,,,,,,,,,,,,,,,,,,,,,,,,,,,,,,,,,,,,,,,b_8,001,2024-11-29_09h56.10.133,untitled,2024.1.5,None,2024-11-29 09h56.33.867954 +0530,
triangle.png,stranger,1,M,,,,,,,,,23,0,92,1,,,,,,,,,261.0044131000759,,,,,,,,,,,,,,,,,,,,,,,,,,,,,,,,,,260.9886199000757,261.0044131000759,261.4882129000034,261.4882129000034,261.4882129000034,261.4882129000034,261.50485070003197,261.78807300003245,261.78807300003245,261.78807300003245,262.0723640000215,z,0.5728338999906555,None,262.0727919000201,262.0886202000547,263.08892490004655,263.07272500009276,,,,,,,,,,,,,,,,,,,,,,,,,,,,,,,,,,,,,,,,,,,,,,,,,,,,,,,,,,,,,,,,,,,,,,,,,,,,,,,,,,,,b_8,001,2024-11-29_09h56.10.133,untitled,2024.1.5,None,2024-11-29 09h56.33.867954 +0530,
square.png,you,1,M,,,,,,,,,23,1,93,0,,,,,,,,,263.08892490004655,,,,,,,,,,,,,,,,,,,,,,,,,,,,,,,,,,263.07307590008713,263.08892490004655,263.5725908000022,263.5725908000022,263.5725908000022,263.5725908000022,263.5891553000547,263.87255210010335,263.87255210010335,263.87255210010335,264.30685760010965,m,0.7293814999284223,None,264.30728270008694,264.3228966000024,265.3231979000848,265.30705500009935,,,,,,,,,,,,,,,,,,,,,,,,,,,,,,,,,,,,,,,,,,,,,,,,,,,,,,,,,,,,,,,,,,,,,,,,,,,,,,,,,,,,b_8,001,2024-11-29_09h56.10.133,untitled,2024.1.5,None,2024-11-29 09h56.33.867954 +0530,
triangle.png,you,0,Z,,,,,,,,,23,2,94,3,,,,,,,,,265.3231979000848,,,,,,,,,,,,,,,,,,,,,,,,,,,,,,,,,,265.3074090000009,265.3231979000848,265.8070613000309,265.8070613000309,265.8070613000309,265.8070613000309,265.82346370001324,266.1071148000192,266.1071148000192,266.1071148000192,266.3585815000115,z,0.5506391000235453,None,266.35903880000114,266.3737054000376,267.374269300024,267.35805800009985,,,,,,,,,,,,,,,,,,,,,,,,,,,,,,,,,,,,,,,,,,,,,,,,,,,,,,,,,,,,,,,,,,,,,,,,,,,,,,,,,,,,b_8,001,2024-11-29_09h56.10.133,untitled,2024.1.5,None,2024-11-29 09h56.33.867954 +0530,
square.png,stranger,0,Z,,,,,,,,,23,3,95,2,,,,,,,,,267.374269300024,,,,,,,,,,,,,,,,,,,,,,,,,,,,,,,,,,267.35840990010183,267.374269300024,267.8747056000866,267.8747056000866,267.8747056000866,267.8747056000866,267.8747056000866,268.17476640001405,268.17476640001405,268.17476640001405,268.7590922000818,z,0.8696561999386176,None,268.759550100076,268.77515320002567,269.7756916000508,269.7592212000163,,,,,,,,,,,,,,,,,,,,,,,,,,,,,,,,,,,,,,,,,,,,,,,,,,,,,,,,,,,,,,,,,,,,,,,,,,,,,,,,,,,,b_8,001,2024-11-29_09h56.10.133,untitled,2024.1.5,None,2024-11-29 09h56.33.867954 +0530,
square.png,stranger,0,Z,,,,,,,,,24,0,96,2,,,,,,,,,269.7756916000508,,,,,,,,,,,,,,,,,,,,,,,,,,,,,,,,,,269.75956970010884,269.7756916000508,270.25921290006954,270.25921290006954,270.25921290006954,270.25921290006954,270.2761489000404,270.5592744000023,270.5592744000023,270.5592744000023,271.0603663000511,z,0.7905537999467924,None,271.0607927000383,271.0763729000464,272.07688280008733,272.06050230003893,,,,,,,,,,,,,,,,,,,,,,,,,,,,,,,,,,,,,,,,,,,,,,,,,,,,,,,,,,,,,,,,,,,,,,,,,,,,,,,,,,,,b_8,001,2024-11-29_09h56.10.133,untitled,2024.1.5,None,2024-11-29 09h56.33.867954 +0530,
square.png,you,1,M,,,,,,,,,24,1,97,0,,,,,,,,,272.07688280008733,,,,,,,,,,,,,,,,,,,,,,,,,,,,,,,,,,272.060873700073,272.07688280008733,272.56038610008545,272.56038610008545,272.56038610008545,272.56038610008545,272.5768888000166,272.8606254000915,272.8606254000915,272.8606254000915,273.077885500039,m,0.5127451999578625,None,273.07831170002464,273.0940530000953,274.0945929000154,274.0781770000467,,,,,,,,,,,,,,,,,,,,,,,,,,,,,,,,,,,,,,,,,,,,,,,,,,,,,,,,,,,,,,,,,,,,,,,,,,,,,,,,,,,,b_8,001,2024-11-29_09h56.10.133,untitled,2024.1.5,None,2024-11-29 09h56.33.867954 +0530,
triangle.png,you,0,Z,,,,,,,,,24,2,98,3,,,,,,,,,274.0945929000154,,,,,,,,,,,,,,,,,,,,,,,,,,,,,,,,,,274.07852330000605,274.0945929000154,274.578078999999,274.578078999999,274.578078999999,274.578078999999,274.5948757000733,274.87829480005894,274.87829480005894,274.87829480005894,275.195660800091,z,0.6025115998927504,None,275.1960951000219,275.21157000004314,276.212173200096,276.1960796000203,,,,,,,,,,,,,,,,,,,,,,,,,,,,,,,,,,,,,,,,,,,,,,,,,,,,,,,,,,,,,,,,,,,,,,,,,,,,,,,,,,,,b_8,001,2024-11-29_09h56.10.133,untitled,2024.1.5,None,2024-11-29 09h56.33.867954 +0530,
triangle.png,stranger,1,M,,,,,,,,,24,3,99,1,,,,,,,,,276.212173200096,,,,,,,,,,,,,,,,,,,,,,,,,,,,,,,,,,276.1964258000953,276.212173200096,276.69588230003137,276.69588230003137,276.69588230003137,276.69588230003137,276.7126030001091,276.99603650008794,276.99603650008794,276.99603650008794,277.6468639000086,z,0.9455588000128046,None,277.647325500031,277.6628793000709,278.6633536000736,278.64740320004057,,,,,,,,,,,,,,,,,,,,,,,,,,,,,,,,,,,,,,,,,,,,,,,,,,,,,,,,,,,,,,,,,,,,,,,,,,,,,,,,,,,,b_8,001,2024-11-29_09h56.10.133,untitled,2024.1.5,None,2024-11-29 09h56.33.867954 +0530,
triangle.png,stranger,1,M,,,,,,,,,25,0,100,1,,,,,,,,,278.6633536000736,,,,,,,,,,,,,,,,,,,,,,,,,,,,,,,,,,278.647757000057,278.6633536000736,279.1471794000827,279.1471794000827,279.1471794000827,279.1471794000827,279.1638521000277,279.44710170000326,279.44710170000326,279.44710170000326,280.23134290007874,None,,,280.23153460002504,280.24741520010866,281.24808220006526,281.2317808000371,280.24741520010866,,,,,,,,,,,,,,,,,,,,,,,,,,,,,,,,,,,,,,,,,,,,,,,,,,,,,,,,,,,,,,,,,,,,,,,,,,,,,,,,,,,b_8,001,2024-11-29_09h56.10.133,untitled,2024.1.5,None,2024-11-29 09h56.33.867954 +0530,
triangle.png,you,0,Z,,,,,,,,,25,1,101,3,,,,,,,,,281.24808220006526,,,,,,,,,,,,,,,,,,,,,,,,,,,,,,,,,,281.23213740007486,281.24808220006526,281.74844340002164,281.74844340002164,281.74844340002164,281.74844340002164,281.74844340002164,282.04841800010763,282.04841800010763,282.04841800010763,282.61634730000515,z,0.8573183000553399,None,282.61677500000224,282.6322581000859,283.6326397000812,283.6164121000329,,,,,,,,,,,,,,,,,,,,,,,,,,,,,,,,,,,,,,,,,,,,,,,,,,,,,,,,,,,,,,,,,,,,,,,,,,,,,,,,,,,,b_8,001,2024-11-29_09h56.10.133,untitled,2024.1.5,None,2024-11-29 09h56.33.867954 +0530,
square.png,stranger,0,Z,,,,,,,,,25,2,102,2,,,,,,,,,283.6326397000812,,,,,,,,,,,,,,,,,,,,,,,,,,,,,,,,,,283.6167634000303,283.6326397000812,284.1166033000918,284.1166033000918,284.1166033000918,284.1166033000918,284.1329636001028,284.4165800000774,284.4165800000774,284.4165800000774,284.80120340001304,z,0.6765527999959886,None,284.80173820001073,284.8168497000588,285.8170104000019,285.800797300064,,,,,,,,,,,,,,,,,,,,,,,,,,,,,,,,,,,,,,,,,,,,,,,,,,,,,,,,,,,,,,,,,,,,,,,,,,,,,,,,,,,,b_8,001,2024-11-29_09h56.10.133,untitled,2024.1.5,None,2024-11-29 09h56.33.867954 +0530,
square.png,you,1,M,,,,,,,,,25,3,103,0,,,,,,,,,285.8170104000019,,,,,,,,,,,,,,,,,,,,,,,,,,,,,,,,,,285.8011497000698,285.8170104000019,286.3007226000773,286.3007226000773,286.3007226000773,286.3007226000773,286.31762110011186,286.60074330004863,286.60074330004863,286.60074330004863,286.9515884000575,m,0.6371966999722645,None,286.9520308000501,286.96773730008863,287.96831500006374,287.9521879000822,,,,,,,,,,,,,,,,,,,,,,,,,,,,,,,,,,,,,,,,,,,,,,,,,,,,,,,,,,,,,,,,,,,,,,,,,,,,,,,,,,,,b_8,001,2024-11-29_09h56.10.133,untitled,2024.1.5,None,2024-11-29 09h56.33.867954 +0530,
triangle.png,stranger,1,M,,,,,,,,,26,0,104,1,,,,,,,,,287.96831500006374,,,,,,,,,,,,,,,,,,,,,,,,,,,,,,,,,,287.95254660001956,287.96831500006374,288.45187960006297,288.45187960006297,288.45187960006297,288.45187960006297,288.46850100008305,288.75191030011047,288.75191030011047,288.75191030011047,289.2861547000939,z,0.8208710999460891,None,289.28660210000817,289.302205300075,290.30279740004335,290.28659080003854,,,,,,,,,,,,,,,,,,,,,,,,,,,,,,,,,,,,,,,,,,,,,,,,,,,,,,,,,,,,,,,,,,,,,,,,,,,,,,,,,,,,b_8,001,2024-11-29_09h56.10.133,untitled,2024.1.5,None,2024-11-29 09h56.33.867954 +0530,
triangle.png,you,0,Z,,,,,,,,,26,1,105,3,,,,,,,,,290.30279740004335,,,,,,,,,,,,,,,,,,,,,,,,,,,,,,,,,,290.2869503000984,290.30279740004335,290.78669840004295,290.78669840004295,290.78669840004295,290.78669840004295,290.8030378000112,291.08644530002493,291.08644530002493,291.08644530002493,291.38751030003186,z,0.5906795000191778,None,291.38794110005256,291.40327530005015,292.40395500010345,292.3876046000514,,,,,,,,,,,,,,,,,,,,,,,,,,,,,,,,,,,,,,,,,,,,,,,,,,,,,,,,,,,,,,,,,,,,,,,,,,,,,,,,,,,,b_8,001,2024-11-29_09h56.10.133,untitled,2024.1.5,None,2024-11-29 09h56.33.867954 +0530,
square.png,you,1,M,,,,,,,,,26,2,106,0,,,,,,,,,292.40395500010345,,,,,,,,,,,,,,,,,,,,,,,,,,,,,,,,,,292.38795720005874,292.40395500010345,292.88747590000276,292.88747590000276,292.88747590000276,292.88747590000276,292.90431380004156,293.1875316000078,293.1875316000078,293.1875316000078,293.4883926000912,m,0.585496399900876,None,293.4888199000852,293.50440780003555,294.50496750010643,294.48883740010206,,,,,,,,,,,,,,,,,,,,,,,,,,,,,,,,,,,,,,,,,,,,,,,,,,,,,,,,,,,,,,,,,,,,,,,,,,,,,,,,,,,,b_8,001,2024-11-29_09h56.10.133,untitled,2024.1.5,None,2024-11-29 09h56.33.867954 +0530,
square.png,stranger,0,Z,,,,,,,,,26,3,107,2,,,,,,,,,294.50496750010643,,,,,,,,,,,,,,,,,,,,,,,,,,,,,,,,,,294.4892000000691,294.50496750010643,294.9889894000953,294.9889894000953,294.9889894000953,294.9889894000953,295.0052778000245,295.2887373000849,295.2887373000849,295.2887373000849,295.6063115000725,z,0.6119683999568224,None,295.60674060008023,295.62233870010823,296.62263200001325,296.60661710007116,,,,,,,,,,,,,,,,,,,,,,,,,,,,,,,,,,,,,,,,,,,,,,,,,,,,,,,,,,,,,,,,,,,,,,,,,,,,,,,,,,,,b_8,001,2024-11-29_09h56.10.133,untitled,2024.1.5,None,2024-11-29 09h56.33.867954 +0530,
triangle.png,stranger,1,M,,,,,,,,,27,0,108,1,,,,,,,,,296.62263200001325,,,,,,,,,,,,,,,,,,,,,,,,,,,,,,,,,,296.60697110008914,296.62263200001325,297.10655090003274,297.10655090003274,297.10655090003274,297.10655090003274,297.1232428000076,297.4062502000015,297.4062502000015,297.4062502000015,297.9076247001067,m,0.7991497000912204,None,297.9080578000285,297.9234735000646,298.9241467000684,298.9078847001074,,,,,,,,,,,,,,,,,,,,,,,,,,,,,,,,,,,,,,,,,,,,,,,,,,,,,,,,,,,,,,,,,,,,,,,,,,,,,,,,,,,,b_8,001,2024-11-29_09h56.10.133,untitled,2024.1.5,None,2024-11-29 09h56.33.867954 +0530,
triangle.png,you,0,Z,,,,,,,,,27,1,109,3,,,,,,,,,298.9241467000684,,,,,,,,,,,,,,,,,,,,,,,,,,,,,,,,,,298.9082376000006,298.9241467000684,299.40724830003455,299.40724830003455,299.40724830003455,299.40724830003455,299.4238714000676,299.7072367001092,299.7072367001092,299.7072367001092,300.12535460002255,z,0.7066440000198781,None,300.1257806000067,300.14110140001867,301.14152550010476,301.12541850004345,,,,,,,,,,,,,,,,,,,,,,,,,,,,,,,,,,,,,,,,,,,,,,,,,,,,,,,,,,,,,,,,,,,,,,,,,,,,,,,,,,,,b_8,001,2024-11-29_09h56.10.133,untitled,2024.1.5,None,2024-11-29 09h56.33.867954 +0530,
square.png,stranger,0,Z,,,,,,,,,27,2,110,2,,,,,,,,,301.14152550010476,,,,,,,,,,,,,,,,,,,,,,,,,,,,,,,,,,301.12577100005,301.14152550010476,301.6256528000813,301.6256528000813,301.6256528000813,301.6256528000813,301.64202560007107,301.9252331000753,301.9252331000753,301.9252331000753,302.3098256000085,z,0.6745825000107288,None,302.3102537000086,302.32570660009515,303.32623150001746,303.30974600010086,,,,,,,,,,,,,,,,,,,,,,,,,,,,,,,,,,,,,,,,,,,,,,,,,,,,,,,,,,,,,,,,,,,,,,,,,,,,,,,,,,,,b_8,001,2024-11-29_09h56.10.133,untitled,2024.1.5,None,2024-11-29 09h56.33.867954 +0530,
square.png,you,1,M,,,,,,,,,27,3,111,0,,,,,,,,,303.32623150001746,,,,,,,,,,,,,,,,,,,,,,,,,,,,,,,,,,303.31009690009523,303.32623150001746,303.80969270004425,303.80969270004425,303.80969270004425,303.80969270004425,303.82631670008413,304.1098094000481,304.1098094000481,304.1098094000481,304.5441815000959,m,0.7316403000149876,None,304.5446200000588,304.5599166000029,305.56073180004023,305.5443389000138,,,,,,,,,,,,,,,,,,,,,,,,,,,,,,,,,,,,,,,,,,,,,,,,,,,,,,,,,,,,,,,,,,,,,,,,,,,,,,,,,,,,b_8,001,2024-11-29_09h56.10.133,untitled,2024.1.5,None,2024-11-29 09h56.33.867954 +0530,
square.png,you,1,M,,,,,,,,,28,0,112,0,,,,,,,,,305.56073180004023,,,,,,,,,,,,,,,,,,,,,,,,,,,,,,,,,,305.54468580009416,305.56073180004023,306.0441786000738,306.0441786000738,306.0441786000738,306.0441786000738,306.0610423000762,306.3441634000046,306.3441634000046,306.3441634000046,306.8786652000854,m,0.8284802000271156,None,306.8791032000445,306.89448070002254,307.8952903000172,307.8789533000672,,,,,,,,,,,,,,,,,,,,,,,,,,,,,,,,,,,,,,,,,,,,,,,,,,,,,,,,,,,,,,,,,,,,,,,,,,,,,,,,,,,,b_8,001,2024-11-29_09h56.10.133,untitled,2024.1.5,None,2024-11-29 09h56.33.867954 +0530,
triangle.png,you,0,Z,,,,,,,,,28,1,113,3,,,,,,,,,307.8952903000172,,,,,,,,,,,,,,,,,,,,,,,,,,,,,,,,,,307.879307800089,307.8952903000172,308.378890800057,308.378890800057,308.378890800057,308.378890800057,308.3954386000987,308.67880670004524,308.67880670004524,308.67880670004524,309.0796833001077,z,0.691092099994421,None,309.08010380005,309.09588070004247,310.0962006000336,310.0801324000349,,,,,,,,,,,,,,,,,,,,,,,,,,,,,,,,,,,,,,,,,,,,,,,,,,,,,,,,,,,,,,,,,,,,,,,,,,,,,,,,,,,,b_8,001,2024-11-29_09h56.10.133,untitled,2024.1.5,None,2024-11-29 09h56.33.867954 +0530,
square.png,stranger,0,Z,,,,,,,,,28,2,114,2,,,,,,,,,310.0962006000336,,,,,,,,,,,,,,,,,,,,,,,,,,,,,,,,,,310.0804862000514,310.0962006000336,310.58001670008525,310.58001670008525,310.58001670008525,310.58001670008525,310.59673190000467,310.8801192000974,310.8801192000974,310.8801192000974,311.3145096000517,z,0.7185333999805152,None,311.31495810009073,311.33050390006974,312.3309461000608,312.3146104000043,,,,,,,,,,,,,,,,,,,,,,,,,,,,,,,,,,,,,,,,,,,,,,,,,,,,,,,,,,,,,,,,,,,,,,,,,,,,,,,,,,,,b_8,001,2024-11-29_09h56.10.133,untitled,2024.1.5,None,2024-11-29 09h56.33.867954 +0530,
triangle.png,stranger,1,M,,,,,,,,,28,3,115,1,,,,,,,,,312.3309461000608,,,,,,,,,,,,,,,,,,,,,,,,,,,,,,,,,,312.31497130007483,312.3309461000608,312.8146880000131,312.8146880000131,312.8146880000131,312.8146880000131,312.8314522000728,313.11459780007135,313.11459780007135,313.11459780007135,313.6324355000397,m,0.802733900025487,None,313.6328578001121,313.64822390000336,314.64860970003065,314.6325551000191,,,,,,,,,,,,,,,,,,,,,,,,,,,,,,,,,,,,,,,,,,,,,,,,,,,,,,,,,,,,,,,,,,,,,,,,,,,,,,,,,,,,b_8,001,2024-11-29_09h56.10.133,untitled,2024.1.5,None,2024-11-29 09h56.33.867954 +0530,
square.png,you,1,M,,,,,,,,,29,0,116,0,,,,,,,,,314.64860970003065,,,,,,,,,,,,,,,,,,,,,,,,,,,,,,,,,,314.6329075000249,314.64860970003065,315.13259040005505,315.13259040005505,315.13259040005505,315.13259040005505,315.1489203000674,315.4322945000604,315.4322945000604,315.4322945000604,315.66664240008686,m,0.5250724999932572,None,315.6670671000611,315.6826391000068,316.6830525000114,316.6666992000537,,,,,,,,,,,,,,,,,,,,,,,,,,,,,,,,,,,,,,,,,,,,,,,,,,,,,,,,,,,,,,,,,,,,,,,,,,,,,,,,,,,,b_8,001,2024-11-29_09h56.10.133,untitled,2024.1.5,None,2024-11-29 09h56.33.867954 +0530,
triangle.png,stranger,1,M,,,,,,,,,29,1,117,1,,,,,,,,,316.6830525000114,,,,,,,,,,,,,,,,,,,,,,,,,,,,,,,,,,316.66704830003437,316.6830525000114,317.16683750005905,317.16683750005905,317.16683750005905,317.16683750005905,317.1833580000093,317.4668476000661,317.4668476000661,317.4668476000661,318.0178663000697,m,0.8469958000350744,None,318.0182987001026,318.0337804000592,319.03434090001974,319.01812520006206,,,,,,,,,,,,,,,,,,,,,,,,,,,,,,,,,,,,,,,,,,,,,,,,,,,,,,,,,,,,,,,,,,,,,,,,,,,,,,,,,,,,b_8,001,2024-11-29_09h56.10.133,untitled,2024.1.5,None,2024-11-29 09h56.33.867954 +0530,
square.png,stranger,0,Z,,,,,,,,,29,2,118,2,,,,,,,,,319.03434090001974,,,,,,,,,,,,,,,,,,,,,,,,,,,,,,,,,,319.018478800077,319.03434090001974,319.51818390004337,319.51818390004337,319.51818390004337,319.51818390004337,319.53443480003625,319.81787990010343,319.81787990010343,319.81787990010343,320.1689502000809,z,0.6393443000270054,None,320.16937580006197,320.1849948000163,321.1856108000502,321.1692477000179,,,,,,,,,,,,,,,,,,,,,,,,,,,,,,,,,,,,,,,,,,,,,,,,,,,,,,,,,,,,,,,,,,,,,,,,,,,,,,,,,,,,b_8,001,2024-11-29_09h56.10.133,untitled,2024.1.5,None,2024-11-29 09h56.33.867954 +0530,
triangle.png,you,0,Z,,,,,,,,,29,3,119,3,,,,,,,,,321.1856108000502,,,,,,,,,,,,,,,,,,,,,,,,,,,,,,,,,,321.1695984000107,321.1856108000502,321.6689840001054,321.6689840001054,321.6689840001054,321.6689840001054,321.6857911000261,321.9691291000927,321.9691291000927,321.9691291000927,322.48665680002887,z,0.8124714998994023,None,322.4870839000214,322.50280370004475,323.50315500004217,323.48695470008533,,,,,,,,,,,,,,,,,,,,,,,,,,,,,,,,,,,,,,,,,,,,,,,,,,,,,,,,,,,,,,,,,,,,,,,,,,,,,,,,,,,,b_8,001,2024-11-29_09h56.10.133,untitled,2024.1.5,None,2024-11-29 09h56.33.867954 +0530,
triangle.png,stranger,1,M,,,,,,,,,30,0,120,1,,,,,,,,,323.50315500004217,,,,,,,,,,,,,,,,,,,,,,,,,,,,,,,,,,323.48730440007057,323.50315500004217,323.98701930011157,323.98701930011157,323.98701930011157,323.98701930011157,324.00341090001166,324.28700060001574,324.28700060001574,324.28700060001574,324.8379452000372,m,0.8424130999483168,None,324.83838130009826,324.8537557000527,325.8544380000094,325.83799840009306,,,,,,,,,,,,,,,,,,,,,,,,,,,,,,,,,,,,,,,,,,,,,,,,,,,,,,,,,,,,,,,,,,,,,,,,,,,,,,,,,,,,b_8,001,2024-11-29_09h56.10.133,untitled,2024.1.5,None,2024-11-29 09h56.33.867954 +0530,
square.png,stranger,0,Z,,,,,,,,,30,1,121,2,,,,,,,,,325.8544380000094,,,,,,,,,,,,,,,,,,,,,,,,,,,,,,,,,,325.8383515001042,325.8544380000094,326.3381240000017,326.3381240000017,326.3381240000017,326.3381240000017,326.35484430007637,326.6379666000139,326.6379666000139,326.6379666000139,327.155923500075,z,0.8025335998972878,None,327.1563486000523,327.171662800014,328.1723816000158,328.1561907000141,,,,,,,,,,,,,,,,,,,,,,,,,,,,,,,,,,,,,,,,,,,,,,,,,,,,,,,,,,,,,,,,,,,,,,,,,,,,,,,,,,,,b_8,001,2024-11-29_09h56.10.133,untitled,2024.1.5,None,2024-11-29 09h56.33.867954 +0530,
triangle.png,you,0,Z,,,,,,,,,30,2,122,3,,,,,,,,,328.1723816000158,,,,,,,,,,,,,,,,,,,,,,,,,,,,,,,,,,328.15654070000164,328.1723816000158,328.6559284001123,328.6559284001123,328.6559284001123,328.6559284001123,328.6728950000834,328.95613410009537,328.95613410009537,328.95613410009537,329.30683460005093,z,0.6444638998946175,None,329.3073455000995,329.3227727001067,330.3233857000014,330.3074782000622,,,,,,,,,,,,,,,,,,,,,,,,,,,,,,,,,,,,,,,,,,,,,,,,,,,,,,,,,,,,,,,,,,,,,,,,,,,,,,,,,,,,b_8,001,2024-11-29_09h56.10.133,untitled,2024.1.5,None,2024-11-29 09h56.33.867954 +0530,
square.png,you,1,M,,,,,,,,,30,3,123,0,,,,,,,,,330.3233857000014,,,,,,,,,,,,,,,,,,,,,,,,,,,,,,,,,,330.30783460009843,330.3233857000014,330.8070937000448,330.8070937000448,330.8070937000448,330.8070937000448,330.8234900000971,331.10719850007445,331.10719850007445,331.10719850007445,331.3245507000247,m,0.5131777999922633,None,331.32498730008956,331.3406815000344,332.3410070000682,332.32476560003124,,,,,,,,,,,,,,,,,,,,,,,,,,,,,,,,,,,,,,,,,,,,,,,,,,,,,,,,,,,,,,,,,,,,,,,,,,,,,,,,,,,,b_8,001,2024-11-29_09h56.10.133,untitled,2024.1.5,None,2024-11-29 09h56.33.867954 +0530,
triangle.png,you,0,Z,,,,,,,,,31,0,124,3,,,,,,,,,332.3410070000682,,,,,,,,,,,,,,,,,,,,,,,,,,,,,,,,,,332.3251147000119,332.3410070000682,332.82478210004047,332.82478210004047,332.82478210004047,332.82478210004047,332.84129870007746,333.124808600056,333.124808600056,333.124808600056,333.5589501000941,z,0.7197341000428423,None,333.5593815000029,333.5751494000433,334.57546670001466,334.559159800061,,,,,,,,,,,,,,,,,,,,,,,,,,,,,,,,,,,,,,,,,,,,,,,,,,,,,,,,,,,,,,,,,,,,,,,,,,,,,,,,,,,,b_8,001,2024-11-29_09h56.10.133,untitled,2024.1.5,None,2024-11-29 09h56.33.867954 +0530,
triangle.png,stranger,1,M,,,,,,,,,31,1,125,1,,,,,,,,,334.57546670001466,,,,,,,,,,,,,,,,,,,,,,,,,,,,,,,,,,334.55951370007824,334.57546670001466,335.05913950002287,335.05913950002287,335.05913950002287,335.05913950002287,335.07602660008706,335.3591184000252,335.3591184000252,335.3591184000252,335.6769321000902,z,0.6052703000605106,None,335.6773601000896,335.69280330010224,336.6932779001072,336.677205300075,,,,,,,,,,,,,,,,,,,,,,,,,,,,,,,,,,,,,,,,,,,,,,,,,,,,,,,,,,,,,,,,,,,,,,,,,,,,,,,,,,,,b_8,001,2024-11-29_09h56.10.133,untitled,2024.1.5,None,2024-11-29 09h56.33.867954 +0530,
square.png,stranger,0,Z,,,,,,,,,31,2,126,2,,,,,,,,,336.6932779001072,,,,,,,,,,,,,,,,,,,,,,,,,,,,,,,,,,336.6775575000793,336.6932779001072,337.17716150009073,337.17716150009073,337.17716150009073,337.17716150009073,337.1934665000299,337.4768463000655,337.4768463000655,337.4768463000655,337.67786260007415,m,0.48519089992623776,None,337.678296099999,337.69396600010805,338.69446560007054,338.67798710009083,,,,,,,,,,,,,,,,,,,,,,,,,,,,,,,,,,,,,,,,,,,,,,,,,,,,,,,,,,,,,,,,,,,,,,,,,,,,,,,,,,,,b_8,001,2024-11-29_09h56.10.133,untitled,2024.1.5,None,2024-11-29 09h56.33.867954 +0530,
square.png,you,1,M,,,,,,,,,31,3,127,0,,,,,,,,,338.69446560007054,,,,,,,,,,,,,,,,,,,,,,,,,,,,,,,,,,338.67833320004866,338.69446560007054,339.17822740005795,339.17822740005795,339.17822740005795,339.17822740005795,339.194484100095,339.4778975000372,339.4778975000372,339.4778975000372,339.6455903000897,m,0.4547666000435129,None,339.6460177000845,339.6617474000668,340.6619083000114,340.64576660003513,,,,,,,,,,,,,,,,,,,,,,,,,,,,,,,,,,,,,,,,,,,,,,,,,,,,,,,,,,,,,,,,,,,,,,,,,,,,,,,,,,,,b_8,001,2024-11-29_09h56.10.133,untitled,2024.1.5,None,2024-11-29 09h56.33.867954 +0530,
square.png,you,1,M,,,,,,,,,32,0,128,0,,,,,,,,,340.6619083000114,,,,,,,,,,,,,,,,,,,,,,,,,,,,,,,,,,340.6461196000455,340.6619083000114,341.14599790005013,341.14599790005013,341.14599790005013,341.14599790005013,341.16232120001223,341.4456179999979,341.4456179999979,341.4456179999979,341.72993280005176,m,0.5711430000374094,None,341.7303588000359,341.7459062000271,342.7463778000092,342.7301001000451,,,,,,,,,,,,,,,,,,,,,,,,,,,,,,,,,,,,,,,,,,,,,,,,,,,,,,,,,,,,,,,,,,,,,,,,,,,,,,,,,,,,b_8,001,2024-11-29_09h56.10.133,untitled,2024.1.5,None,2024-11-29 09h56.33.867954 +0530,
square.png,stranger,0,Z,,,,,,,,,32,1,129,2,,,,,,,,,342.7463778000092,,,,,,,,,,,,,,,,,,,,,,,,,,,,,,,,,,342.7304502000334,342.7463778000092,343.2305435000453,343.2305435000453,343.2305435000453,343.2305435000453,343.2466022000881,343.53017150005326,343.53017150005326,343.53017150005326,343.8977118000621,z,0.6551273000659421,None,343.8981418000767,343.91375090007205,344.9143803000916,344.89806270005647,,,,,,,,,,,,,,,,,,,,,,,,,,,,,,,,,,,,,,,,,,,,,,,,,,,,,,,,,,,,,,,,,,,,,,,,,,,,,,,,,,,,b_8,001,2024-11-29_09h56.10.133,untitled,2024.1.5,None,2024-11-29 09h56.33.867954 +0530,
triangle.png,stranger,1,M,,,,,,,,,32,2,130,1,,,,,,,,,344.9143803000916,,,,,,,,,,,,,,,,,,,,,,,,,,,,,,,,,,344.8984111000318,344.9143803000916,345.39781390002463,345.39781390002463,345.39781390002463,345.39781390002463,345.41470690001734,345.69788780005183,345.69788780005183,345.69788780005183,346.0320723000914,z,0.6305857000406832,None,346.0324961000588,346.04807510005776,347.04854090011213,347.0322552000871,,,,,,,,,,,,,,,,,,,,,,,,,,,,,,,,,,,,,,,,,,,,,,,,,,,,,,,,,,,,,,,,,,,,,,,,,,,,,,,,,,,,b_8,001,2024-11-29_09h56.10.133,untitled,2024.1.5,None,2024-11-29 09h56.33.867954 +0530,
triangle.png,you,0,Z,,,,,,,,,32,3,131,3,,,,,,,,,347.04854090011213,,,,,,,,,,,,,,,,,,,,,,,,,,,,,,,,,,347.0326096001081,347.04854090011213,347.5322539000772,347.5322539000772,347.5322539000772,347.5322539000772,347.5489409000147,347.83232010004576,347.83232010004576,347.83232010004576,348.1834546000464,z,0.6457328000105917,None,348.1838781000115,348.1990578001132,349.1998320000712,349.18356670008507,,,,,,,,,,,,,,,,,,,,,,,,,,,,,,,,,,,,,,,,,,,,,,,,,,,,,,,,,,,,,,,,,,,,,,,,,,,,,,,,,,,,b_8,001,2024-11-29_09h56.10.133,untitled,2024.1.5,None,2024-11-29 09h56.33.867954 +0530,
square.png,you,1,M,,,,,,,,,33,0,132,0,,,,,,,,,349.1998320000712,,,,,,,,,,,,,,,,,,,,,,,,,,,,,,,,,,349.18392270000186,349.1998320000712,349.68335870001465,349.68335870001465,349.68335870001465,349.68335870001465,349.69995420007035,349.9833509000018,349.9833509000018,349.9833509000018,350.15095660008956,m,0.4609915000619367,None,350.15138200006913,350.16711690009106,351.16739040007815,351.15134730003774,,,,,,,,,,,,,,,,,,,,,,,,,,,,,,,,,,,,,,,,,,,,,,,,,,,,,,,,,,,,,,,,,,,,,,,,,,,,,,,,,,,,b_8,001,2024-11-29_09h56.10.133,untitled,2024.1.5,None,2024-11-29 09h56.33.867954 +0530,
square.png,stranger,0,Z,,,,,,,,,33,1,133,2,,,,,,,,,351.16739040007815,,,,,,,,,,,,,,,,,,,,,,,,,,,,,,,,,,351.1516983000329,351.16739040007815,351.65124900010414,351.65124900010414,351.65124900010414,351.65124900010414,351.66757170006167,351.95122200006153,351.95122200006153,351.95122200006153,352.4021502000978,z,0.7344671000028029,None,352.40258140000515,352.4181863000849,353.41839920007624,353.40214990009554,,,,,,,,,,,,,,,,,,,,,,,,,,,,,,,,,,,,,,,,,,,,,,,,,,,,,,,,,,,,,,,,,,,,,,,,,,,,,,,,,,,,b_8,001,2024-11-29_09h56.10.133,untitled,2024.1.5,None,2024-11-29 09h56.33.867954 +0530,
triangle.png,stranger,1,M,,,,,,,,,33,2,134,1,,,,,,,,,353.41839920007624,,,,,,,,,,,,,,,,,,,,,,,,,,,,,,,,,,353.40251020004507,353.41839920007624,353.9025383000262,353.9025383000262,353.9025383000262,353.9025383000262,353.91883200011216,354.2024409000296,354.2024409000296,354.2024409000296,354.68658710003365,m,0.7709368000505492,None,354.68701970006805,354.70248920004815,355.7031980000902,355.68676050007343,,,,,,,,,,,,,,,,,,,,,,,,,,,,,,,,,,,,,,,,,,,,,,,,,,,,,,,,,,,,,,,,,,,,,,,,,,,,,,,,,,,,b_8,001,2024-11-29_09h56.10.133,untitled,2024.1.5,None,2024-11-29 09h56.33.867954 +0530,
triangle.png,you,0,Z,,,,,,,,,33,3,135,3,,,,,,,,,355.7031980000902,,,,,,,,,,,,,,,,,,,,,,,,,,,,,,,,,,355.6871059000259,355.7031980000902,356.1869120000629,356.1869120000629,356.1869120000629,356.1869120000629,356.2033286000369,356.48681620007847,356.48681620007847,356.48681620007847,356.7543520000763,z,0.5621853000484407,None,356.75477620004676,356.7702586000087,357.77061700006016,357.75468340003863,,,,,,,,,,,,,,,,,,,,,,,,,,,,,,,,,,,,,,,,,,,,,,,,,,,,,,,,,,,,,,,,,,,,,,,,,,,,,,,,,,,,b_8,001,2024-11-29_09h56.10.133,untitled,2024.1.5,None,2024-11-29 09h56.33.867954 +0530,
square.png,you,1,M,,,,,,,,,34,0,136,0,,,,,,,,,357.77061700006016,,,,,,,,,,,,,,,,,,,,,,,,,,,,,,,,,,357.75503180001397,357.77061700006016,358.2543575000018,358.2543575000018,358.2543575000018,358.2543575000018,358.2708989001112,358.5544759000186,358.5544759000186,358.5544759000186,358.77206740004476,m,0.5155586999608204,None,358.7724962000502,358.7880480000749,359.7885455000214,359.7721433000406,,,,,,,,,,,,,,,,,,,,,,,,,,,,,,,,,,,,,,,,,,,,,,,,,,,,,,,,,,,,,,,,,,,,,,,,,,,,,,,,,,,,b_8,001,2024-11-29_09h56.10.133,untitled,2024.1.5,None,2024-11-29 09h56.33.867954 +0530,
square.png,stranger,0,Z,,,,,,,,,34,1,137,2,,,,,,,,,359.7885455000214,,,,,,,,,,,,,,,,,,,,,,,,,,,,,,,,,,359.77249350002967,359.7885455000214,360.27203870005906,360.27203870005906,360.27203870005906,360.27203870005906,360.28891570004635,360.5721560000675,360.5721560000675,360.5721560000675,360.98977450001985,m,0.7131625000620261,None,360.99020270002075,361.00592590007,362.00634820002597,361.99007490009535,,,,,,,,,,,,,,,,,,,,,,,,,,,,,,,,,,,,,,,,,,,,,,,,,,,,,,,,,,,,,,,,,,,,,,,,,,,,,,,,,,,,b_8,001,2024-11-29_09h56.10.133,untitled,2024.1.5,None,2024-11-29 09h56.33.867954 +0530,
triangle.png,stranger,1,M,,,,,,,,,34,2,138,1,,,,,,,,,362.00634820002597,,,,,,,,,,,,,,,,,,,,,,,,,,,,,,,,,,361.99043630005326,362.00634820002597,362.48987670009956,362.48987670009956,362.48987670009956,362.48987670009956,362.5066575000528,362.78998010000214,362.78998010000214,362.78998010000214,363.0243643000722,z,0.5240018999902532,None,363.02478660002816,363.04028560000006,364.0406731000403,364.0246703000739,,,,,,,,,,,,,,,,,,,,,,,,,,,,,,,,,,,,,,,,,,,,,,,,,,,,,,,,,,,,,,,,,,,,,,,,,,,,,,,,,,,,b_8,001,2024-11-29_09h56.10.133,untitled,2024.1.5,None,2024-11-29 09h56.33.867954 +0530,
triangle.png,you,0,Z,,,,,,,,,34,3,139,3,,,,,,,,,364.0406731000403,,,,,,,,,,,,,,,,,,,,,,,,,,,,,,,,,,364.0250178000424,364.0406731000403,364.5244416000787,364.5244416000787,364.5244416000787,364.5244416000787,364.54090920009185,364.8244734000182,364.8244734000182,364.8244734000182,365.60864040011074,None,,,365.6088302000426,365.6249242000049,366.6252616000129,366.60929600009695,365.6249242000049,,,,,,,,,,,,,,,,,,,,,,,,,,,,,,,,,,,,,,,,,,,,,,,,,,,,,,,,,,,,,,,,,,,,,,,,,,,,,,,,,,,b_8,001,2024-11-29_09h56.10.133,untitled,2024.1.5,None,2024-11-29 09h56.33.867954 +0530,
square.png,stranger,0,Z,,,,,,,,,35,0,140,2,,,,,,,,,366.6252616000129,,,,,,,,,,,,,,,,,,,,,,,,,,,,,,,,,,366.60965400002897,366.6252616000129,367.1258892000187,367.1258892000187,367.1258892000187,367.1258892000187,367.1258892000187,367.4257396000903,367.4257396000903,367.4257396000903,367.7931559000863,z,0.6598372000735253,None,367.7935863001039,367.80916160007473,368.80963160004467,368.7933877001051,,,,,,,,,,,,,,,,,,,,,,,,,,,,,,,,,,,,,,,,,,,,,,,,,,,,,,,,,,,,,,,,,,,,,,,,,,,,,,,,,,,,b_8,001,2024-11-29_09h56.10.133,untitled,2024.1.5,None,2024-11-29 09h56.33.867954 +0530,
triangle.png,you,0,Z,,,,,,,,,35,1,141,3,,,,,,,,,368.80963160004467,,,,,,,,,,,,,,,,,,,,,,,,,,,,,,,,,,368.7937450000318,368.80963160004467,369.29343740001787,369.29343740001787,369.29343740001787,369.29343740001787,369.31030100001954,369.5937052000081,369.5937052000081,369.5937052000081,370.01102990005165,z,0.7068688999861479,None,370.0114564000396,370.0272374000633,371.02767710003536,371.01115770009346,,,,,,,,,,,,,,,,,,,,,,,,,,,,,,,,,,,,,,,,,,,,,,,,,,,,,,,,,,,,,,,,,,,,,,,,,,,,,,,,,,,,b_8,001,2024-11-29_09h56.10.133,untitled,2024.1.5,None,2024-11-29 09h56.33.867954 +0530,
square.png,you,1,M,,,,,,,,,35,2,142,0,,,,,,,,,371.02767710003536,,,,,,,,,,,,,,,,,,,,,,,,,,,,,,,,,,371.0115119999973,371.02767710003536,371.5115064000711,371.5115064000711,371.5115064000711,371.5115064000711,371.528030400048,371.81124410009943,371.81124410009943,371.81124410009943,372.04544720007107,m,0.5188364000059664,None,372.04588470002636,372.061284000054,373.0620669000782,373.04559160000645,,,,,,,,,,,,,,,,,,,,,,,,,,,,,,,,,,,,,,,,,,,,,,,,,,,,,,,,,,,,,,,,,,,,,,,,,,,,,,,,,,,,b_8,001,2024-11-29_09h56.10.133,untitled,2024.1.5,None,2024-11-29 09h56.33.867954 +0530,
triangle.png,stranger,1,M,,,,,,,,,35,3,143,1,,,,,,,,,373.0620669000782,,,,,,,,,,,,,,,,,,,,,,,,,,,,,,,,,,373.0459485000465,373.0620669000782,373.5458763000788,373.5458763000788,373.5458763000788,373.5458763000788,373.5622299000388,373.84557110001333,373.84557110001333,373.84557110001333,374.34680900000967,z,0.799102499964647,None,374.3472357999999,374.36256470007356,375.36326770007145,375.3468838999979,,,,,,,,,,,,,,,,,,,,,,,,,,,,,,,,,,,,,,,,,,,,,,,,,,,,,,,,,,,,,,,,,,,,,,,,,,,,,,,,,,,,b_8,001,2024-11-29_09h56.10.133,untitled,2024.1.5,None,2024-11-29 09h56.33.867954 +0530,
triangle.png,you,0,Z,,,,,,,,,36,0,144,3,,,,,,,,,375.36326770007145,,,,,,,,,,,,,,,,,,,,,,,,,,,,,,,,,,375.3472332000965,375.36326770007145,375.84683960000984,375.84683960000984,375.84683960000984,375.84683960000984,375.863555500051,376.14697330002673,376.14697330002673,376.14697330002673,376.5644247001037,z,0.7054920000955462,None,376.5648593000369,376.58054059999995,377.58090390008874,377.56488120008726,,,,,,,,,,,,,,,,,,,,,,,,,,,,,,,,,,,,,,,,,,,,,,,,,,,,,,,,,,,,,,,,,,,,,,,,,,,,,,,,,,,,b_8,001,2024-11-29_09h56.10.133,untitled,2024.1.5,None,2024-11-29 09h56.33.867954 +0530,
