stimulus_b,label_b,is_match_b,shouldpress_b,stimulus_2b,label_2b,is_match_2b,shouldpress_2b,p_trials.thisRepN,p_trials.thisTrialN,p_trials.thisN,p_trials.thisIndex,trials.thisRepN,trials.thisTrialN,trials.thisN,trials.thisIndex,p_trials_2.thisRepN,p_trials_2.thisTrialN,p_trials_2.thisN,p_trials_2.thisIndex,trials_2.thisRepN,trials_2.thisTrialN,trials_2.thisN,trials_2.thisIndex,thisRow.t,notes,Intruduction.started,text_3.started,key_resp_2.started,Intruduction.stopped,key_resp_2.keys,key_resp_2.rt,key_resp_2.duration,self_other_instructions.started,text_4.started,key_resp_3.started,self_other_instructions.stopped,key_resp_3.keys,key_resp_3.rt,key_resp_3.duration,self_other_info.started,square_image.started,triangle_image.started,self_label.started,other_label.started,key_resp_4.started,text_5.started,self_other_info.stopped,key_resp_4.keys,key_resp_4.rt,key_resp_4.duration,self_other_starting_2.started,text_6.started,key_resp_5.started,self_other_starting_2.stopped,key_resp_5.keys,key_resp_5.rt,key_resp_5.duration,b1.started,p_fication.started,p_fixation_3.started,p_text.started,key_resp_p.started,p_image.started,p_fication.stopped,p_fixation_3.stopped,p_text.stopped,p_image.stopped,key_resp_p.stopped,b1.stopped,key_resp_p.keys,b_feedback.started,text_15.started,text_15.stopped,b_feedback.stopped,key_resp_p.rt,key_resp_p.duration,start2.started,start_2.started,key_resp_11.started,start2.stopped,key_resp_11.keys,key_resp_11.rt,key_resp_11.duration,break_3.started,text_13.started,text_14.started,key_resp_10.started,text_13.stopped,break_3.stopped,key_resp_10.keys,key_resp_10.rt,key_resp_10.duration,self_instructions_2.started,text_10.started,key_resp_7.started,self_instructions_2.stopped,key_resp_7.keys,key_resp_7.rt,key_resp_7.duration,self_intro_2.started,circle_image.started,diamond_image.started,Disgusting_self_lable.started,Desirable_self_lable.started,key_resp_8.started,text_11.started,self_intro_2.stopped,key_resp_8.keys,key_resp_8.rt,key_resp_8.duration,self_starting_3.started,text_12.started,key_resp_9.started,self_starting_3.stopped,key_resp_9.keys,key_resp_9.rt,key_resp_9.duration,practice2.started,p_fixation_2.started,p_fixation_2.stopped,p_fixation_4.started,p_text_8.started,key_resp_6_p.started,p_image_2.started,p_fixation_4.stopped,p_text_8.stopped,p_image_2.stopped,practice2.stopped,key_resp_6_p.keys,key_resp_6_p.rt,key_resp_6_p.duration,feedback_2_p.started,text_16.started,text_16.stopped,feedback_2_p.stopped,trial_2.started,fixation_2.started,fixation_4.started,text_8.started,key_resp_6.started,image_2.started,fixation_2.stopped,fixation_4.stopped,text_8.stopped,image_2.stopped,trial_2.stopped,key_resp_6.keys,key_resp_6.rt,key_resp_6.duration,feedback_2.started,text_9.started,text_9.stopped,feedback_2.stopped,key_resp_6.stopped,Thank_you.started,text_7.started,text_7.stopped,Thank_you.stopped,participant,session,date,expName,psychopyVersion,frameRate,expStart,
,,,,,,,,,,,,,,,,,,,,,,,,,,0.0027221000054851174,0.006437300005927682,0.006437300005927682,3.6987052001059055,space,3.6698859001044184,None,,,,,,,,,,,,,,,,,,,,,,,,,,,,,,,,,,,,,,,,,,,,,,,,,,,,,,,,,,,,,,,,,,,,,,,,,,,,,,,,,,,,,,,,,,,,,,,,,,,,,,,,,,,,,,,,,,,,,,,,,,,,,,,b_9,001,2024-11-29_10h58.02.542,untitled,2024.1.5,None,2024-11-29 10h58.21.470720 +0530,
,,,,,,,,,,,,,,,,,,,,,,,,,,,,,,,,,3.698734200093895,3.7039998000254855,3.7039998000254855,29.825542400009,space,26.108419200056233,None,,,,,,,,,,,,,,,,,,,,,,,,,,,,,,,,,,,,,,,,,,,,,,,,,,,,,,,,,,,,,,,,,,,,,,,,,,,,,,,,,,,,,,,,,,,,,,,,,,,,,,,,,,,,,,,,,,,,,,,,b_9,001,2024-11-29_10h58.02.542,untitled,2024.1.5,None,2024-11-29 10h58.21.470720 +0530,
,,,,,,,,,,,,,,,,,,,,,,,,,,,,,,,,,,,,,,,,29.825570700108074,29.85782450006809,29.85782450006809,29.85782450006809,29.85782450006809,29.85782450006809,29.85782450006809,90.40611000009812,space,60.53487670002505,None,,,,,,,,,,,,,,,,,,,,,,,,,,,,,,,,,,,,,,,,,,,,,,,,,,,,,,,,,,,,,,,,,,,,,,,,,,,,,,,,,,,,,,,,,,,,,,,,,,,,,,,,,,,,,b_9,001,2024-11-29_10h58.02.542,untitled,2024.1.5,None,2024-11-29 10h58.21.470720 +0530,
,,,,,,,,,,,,,,,,,,,,,,,,,,,,,,,,,,,,,,,,,,,,,,,,,,,90.40614220011048,90.42212620005012,90.42212620005012,95.17531290010083,space,4.74612020002678,None,,,,,,,,,,,,,,,,,,,,,,,,,,,,,,,,,,,,,,,,,,,,,,,,,,,,,,,,,,,,,,,,,,,,,,,,,,,,,,,,,,,,,,,,,,,,,,,,,,,,,,b_9,001,2024-11-29_10h58.02.542,untitled,2024.1.5,None,2024-11-29 10h58.21.470720 +0530,
triangle.png,stranger,1,M,,,,,0,0,0,1,,,,,,,,,,,,,95.19486750010401,,,,,,,,,,,,,,,,,,,,,,,,,,,,,,,,,,95.1847821000265,95.19486750010401,95.67453340010252,95.67453340010252,95.67453340010252,95.67453340010252,95.70780720002949,95.9745002000127,95.9745002000127,95.9745002000127,96.77491920010652,96.7585217000451,None,96.75873030000366,96.77491920010652,97.77550000010524,97.7593403001083,,,,,,,,,,,,,,,,,,,,,,,,,,,,,,,,,,,,,,,,,,,,,,,,,,,,,,,,,,,,,,,,,,,,,,,,,,,,,,,,,,,,,b_9,001,2024-11-29_10h58.02.542,untitled,2024.1.5,None,2024-11-29 10h58.21.470720 +0530,
square.png,stranger,0,Z,,,,,0,1,1,2,,,,,,,,,,,,,97.77550000010524,,,,,,,,,,,,,,,,,,,,,,,,,,,,,,,,,,97.75958450010512,97.77550000010524,98.27576230000705,98.27576230000705,98.27576230000705,98.27576230000705,98.27576230000705,98.57575270009693,98.57575270009693,98.57575270009693,99.37626220006496,99.35979300003964,None,99.35992440010887,99.37626220006496,100.37677870003972,100.36039080005139,,,,,,,,,,,,,,,,,,,,,,,,,,,,,,,,,,,,,,,,,,,,,,,,,,,,,,,,,,,,,,,,,,,,,,,,,,,,,,,,,,,,,b_9,001,2024-11-29_10h58.02.542,untitled,2024.1.5,None,2024-11-29 10h58.21.470720 +0530,
square.png,you,1,M,,,,,0,2,2,0,,,,,,,,,,,,,100.37677870003972,,,,,,,,,,,,,,,,,,,,,,,,,,,,,,,,,,100.36062280007172,100.37677870003972,100.87715600000229,100.87715600000229,100.87715600000229,100.87715600000229,100.87715600000229,101.17715030000545,101.17715030000545,101.17715030000545,,101.41137119999621,m,101.41169840004295,101.42724020010792,102.42768890003208,102.41155010007787,0.5280490000732243,None,,,,,,,,,,,,,,,,,,,,,,,,,,,,,,,,,,,,,,,,,,,,,,,,,,,,,,,,,,,,,,,,,,,,,,,,,,,,,,,,,,,b_9,001,2024-11-29_10h58.02.542,untitled,2024.1.5,None,2024-11-29 10h58.21.470720 +0530,
triangle.png,you,0,Z,,,,,0,3,3,3,,,,,,,,,,,,,102.42768890003208,,,,,,,,,,,,,,,,,,,,,,,,,,,,,,,,,,102.41178280010354,102.42768890003208,102.91123780002818,102.91123780002818,102.91123780002818,102.91123780002818,102.92776210000739,103.21142530010547,103.21142530010547,103.21142530010547,,103.29551560000982,z,103.29576520004775,103.31150460010394,104.31190260010771,104.29576010000892,0.3812523999949917,None,,,,,,,,,,,,,,,,,,,,,,,,,,,,,,,,,,,,,,,,,,,,,,,,,,,,,,,,,,,,,,,,,,,,,,,,,,,,,,,,,,,b_9,001,2024-11-29_10h58.02.542,untitled,2024.1.5,None,2024-11-29 10h58.21.470720 +0530,
triangle.png,stranger,1,M,,,,,1,0,4,1,,,,,,,,,,,,,104.31190260010771,,,,,,,,,,,,,,,,,,,,,,,,,,,,,,,,,,104.29599590005819,104.31190260010771,104.79595210007392,104.79595210007392,104.79595210007392,104.79595210007392,104.81258340005297,105.09573640010785,105.09573640010785,105.09573640010785,,105.53025770001113,z,105.53050530003384,105.54590020002797,106.54642210004386,106.53031709999777,0.7245647000381723,None,,,,,,,,,,,,,,,,,,,,,,,,,,,,,,,,,,,,,,,,,,,,,,,,,,,,,,,,,,,,,,,,,,,,,,,,,,,,,,,,,,,b_9,001,2024-11-29_10h58.02.542,untitled,2024.1.5,None,2024-11-29 10h58.21.470720 +0530,
triangle.png,you,0,Z,,,,,1,1,5,3,,,,,,,,,,,,,106.54642210004386,,,,,,,,,,,,,,,,,,,,,,,,,,,,,,,,,,106.5305543000577,106.54642210004386,107.03019860002678,107.03019860002678,107.03019860002678,107.03019860002678,107.04702800000086,107.33029740001075,107.33029740001075,107.33029740001075,,107.5312472000951,z,107.53149600001052,107.5470688000787,108.54742360010277,108.53144520008937,0.4946851000422612,None,,,,,,,,,,,,,,,,,,,,,,,,,,,,,,,,,,,,,,,,,,,,,,,,,,,,,,,,,,,,,,,,,,,,,,,,,,,,,,,,,,,b_9,001,2024-11-29_10h58.02.542,untitled,2024.1.5,None,2024-11-29 10h58.21.470720 +0530,
square.png,you,1,M,,,,,1,2,6,0,,,,,,,,,,,,,108.54742360010277,,,,,,,,,,,,,,,,,,,,,,,,,,,,,,,,,,108.53167910000775,108.54742360010277,109.03142910008319,109.03142910008319,109.03142910008319,109.03142910008319,109.04808790003881,109.33114450005814,109.33114450005814,109.33114450005814,,109.43211320007686,m,109.43235970009118,109.44815150008071,110.44870910001919,110.43231870001182,0.38435239996761084,None,,,,,,,,,,,,,,,,,,,,,,,,,,,,,,,,,,,,,,,,,,,,,,,,,,,,,,,,,,,,,,,,,,,,,,,,,,,,,,,,,,,b_9,001,2024-11-29_10h58.02.542,untitled,2024.1.5,None,2024-11-29 10h58.21.470720 +0530,
square.png,stranger,0,Z,,,,,1,3,7,2,,,,,,,,,,,,,110.44870910001919,,,,,,,,,,,,,,,,,,,,,,,,,,,,,,,,,,110.43255040002987,110.44870910001919,110.9325766999973,110.9325766999973,110.9325766999973,110.9325766999973,110.9488400000846,111.23218070005532,111.23218070005532,111.23218070005532,,111.31631290004589,z,111.3165636000922,111.33229540009052,112.3329417000059,112.31682560010813,0.36752549989614636,None,,,,,,,,,,,,,,,,,,,,,,,,,,,,,,,,,,,,,,,,,,,,,,,,,,,,,,,,,,,,,,,,,,,,,,,,,,,,,,,,,,,b_9,001,2024-11-29_10h58.02.542,untitled,2024.1.5,None,2024-11-29 10h58.21.470720 +0530,
square.png,you,1,M,,,,,2,0,8,0,,,,,,,,,,,,,112.3329417000059,,,,,,,,,,,,,,,,,,,,,,,,,,,,,,,,,,112.31705680000596,112.3329417000059,112.81668950000312,112.81668950000312,112.81668950000312,112.81668950000312,112.83315360010602,113.11664370005019,113.11664370005019,113.11664370005019,,113.18412069999613,m,113.18436720001046,113.20012430008501,114.20066299999598,114.18435190001037,0.3644489999860525,None,,,,,,,,,,,,,,,,,,,,,,,,,,,,,,,,,,,,,,,,,,,,,,,,,,,,,,,,,,,,,,,,,,,,,,,,,,,,,,,,,,,b_9,001,2024-11-29_10h58.02.542,untitled,2024.1.5,None,2024-11-29 10h58.21.470720 +0530,
triangle.png,stranger,1,M,,,,,2,1,9,1,,,,,,,,,,,,,114.20066299999598,,,,,,,,,,,,,,,,,,,,,,,,,,,,,,,,,,114.18458480003756,114.20066299999598,114.68430730002001,114.68430730002001,114.68430730002001,114.68430730002001,114.70085270004347,114.98423230007757,114.98423230007757,114.98423230007757,,115.21831930009648,z,115.21856840001419,115.23450020002201,116.23503460001666,116.21871530008502,0.5287492999341339,None,,,,,,,,,,,,,,,,,,,,,,,,,,,,,,,,,,,,,,,,,,,,,,,,,,,,,,,,,,,,,,,,,,,,,,,,,,,,,,,,,,,b_9,001,2024-11-29_10h58.02.542,untitled,2024.1.5,None,2024-11-29 10h58.21.470720 +0530,
triangle.png,you,0,Z,,,,,2,2,10,3,,,,,,,,,,,,,116.23503460001666,,,,,,,,,,,,,,,,,,,,,,,,,,,,,,,,,,116.21895320003387,116.23503460001666,116.71851530007552,116.71851530007552,116.71851530007552,116.71851530007552,116.73520039999858,117.01850250002462,117.01850250002462,117.01850250002462,,117.25298490002751,m,117.25323340005707,117.2688816000009,118.26933280006051,118.25312430004124,0.5304545999970287,None,,,,,,,,,,,,,,,,,,,,,,,,,,,,,,,,,,,,,,,,,,,,,,,,,,,,,,,,,,,,,,,,,,,,,,,,,,,,,,,,,,,b_9,001,2024-11-29_10h58.02.542,untitled,2024.1.5,None,2024-11-29 10h58.21.470720 +0530,
square.png,stranger,0,Z,,,,,2,3,11,2,,,,,,,,,,,,,118.26933280006051,,,,,,,,,,,,,,,,,,,,,,,,,,,,,,,,,,118.25335550005548,118.26933280006051,118.75326340005267,118.75326340005267,118.75326340005267,118.75326340005267,118.76996750000399,119.05298810009845,119.05298810009845,119.05298810009845,,119.12045210006181,m,119.12069990008604,119.13648190000094,120.13686379999854,120.12059000006411,0.3642132000532001,None,,,,,,,,,,,,,,,,,,,,,,,,,,,,,,,,,,,,,,,,,,,,,,,,,,,,,,,,,,,,,,,,,,,,,,,,,,,,,,,,,,,b_9,001,2024-11-29_10h58.02.542,untitled,2024.1.5,None,2024-11-29 10h58.21.470720 +0530,
triangle.png,stranger,1,M,,,,,3,0,12,1,,,,,,,,,,,,,120.13686379999854,,,,,,,,,,,,,,,,,,,,,,,,,,,,,,,,,,120.12082250008825,120.13686379999854,120.62055480002891,120.62055480002891,120.62055480002891,120.62055480002891,120.63731220003683,120.9207467000233,120.9207467000233,120.9207467000233,,121.55508760001976,z,121.55533670005389,121.57092430000193,122.5715288000647,122.55538540007547,0.9279861999675632,None,,,,,,,,,,,,,,,,,,,,,,,,,,,,,,,,,,,,,,,,,,,,,,,,,,,,,,,,,,,,,,,,,,,,,,,,,,,,,,,,,,,b_9,001,2024-11-29_10h58.02.542,untitled,2024.1.5,None,2024-11-29 10h58.21.470720 +0530,
square.png,you,1,M,,,,,3,1,13,0,,,,,,,,,,,,,122.5715288000647,,,,,,,,,,,,,,,,,,,,,,,,,,,,,,,,,,122.55561720009428,122.5715288000647,123.05528240010608,123.05528240010608,123.05528240010608,123.05528240010608,123.07173480000347,123.35532270011026,123.35532270011026,123.35532270011026,,123.47254570003133,m,123.47280220000539,123.48846880008932,124.48924410005566,124.47295830002986,0.40614279999863356,None,,,,,,,,,,,,,,,,,,,,,,,,,,,,,,,,,,,,,,,,,,,,,,,,,,,,,,,,,,,,,,,,,,,,,,,,,,,,,,,,,,,b_9,001,2024-11-29_10h58.02.542,untitled,2024.1.5,None,2024-11-29 10h58.21.470720 +0530,
triangle.png,you,0,Z,,,,,3,2,14,3,,,,,,,,,,,,,124.48924410005566,,,,,,,,,,,,,,,,,,,,,,,,,,,,,,,,,,124.47319280006923,124.48924410005566,124.97291440004483,124.97291440004483,124.97291440004483,124.97291440004483,124.98934200010262,125.27269520005211,125.27269520005211,125.27269520005211,,125.52380060008727,m,125.52404889999889,125.53980010002851,126.54013490001671,126.52391560003161,0.5482020999770612,None,,,,,,,,,,,,,,,,,,,,,,,,,,,,,,,,,,,,,,,,,,,,,,,,,,,,,,,,,,,,,,,,,,,,,,,,,,,,,,,,,,,b_9,001,2024-11-29_10h58.02.542,untitled,2024.1.5,None,2024-11-29 10h58.21.470720 +0530,
square.png,stranger,0,Z,,,,,3,3,15,2,,,,,,,,,,,,,126.54013490001671,,,,,,,,,,,,,,,,,,,,,,,,,,,,,,,,,,126.52415540011134,126.54013490001671,127.02405570005067,127.02405570005067,127.02405570005067,127.02405570005067,127.04035970009863,127.32387250009924,127.32387250009924,127.32387250009924,,127.55821650009602,z,127.55846530001145,127.57398870005272,128.5746480000671,128.55839410005137,0.5198295000009239,None,,,,,,,,,,,,,,,,,,,,,,,,,,,,,,,,,,,,,,,,,,,,,,,,,,,,,,,,,,,,,,,,,,,,,,,,,,,,,,,,,,,b_9,001,2024-11-29_10h58.02.542,untitled,2024.1.5,None,2024-11-29 10h58.21.470720 +0530,
square.png,stranger,0,Z,,,,,4,0,16,2,,,,,,,,,,,,,128.5746480000671,,,,,,,,,,,,,,,,,,,,,,,,,,,,,,,,,,128.55862650007475,128.5746480000671,129.05824200005736,129.05824200005736,129.05824200005736,129.05824200005736,129.07498550007585,129.35819480009377,129.35819480009377,129.35819480009377,,129.82621110009495,m,129.82646230002865,129.84183300007135,130.84254030010197,130.82608700008132,0.7660297999391332,None,,,,,,,,,,,,,,,,,,,,,,,,,,,,,,,,,,,,,,,,,,,,,,,,,,,,,,,,,,,,,,,,,,,,,,,,,,,,,,,,,,,b_9,001,2024-11-29_10h58.02.542,untitled,2024.1.5,None,2024-11-29 10h58.21.470720 +0530,
triangle.png,you,0,Z,,,,,4,1,17,3,,,,,,,,,,,,,130.84254030010197,,,,,,,,,,,,,,,,,,,,,,,,,,,,,,,,,,130.8263199001085,130.84254030010197,131.3259949000785,131.3259949000785,131.3259949000785,131.3259949000785,131.34261210006662,131.6262794000795,131.6262794000795,131.6262794000795,,131.7767585000256,z,131.77700390003156,131.7929701000685,132.79329020006116,132.7771883000387,0.44657030003145337,None,,,,,,,,,,,,,,,,,,,,,,,,,,,,,,,,,,,,,,,,,,,,,,,,,,,,,,,,,,,,,,,,,,,,,,,,,,,,,,,,,,,b_9,001,2024-11-29_10h58.02.542,untitled,2024.1.5,None,2024-11-29 10h58.21.470720 +0530,
square.png,you,1,M,,,,,4,2,18,0,,,,,,,,,,,,,132.79329020006116,,,,,,,,,,,,,,,,,,,,,,,,,,,,,,,,,,132.7774206000613,132.79329020006116,133.2770144001115,133.2770144001115,133.2770144001115,133.2770144001115,133.2936549000442,133.5771747000981,133.5771747000981,133.5771747000981,,133.79470080009196,m,133.79495570005383,133.81070300005376,134.8109818000812,134.79505860002246,0.51205439993646,None,,,,,,,,,,,,,,,,,,,,,,,,,,,,,,,,,,,,,,,,,,,,,,,,,,,,,,,,,,,,,,,,,,,,,,,,,,,,,,,,,,,b_9,001,2024-11-29_10h58.02.542,untitled,2024.1.5,None,2024-11-29 10h58.21.470720 +0530,
triangle.png,stranger,1,M,,,,,4,3,19,1,,,,,,,,,,,,,134.8109818000812,,,,,,,,,,,,,,,,,,,,,,,,,,,,,,,,,,134.7952960000839,134.8109818000812,135.2947219000198,135.2947219000198,135.2947219000198,135.2947219000198,135.3115513001103,135.5948752000695,135.5948752000695,135.5948752000695,,135.86225550004747,z,135.86250140005723,135.87854240008164,136.878990600002,136.8628086000681,0.5663189999759197,None,,,,,,,,,,,,,,,,,,,,,,,,,,,,,,,,,,,,,,,,,,,,,,,,,,,,,,,,,,,,,,,,,,,,,,,,,,,,,,,,,,,b_9,001,2024-11-29_10h58.02.542,untitled,2024.1.5,None,2024-11-29 10h58.21.470720 +0530,
,,,,,,,,,,,,,,,,,,,,,,,,,,,,,,,,,,,,,,,,,,,,,,,,,,,,,,,,,,,,,,,,,,,,,,,,,,,,,136.86285680008586,136.878990600002,136.878990600002,138.797156500048,space,1.9087942999321967,None,,,,,,,,,,,,,,,,,,,,,,,,,,,,,,,,,,,,,,,,,,,,,,,,,,,,,,,,,,,,,,,,,,,,,,,,,,,,b_9,001,2024-11-29_10h58.02.542,untitled,2024.1.5,None,2024-11-29 10h58.21.470720 +0530,
square.png,stranger,0,Z,,,,,,,,,0,0,0,2,,,,,,,,,138.8132195000071,,,,,,,,,,,,,,,,,,,,,,,,,,,,,,,,,,138.80249960010406,138.8132195000071,139.29687430011109,139.29687430011109,139.29687430011109,139.29687430011109,139.31348390004132,139.59701580007095,139.59701580007095,139.59701580007095,,140.11451300000772,m,140.11518330010585,140.13062720000744,141.13095340004656,141.11465530004352,0.8110316999955103,None,,,,,,,,,,,,,,,,,,,,,,,,,,,,,,,,,,,,,,,,,,,,,,,,,,,,,,,,,,,,,,,,,,,,,,,,,,,,,,,,,,,b_9,001,2024-11-29_10h58.02.542,untitled,2024.1.5,None,2024-11-29 10h58.21.470720 +0530,
square.png,you,1,M,,,,,,,,,0,1,1,0,,,,,,,,,141.13095340004656,,,,,,,,,,,,,,,,,,,,,,,,,,,,,,,,,,141.11501750000753,141.13095340004656,141.6146895000711,141.6146895000711,141.6146895000711,141.6146895000711,141.631454700022,141.9146558000939,141.9146558000939,141.9146558000939,,142.2325259000063,m,142.23296460008714,142.2482500000624,143.24879840004724,143.23260099999607,0.6145944999298081,None,,,,,,,,,,,,,,,,,,,,,,,,,,,,,,,,,,,,,,,,,,,,,,,,,,,,,,,,,,,,,,,,,,,,,,,,,,,,,,,,,,,b_9,001,2024-11-29_10h58.02.542,untitled,2024.1.5,None,2024-11-29 10h58.21.470720 +0530,
triangle.png,you,0,Z,,,,,,,,,0,2,2,3,,,,,,,,,143.24879840004724,,,,,,,,,,,,,,,,,,,,,,,,,,,,,,,,,,143.23295080009848,143.24879840004724,143.7327440000372,143.7327440000372,143.7327440000372,143.7327440000372,143.7490161000751,144.03270090010483,144.03270090010483,144.03270090010483,,144.03350340004545,z,144.03392640000675,144.04950310010463,145.04982870002277,145.03340680000838,0.29614800005219877,None,,,,,,,,,,,,,,,,,,,,,,,,,,,,,,,,,,,,,,,,,,,,,,,,,,,,,,,,,,,,,,,,,,,,,,,,,,,,,,,,,,,b_9,001,2024-11-29_10h58.02.542,untitled,2024.1.5,None,2024-11-29 10h58.21.470720 +0530,
triangle.png,stranger,1,M,,,,,,,,,0,3,3,1,,,,,,,,,145.04982870002277,,,,,,,,,,,,,,,,,,,,,,,,,,,,,,,,,,145.0337563001085,145.04982870002277,145.53331330011133,145.53331330011133,145.53331330011133,145.53331330011133,145.55007330002263,145.8333979001036,145.8333979001036,145.8333979001036,,146.20094840007368,z,146.20138540002517,146.21704830008093,147.21757500001695,147.20119950000662,0.6591132999164984,None,,,,,,,,,,,,,,,,,,,,,,,,,,,,,,,,,,,,,,,,,,,,,,,,,,,,,,,,,,,,,,,,,,,,,,,,,,,,,,,,,,,b_9,001,2024-11-29_10h58.02.542,untitled,2024.1.5,None,2024-11-29 10h58.21.470720 +0530,
square.png,stranger,0,Z,,,,,,,,,1,0,4,2,,,,,,,,,147.21757500001695,,,,,,,,,,,,,,,,,,,,,,,,,,,,,,,,,,147.20155640004668,147.21757500001695,147.70126180001535,147.70126180001535,147.70126180001535,147.70126180001535,147.7177063000854,148.00073150009848,148.00073150009848,148.00073150009848,,148.26870080002118,m,148.26914530002978,148.2847410000395,149.28529870009515,149.26894410001114,0.5510315999854356,None,,,,,,,,,,,,,,,,,,,,,,,,,,,,,,,,,,,,,,,,,,,,,,,,,,,,,,,,,,,,,,,,,,,,,,,,,,,,,,,,,,,b_9,001,2024-11-29_10h58.02.542,untitled,2024.1.5,None,2024-11-29 10h58.21.470720 +0530,
square.png,you,1,M,,,,,,,,,1,1,5,0,,,,,,,,,149.28529870009515,,,,,,,,,,,,,,,,,,,,,,,,,,,,,,,,,,149.26929520000704,149.28529870009515,149.76906160009094,149.76906160009094,149.76906160009094,149.76906160009094,149.78562600002624,150.0689167000819,150.0689167000819,150.0689167000819,,150.3699810000835,m,150.37041260011028,150.3856708999956,151.38621670007706,151.37018600001466,0.5957721999147907,None,,,,,,,,,,,,,,,,,,,,,,,,,,,,,,,,,,,,,,,,,,,,,,,,,,,,,,,,,,,,,,,,,,,,,,,,,,,,,,,,,,,b_9,001,2024-11-29_10h58.02.542,untitled,2024.1.5,None,2024-11-29 10h58.21.470720 +0530,
triangle.png,you,0,Z,,,,,,,,,1,2,6,3,,,,,,,,,151.38621670007706,,,,,,,,,,,,,,,,,,,,,,,,,,,,,,,,,,151.37054030003492,151.38621670007706,151.86988300003577,151.86988300003577,151.86988300003577,151.86988300003577,151.88658920000307,152.17001670005266,152.17001670005266,152.17001670005266,,152.2876041000709,z,152.2880315000657,152.30352160008624,153.30386750004254,153.2876610000385,0.4111888000043109,None,,,,,,,,,,,,,,,,,,,,,,,,,,,,,,,,,,,,,,,,,,,,,,,,,,,,,,,,,,,,,,,,,,,,,,,,,,,,,,,,,,,b_9,001,2024-11-29_10h58.02.542,untitled,2024.1.5,None,2024-11-29 10h58.21.470720 +0530,
triangle.png,stranger,1,M,,,,,,,,,1,3,7,1,,,,,,,,,153.30386750004254,,,,,,,,,,,,,,,,,,,,,,,,,,,,,,,,,,153.2880113000283,153.30386750004254,153.7875378000317,153.7875378000317,153.7875378000317,153.7875378000317,153.80443720007315,154.08771430002525,154.08771430002525,154.08771430002525,154.88814500009175,154.87198530009482,None,154.87217570003122,154.88814500009175,155.88857840001583,155.87254270003177,,,,,,,,,,,,,,,,,,,,,,,,,,,,,,,,,,,,,,,,,,,,,,,,,,,,,,,,,,,,,,,,,,,,,,,,,,,,,,,,,,,,,b_9,001,2024-11-29_10h58.02.542,untitled,2024.1.5,None,2024-11-29 10h58.21.470720 +0530,
triangle.png,stranger,1,M,,,,,,,,,2,0,8,1,,,,,,,,,155.88857840001583,,,,,,,,,,,,,,,,,,,,,,,,,,,,,,,,,,155.8729693000205,155.88857840001583,156.3890561000444,156.3890561000444,156.3890561000444,156.3890561000444,156.3890561000444,156.68901160010137,156.68901160010137,156.68901160010137,,157.00616610003635,z,157.00659590004943,157.0223302000668,,158.00665580003988,0.6146396000403911,None,,,,,,,,,,,,,,,,,,,,,,,,,,,,,,,,,,,,,,,,,,,,,,,,,,,,,,,,,,,,,,,,,,,,,,,,,,,,,,,,,,,b_9,001,2024-11-29_10h58.02.542,untitled,2024.1.5,None,2024-11-29 10h58.21.470720 +0530,
square.png,stranger,0,Z,,,,,,,,,2,1,9,2,,,,,,,,,158.0233752001077,,,,,,,,,,,,,,,,,,,,,,,,,,,,,,,,,,158.00701440009288,158.0233752001077,158.50684909999836,158.50684909999836,158.50684909999836,158.50684909999836,158.52348030009307,158.80691220005974,158.80691220005974,158.80691220005974,,159.04078290006146,m,159.04120990005322,159.05693650001194,160.05759650003165,160.0412834000308,0.5222022999078035,None,,,,,,,,,,,,,,,,,,,,,,,,,,,,,,,,,,,,,,,,,,,,,,,,,,,,,,,,,,,,,,,,,,,,,,,,,,,,,,,,,,,b_9,001,2024-11-29_10h58.02.542,untitled,2024.1.5,None,2024-11-29 10h58.21.470720 +0530,
triangle.png,you,0,Z,,,,,,,,,2,2,10,3,,,,,,,,,160.05759650003165,,,,,,,,,,,,,,,,,,,,,,,,,,,,,,,,,,160.0416345000267,160.05759650003165,160.54112700000405,160.54112700000405,160.54112700000405,160.54112700000405,160.5576510000974,160.841152900015,160.841152900015,160.841152900015,,160.9751571000088,z,160.97559070005082,160.99138950009365,161.9915932000149,161.97549020010047,0.427853100001812,None,,,,,,,,,,,,,,,,,,,,,,,,,,,,,,,,,,,,,,,,,,,,,,,,,,,,,,,,,,,,,,,,,,,,,,,,,,,,,,,,,,,b_9,001,2024-11-29_10h58.02.542,untitled,2024.1.5,None,2024-11-29 10h58.21.470720 +0530,
square.png,you,1,M,,,,,,,,,2,3,11,0,,,,,,,,,161.9915932000149,,,,,,,,,,,,,,,,,,,,,,,,,,,,,,,,,,161.9758461000165,161.9915932000149,162.47561820002738,162.47561820002738,162.47561820002738,162.47561820002738,162.49195460008923,162.77558270003647,162.77558270003647,162.77558270003647,,162.9595451001078,m,162.95998070004862,162.97565590008162,163.9762226000894,163.9599220000673,0.47614360006991774,None,,,,,,,,,,,,,,,,,,,,,,,,,,,,,,,,,,,,,,,,,,,,,,,,,,,,,,,,,,,,,,,,,,,,,,,,,,,,,,,,,,,b_9,001,2024-11-29_10h58.02.542,untitled,2024.1.5,None,2024-11-29 10h58.21.470720 +0530,
square.png,you,1,M,,,,,,,,,3,0,12,0,,,,,,,,,163.9762226000894,,,,,,,,,,,,,,,,,,,,,,,,,,,,,,,,,,163.96027670009062,163.9762226000894,164.4599828000646,164.4599828000646,164.4599828000646,164.4599828000646,164.47655870008748,164.75974980008323,164.75974980008323,164.75974980008323,,165.12732560001314,m,165.1277630000841,165.1431427000789,166.1437256000936,166.12779150006827,0.656741900020279,None,,,,,,,,,,,,,,,,,,,,,,,,,,,,,,,,,,,,,,,,,,,,,,,,,,,,,,,,,,,,,,,,,,,,,,,,,,,,,,,,,,,b_9,001,2024-11-29_10h58.02.542,untitled,2024.1.5,None,2024-11-29 10h58.21.470720 +0530,
square.png,stranger,0,Z,,,,,,,,,3,1,13,2,,,,,,,,,166.1437256000936,,,,,,,,,,,,,,,,,,,,,,,,,,,,,,,,,,166.12814810010605,166.1437256000936,166.62739370006602,166.62739370006602,166.62739370006602,166.62739370006602,166.6442586000776,166.92747210001107,166.92747210001107,166.92747210001107,,167.42863199999556,m,167.42907050007489,167.44447570003103,168.4450349000981,168.42881980002858,0.7896995999617502,None,,,,,,,,,,,,,,,,,,,,,,,,,,,,,,,,,,,,,,,,,,,,,,,,,,,,,,,,,,,,,,,,,,,,,,,,,,,,,,,,,,,b_9,001,2024-11-29_10h58.02.542,untitled,2024.1.5,None,2024-11-29 10h58.21.470720 +0530,
triangle.png,stranger,1,M,,,,,,,,,3,2,14,1,,,,,,,,,168.4450349000981,,,,,,,,,,,,,,,,,,,,,,,,,,,,,,,,,,168.429183500004,168.4450349000981,168.92866590002086,168.92866590002086,168.92866590002086,168.92866590002086,168.94552680000197,169.22871260007378,169.22871260007378,169.22871260007378,,169.62962620006874,z,169.63007710000966,169.64571660000365,170.64604930009227,170.63001110008918,0.699448199942708,None,,,,,,,,,,,,,,,,,,,,,,,,,,,,,,,,,,,,,,,,,,,,,,,,,,,,,,,,,,,,,,,,,,,,,,,,,,,,,,,,,,,b_9,001,2024-11-29_10h58.02.542,untitled,2024.1.5,None,2024-11-29 10h58.21.470720 +0530,
triangle.png,you,0,Z,,,,,,,,,3,3,15,3,,,,,,,,,170.64604930009227,,,,,,,,,,,,,,,,,,,,,,,,,,,,,,,,,,170.6303683000151,170.64604930009227,171.1299673001049,171.1299673001049,171.1299673001049,171.1299673001049,171.14668850007,171.42984230001457,171.42984230001457,171.42984230001457,172.230397400097,172.21419780002907,None,172.21438800008036,172.230397400097,173.23075510002673,173.21475460007787,,,,,,,,,,,,,,,,,,,,,,,,,,,,,,,,,,,,,,,,,,,,,,,,,,,,,,,,,,,,,,,,,,,,,,,,,,,,,,,,,,,,,b_9,001,2024-11-29_10h58.02.542,untitled,2024.1.5,None,2024-11-29 10h58.21.470720 +0530,
square.png,stranger,0,Z,,,,,,,,,4,0,16,2,,,,,,,,,173.23075510002673,,,,,,,,,,,,,,,,,,,,,,,,,,,,,,,,,,173.2151126000099,173.23075510002673,173.73119790002238,173.73119790002238,173.73119790002238,173.73119790002238,173.73119790002238,174.0311465000268,174.0311465000268,174.0311465000268,,174.16554070007987,m,174.1659753000131,174.18128160003107,175.18188030004967,175.1656092000194,0.4182266000425443,None,,,,,,,,,,,,,,,,,,,,,,,,,,,,,,,,,,,,,,,,,,,,,,,,,,,,,,,,,,,,,,,,,,,,,,,,,,,,,,,,,,,b_9,001,2024-11-29_10h58.02.542,untitled,2024.1.5,None,2024-11-29 10h58.21.470720 +0530,
square.png,you,1,M,,,,,,,,,4,1,17,0,,,,,,,,,175.18188030004967,,,,,,,,,,,,,,,,,,,,,,,,,,,,,,,,,,175.16596640006173,175.18188030004967,175.66567900008522,175.66567900008522,175.66567900008522,175.66567900008522,175.6822228000965,175.96556110004894,175.96556110004894,175.96556110004894,,175.96630910004023,z,175.9667452001013,175.982117400039,176.98280370002612,176.96663170005195,0.2955223999451846,None,,,,,,,,,,,,,,,,,,,,,,,,,,,,,,,,,,,,,,,,,,,,,,,,,,,,,,,,,,,,,,,,,,,,,,,,,,,,,,,,,,,b_9,001,2024-11-29_10h58.02.542,untitled,2024.1.5,None,2024-11-29 10h58.21.470720 +0530,
triangle.png,you,0,Z,,,,,,,,,4,2,18,3,,,,,,,,,176.98280370002612,,,,,,,,,,,,,,,,,,,,,,,,,,,,,,,,,,176.96700870001223,176.98280370002612,177.46661100001074,177.46661100001074,177.46661100001074,177.46661100001074,177.48321970005054,177.76652190007735,177.76652190007735,177.76652190007735,,178.3010294000851,z,178.30145950010046,178.31688700011,179.31746950000525,179.30097940005362,0.8303127000108361,None,,,,,,,,,,,,,,,,,,,,,,,,,,,,,,,,,,,,,,,,,,,,,,,,,,,,,,,,,,,,,,,,,,,,,,,,,,,,,,,,,,,b_9,001,2024-11-29_10h58.02.542,untitled,2024.1.5,None,2024-11-29 10h58.21.470720 +0530,
triangle.png,stranger,1,M,,,,,,,,,4,3,19,1,,,,,,,,,179.31746950000525,,,,,,,,,,,,,,,,,,,,,,,,,,,,,,,,,,179.3013321000617,179.31746950000525,179.80108850006945,179.80108850006945,179.80108850006945,179.80108850006945,179.8176396000199,180.10111480008345,180.10111480008345,180.10111480008345,,180.8188023000257,m,180.81924300000537,180.8347800000338,181.8352576000616,181.81895720004104,1.0082826999714598,None,,,,,,,,,,,,,,,,,,,,,,,,,,,,,,,,,,,,,,,,,,,,,,,,,,,,,,,,,,,,,,,,,,,,,,,,,,,,,,,,,,,b_9,001,2024-11-29_10h58.02.542,untitled,2024.1.5,None,2024-11-29 10h58.21.470720 +0530,
square.png,stranger,0,Z,,,,,,,,,5,0,20,2,,,,,,,,,181.8352576000616,,,,,,,,,,,,,,,,,,,,,,,,,,,,,,,,,,181.81931210006587,181.8352576000616,182.3190278999973,182.3190278999973,182.3190278999973,182.3190278999973,182.3357411000179,182.618901800015,182.618901800015,182.618901800015,,183.0529046000447,z,183.05334390001372,183.06888520007487,184.06987120001577,184.05364350008313,0.7256917000049725,None,,,,,,,,,,,,,,,,,,,,,,,,,,,,,,,,,,,,,,,,,,,,,,,,,,,,,,,,,,,,,,,,,,,,,,,,,,,,,,,,,,,b_9,001,2024-11-29_10h58.02.542,untitled,2024.1.5,None,2024-11-29 10h58.21.470720 +0530,
triangle.png,stranger,1,M,,,,,,,,,5,1,21,1,,,,,,,,,184.06987120001577,,,,,,,,,,,,,,,,,,,,,,,,,,,,,,,,,,184.05399860010948,184.06987120001577,184.5533103001071,184.5533103001071,184.5533103001071,184.5533103001071,184.5699969000416,184.85336470010225,184.85336470010225,184.85336470010225,,185.37104170001112,z,185.3714811000973,185.38696670008358,186.38796419999562,186.3713310000021,0.8121722999494523,None,,,,,,,,,,,,,,,,,,,,,,,,,,,,,,,,,,,,,,,,,,,,,,,,,,,,,,,,,,,,,,,,,,,,,,,,,,,,,,,,,,,b_9,001,2024-11-29_10h58.02.542,untitled,2024.1.5,None,2024-11-29 10h58.21.470720 +0530,
square.png,you,1,M,,,,,,,,,5,2,22,0,,,,,,,,,186.38796419999562,,,,,,,,,,,,,,,,,,,,,,,,,,,,,,,,,,186.3716839000117,186.38796419999562,186.87126620009076,186.87126620009076,186.87126620009076,186.87126620009076,186.8880600000266,187.171450200025,187.171450200025,187.171450200025,,187.488941000076,m,187.48938610008918,187.50486670003738,188.50545950001106,188.48911140009295,0.6053195999702439,None,,,,,,,,,,,,,,,,,,,,,,,,,,,,,,,,,,,,,,,,,,,,,,,,,,,,,,,,,,,,,,,,,,,,,,,,,,,,,,,,,,,b_9,001,2024-11-29_10h58.02.542,untitled,2024.1.5,None,2024-11-29 10h58.21.470720 +0530,
triangle.png,you,0,Z,,,,,,,,,5,3,23,3,,,,,,,,,188.50545950001106,,,,,,,,,,,,,,,,,,,,,,,,,,,,,,,,,,188.4894656999968,188.50545950001106,188.98899760004133,188.98899760004133,188.98899760004133,188.98899760004133,189.00556590000633,189.2892309000017,189.2892309000017,189.2892309000017,,189.6399691000115,z,189.64040870009921,189.65571250009816,190.6562042000005,190.64039000007324,0.6400603000074625,None,,,,,,,,,,,,,,,,,,,,,,,,,,,,,,,,,,,,,,,,,,,,,,,,,,,,,,,,,,,,,,,,,,,,,,,,,,,,,,,,,,,b_9,001,2024-11-29_10h58.02.542,untitled,2024.1.5,None,2024-11-29 10h58.21.470720 +0530,
square.png,you,1,M,,,,,,,,,6,0,24,0,,,,,,,,,190.6562042000005,,,,,,,,,,,,,,,,,,,,,,,,,,,,,,,,,,190.64074160007294,190.6562042000005,191.14029990008567,191.14029990008567,191.14029990008567,191.14029990008567,191.15688790008426,191.44016680005006,191.44016680005006,191.44016680005006,,191.82444270001724,m,191.82488870003726,191.8404505000217,192.8409651000984,192.82462740002666,0.6716052999254316,None,,,,,,,,,,,,,,,,,,,,,,,,,,,,,,,,,,,,,,,,,,,,,,,,,,,,,,,,,,,,,,,,,,,,,,,,,,,,,,,,,,,b_9,001,2024-11-29_10h58.02.542,untitled,2024.1.5,None,2024-11-29 10h58.21.470720 +0530,
triangle.png,stranger,1,M,,,,,,,,,6,1,25,1,,,,,,,,,192.8409651000984,,,,,,,,,,,,,,,,,,,,,,,,,,,,,,,,,,192.82497950003017,192.8409651000984,193.3247765999986,193.3247765999986,193.3247765999986,193.3247765999986,193.3414274000097,193.62448960007168,193.62448960007168,193.62448960007168,,193.82590779999737,z,193.8263421000447,193.8415615000995,194.84197370009497,194.82588950009085,0.4998835999285802,None,,,,,,,,,,,,,,,,,,,,,,,,,,,,,,,,,,,,,,,,,,,,,,,,,,,,,,,,,,,,,,,,,,,,,,,,,,,,,,,,,,,b_9,001,2024-11-29_10h58.02.542,untitled,2024.1.5,None,2024-11-29 10h58.21.470720 +0530,
square.png,stranger,0,Z,,,,,,,,,6,2,26,2,,,,,,,,,194.84197370009497,,,,,,,,,,,,,,,,,,,,,,,,,,,,,,,,,,194.8262490000343,194.84197370009497,195.3257610000437,195.3257610000437,195.3257610000437,195.3257610000437,195.34246529999655,195.62547950004227,195.62547950004227,195.62547950004227,,196.21014010009822,z,196.21057470003143,196.2260997000849,197.22652910009492,197.21032160008326,0.8748570999596268,None,,,,,,,,,,,,,,,,,,,,,,,,,,,,,,,,,,,,,,,,,,,,,,,,,,,,,,,,,,,,,,,,,,,,,,,,,,,,,,,,,,,b_9,001,2024-11-29_10h58.02.542,untitled,2024.1.5,None,2024-11-29 10h58.21.470720 +0530,
triangle.png,you,0,Z,,,,,,,,,6,3,27,3,,,,,,,,,197.22652910009492,,,,,,,,,,,,,,,,,,,,,,,,,,,,,,,,,,197.2106788000092,197.22652910009492,197.71049409999978,197.71049409999978,197.71049409999978,197.71049409999978,197.72718899999745,198.0100363000529,198.0100363000529,198.0100363000529,,198.44449970009737,z,198.44492999999784,198.46058660000563,199.4609101000242,199.4446802000748,0.7183501999825239,None,,,,,,,,,,,,,,,,,,,,,,,,,,,,,,,,,,,,,,,,,,,,,,,,,,,,,,,,,,,,,,,,,,,,,,,,,,,,,,,,,,,b_9,001,2024-11-29_10h58.02.542,untitled,2024.1.5,None,2024-11-29 10h58.21.470720 +0530,
square.png,stranger,0,Z,,,,,,,,,7,0,28,2,,,,,,,,,199.4609101000242,,,,,,,,,,,,,,,,,,,,,,,,,,,,,,,,,,199.44503410009202,199.4609101000242,199.94481220003217,199.94481220003217,199.94481220003217,199.94481220003217,199.96122620010283,200.24463050009217,200.24463050009217,200.24463050009217,,200.7289050000254,z,200.72934680001345,200.74498450011015,201.7454847000772,201.7291568000801,0.780509400065057,None,,,,,,,,,,,,,,,,,,,,,,,,,,,,,,,,,,,,,,,,,,,,,,,,,,,,,,,,,,,,,,,,,,,,,,,,,,,,,,,,,,,b_9,001,2024-11-29_10h58.02.542,untitled,2024.1.5,None,2024-11-29 10h58.21.470720 +0530,
triangle.png,you,0,Z,,,,,,,,,7,1,29,3,,,,,,,,,201.7454847000772,,,,,,,,,,,,,,,,,,,,,,,,,,,,,,,,,,201.72951830003876,201.7454847000772,202.22922620002646,202.22922620002646,202.22922620002646,202.22922620002646,202.24563280004077,202.52912090008613,202.52912090008613,202.52912090008613,,203.08019970008172,z,203.0806341000134,203.09624920005444,204.09665790002327,204.08060139999725,0.8400817000074312,None,,,,,,,,,,,,,,,,,,,,,,,,,,,,,,,,,,,,,,,,,,,,,,,,,,,,,,,,,,,,,,,,,,,,,,,,,,,,,,,,,,,b_9,001,2024-11-29_10h58.02.542,untitled,2024.1.5,None,2024-11-29 10h58.21.470720 +0530,
triangle.png,stranger,1,M,,,,,,,,,7,2,30,1,,,,,,,,,204.09665790002327,,,,,,,,,,,,,,,,,,,,,,,,,,,,,,,,,,204.08095610002056,204.09665790002327,204.58054780005477,204.58054780005477,204.58054780005477,204.58054780005477,204.59723900002427,204.8803011000855,204.8803011000855,204.8803011000855,,205.4149199000094,z,205.41534560010768,205.4308065000223,206.43112020008266,206.41519460000563,0.8288637000368908,None,,,,,,,,,,,,,,,,,,,,,,,,,,,,,,,,,,,,,,,,,,,,,,,,,,,,,,,,,,,,,,,,,,,,,,,,,,,,,,,,,,,b_9,001,2024-11-29_10h58.02.542,untitled,2024.1.5,None,2024-11-29 10h58.21.470720 +0530,
square.png,you,1,M,,,,,,,,,7,3,31,0,,,,,,,,,206.43112020008266,,,,,,,,,,,,,,,,,,,,,,,,,,,,,,,,,,206.41554529999848,206.43112020008266,206.9150488000596,206.9150488000596,206.9150488000596,206.9150488000596,206.931687500095,207.2151162000373,207.2151162000373,207.2151162000373,,207.3324253000319,m,207.33285160001833,207.34847940003965,208.34916250000242,208.3327622000361,0.4048089999705553,None,,,,,,,,,,,,,,,,,,,,,,,,,,,,,,,,,,,,,,,,,,,,,,,,,,,,,,,,,,,,,,,,,,,,,,,,,,,,,,,,,,,b_9,001,2024-11-29_10h58.02.542,untitled,2024.1.5,None,2024-11-29 10h58.21.470720 +0530,
triangle.png,you,0,Z,,,,,,,,,8,0,32,3,,,,,,,,,208.34916250000242,,,,,,,,,,,,,,,,,,,,,,,,,,,,,,,,,,208.33311440004036,208.34916250000242,208.83252100006212,208.83252100006212,208.83252100006212,208.83252100006212,208.84912130003795,209.13266860006843,209.13266860006843,209.13266860006843,,209.60018260008655,z,209.6006073000608,209.61633800005075,210.6167671000585,210.6003199000843,0.7645327999489382,None,,,,,,,,,,,,,,,,,,,,,,,,,,,,,,,,,,,,,,,,,,,,,,,,,,,,,,,,,,,,,,,,,,,,,,,,,,,,,,,,,,,b_9,001,2024-11-29_10h58.02.542,untitled,2024.1.5,None,2024-11-29 10h58.21.470720 +0530,
square.png,you,1,M,,,,,,,,,8,1,33,0,,,,,,,,,210.6167671000585,,,,,,,,,,,,,,,,,,,,,,,,,,,,,,,,,,210.6006769000087,210.6167671000585,211.10037180001382,211.10037180001382,211.10037180001382,211.10037180001382,211.11689940001816,211.40044090000447,211.40044090000447,211.40044090000447,,211.784647100023,m,211.78508220007643,211.80066730000544,212.80107550008688,212.78480870008934,0.6689927000552416,None,,,,,,,,,,,,,,,,,,,,,,,,,,,,,,,,,,,,,,,,,,,,,,,,,,,,,,,,,,,,,,,,,,,,,,,,,,,,,,,,,,,b_9,001,2024-11-29_10h58.02.542,untitled,2024.1.5,None,2024-11-29 10h58.21.470720 +0530,
triangle.png,stranger,1,M,,,,,,,,,8,2,34,1,,,,,,,,,212.80107550008688,,,,,,,,,,,,,,,,,,,,,,,,,,,,,,,,,,212.7851630001096,212.80107550008688,213.28500280005392,213.28500280005392,213.28500280005392,213.28500280005392,213.30150770000182,213.58488330000546,213.58488330000546,213.58488330000546,,213.88590310001746,z,213.88633830007166,213.90157550002914,214.90209840005264,214.886074500042,0.5882778000086546,None,,,,,,,,,,,,,,,,,,,,,,,,,,,,,,,,,,,,,,,,,,,,,,,,,,,,,,,,,,,,,,,,,,,,,,,,,,,,,,,,,,,b_9,001,2024-11-29_10h58.02.542,untitled,2024.1.5,None,2024-11-29 10h58.21.470720 +0530,
square.png,stranger,0,Z,,,,,,,,,8,3,35,2,,,,,,,,,214.90209840005264,,,,,,,,,,,,,,,,,,,,,,,,,,,,,,,,,,214.88642710004933,214.90209840005264,215.38610580004752,215.38610580004752,215.38610580004752,215.38610580004752,215.40253200009465,215.68602640007157,215.68602640007157,215.68602640007157,,216.28713380009867,z,216.28756870003417,216.3029856000794,217.30352460010909,217.28733640001155,0.8863748000003397,None,,,,,,,,,,,,,,,,,,,,,,,,,,,,,,,,,,,,,,,,,,,,,,,,,,,,,,,,,,,,,,,,,,,,,,,,,,,,,,,,,,,b_9,001,2024-11-29_10h58.02.542,untitled,2024.1.5,None,2024-11-29 10h58.21.470720 +0530,
triangle.png,you,0,Z,,,,,,,,,9,0,36,3,,,,,,,,,217.30352460010909,,,,,,,,,,,,,,,,,,,,,,,,,,,,,,,,,,217.28768990002573,217.30352460010909,217.78709300002083,217.78709300002083,217.78709300002083,217.78709300002083,217.80372240010183,218.0871344000334,218.0871344000334,218.0871344000334,,218.6715286000399,z,218.67196370009333,218.68760910001583,219.68788960005622,219.67170260008425,0.8741539999609813,None,,,,,,,,,,,,,,,,,,,,,,,,,,,,,,,,,,,,,,,,,,,,,,,,,,,,,,,,,,,,,,,,,,,,,,,,,,,,,,,,,,,b_9,001,2024-11-29_10h58.02.542,untitled,2024.1.5,None,2024-11-29 10h58.21.470720 +0530,
triangle.png,stranger,1,M,,,,,,,,,9,1,37,1,,,,,,,,,219.68788960005622,,,,,,,,,,,,,,,,,,,,,,,,,,,,,,,,,,219.67205850000028,219.68788960005622,220.17202900000848,220.17202900000848,220.17202900000848,220.17202900000848,220.18847250007093,220.4718428000342,220.4718428000342,220.4718428000342,,221.02262190007605,z,221.02306090004276,221.03886970004532,222.03941560001113,222.0232158000581,0.8445332000264898,None,,,,,,,,,,,,,,,,,,,,,,,,,,,,,,,,,,,,,,,,,,,,,,,,,,,,,,,,,,,,,,,,,,,,,,,,,,,,,,,,,,,b_9,001,2024-11-29_10h58.02.542,untitled,2024.1.5,None,2024-11-29 10h58.21.470720 +0530,
square.png,stranger,0,Z,,,,,,,,,9,2,38,2,,,,,,,,,222.03941560001113,,,,,,,,,,,,,,,,,,,,,,,,,,,,,,,,,,222.02357760001905,222.03941560001113,222.52284780004993,222.52284780004993,222.52284780004993,222.52284780004993,222.53949880006257,222.82313850009814,222.82313850009814,222.82313850009814,,223.37407360004727,z,223.3745012000436,223.38974860007875,224.39048729999922,224.374273500056,0.8500547000439838,None,,,,,,,,,,,,,,,,,,,,,,,,,,,,,,,,,,,,,,,,,,,,,,,,,,,,,,,,,,,,,,,,,,,,,,,,,,,,,,,,,,,b_9,001,2024-11-29_10h58.02.542,untitled,2024.1.5,None,2024-11-29 10h58.21.470720 +0530,
square.png,you,1,M,,,,,,,,,9,3,39,0,,,,,,,,,224.39048729999922,,,,,,,,,,,,,,,,,,,,,,,,,,,,,,,,,,224.374625400058,224.39048729999922,224.8742308000801,224.8742308000801,224.8742308000801,224.8742308000801,224.8910188000882,225.17416180006694,225.17416180006694,225.17416180006694,,225.44159699999727,m,225.44202990003396,225.45783660002053,226.45814440003596,226.44200140004978,0.5517175999702886,None,,,,,,,,,,,,,,,,,,,,,,,,,,,,,,,,,,,,,,,,,,,,,,,,,,,,,,,,,,,,,,,,,,,,,,,,,,,,,,,,,,,b_9,001,2024-11-29_10h58.02.542,untitled,2024.1.5,None,2024-11-29 10h58.21.470720 +0530,
triangle.png,you,0,Z,,,,,,,,,10,0,40,3,,,,,,,,,226.45814440003596,,,,,,,,,,,,,,,,,,,,,,,,,,,,,,,,,,226.4423592000967,226.45814440003596,226.94168800010812,226.94168800010812,226.94168800010812,226.94168800010812,226.9583593000425,227.24174010008574,227.24174010008574,227.24174010008574,,227.54289620008785,m,227.54333000001498,227.55871610005852,228.55928100005258,228.54312000004575,0.5982477999059483,None,,,,,,,,,,,,,,,,,,,,,,,,,,,,,,,,,,,,,,,,,,,,,,,,,,,,,,,,,,,,,,,,,,,,,,,,,,,,,,,,,,,b_9,001,2024-11-29_10h58.02.542,untitled,2024.1.5,None,2024-11-29 10h58.21.470720 +0530,
square.png,stranger,0,Z,,,,,,,,,10,1,41,2,,,,,,,,,228.55928100005258,,,,,,,,,,,,,,,,,,,,,,,,,,,,,,,,,,228.54347480006982,228.55928100005258,229.0430733000394,229.0430733000394,229.0430733000394,229.0430733000394,229.05972590006422,229.34292060008738,229.34292060008738,229.34292060008738,,229.7274054000154,z,229.72784050006885,229.74320190004073,230.74378740007523,230.727646100102,0.6822213999694213,None,,,,,,,,,,,,,,,,,,,,,,,,,,,,,,,,,,,,,,,,,,,,,,,,,,,,,,,,,,,,,,,,,,,,,,,,,,,,,,,,,,,b_9,001,2024-11-29_10h58.02.542,untitled,2024.1.5,None,2024-11-29 10h58.21.470720 +0530,
triangle.png,stranger,1,M,,,,,,,,,10,2,42,1,,,,,,,,,230.74378740007523,,,,,,,,,,,,,,,,,,,,,,,,,,,,,,,,,,230.7279985001078,230.74378740007523,231.2277405000059,231.2277405000059,231.2277405000059,231.2277405000059,231.2439994000597,231.52745410008356,231.52745410008356,231.52745410008356,,232.29523250006605,z,232.29565890005324,232.31112060009036,233.31185130006634,233.2953516000416,1.0608490000013262,None,,,,,,,,,,,,,,,,,,,,,,,,,,,,,,,,,,,,,,,,,,,,,,,,,,,,,,,,,,,,,,,,,,,,,,,,,,,,,,,,,,,b_9,001,2024-11-29_10h58.02.542,untitled,2024.1.5,None,2024-11-29 10h58.21.470720 +0530,
square.png,you,1,M,,,,,,,,,10,3,43,0,,,,,,,,,233.31185130006634,,,,,,,,,,,,,,,,,,,,,,,,,,,,,,,,,,233.29570640006568,233.31185130006634,233.7953516000416,233.7953516000416,233.7953516000416,233.7953516000416,233.81217600009404,234.09547690011095,234.09547690011095,234.09547690011095,,234.3129580001114,m,234.31339510006364,234.32890900003258,235.3296026000753,235.31320980004966,0.5096645000157878,None,,,,,,,,,,,,,,,,,,,,,,,,,,,,,,,,,,,,,,,,,,,,,,,,,,,,,,,,,,,,,,,,,,,,,,,,,,,,,,,,,,,b_9,001,2024-11-29_10h58.02.542,untitled,2024.1.5,None,2024-11-29 10h58.21.470720 +0530,
triangle.png,you,0,Z,,,,,,,,,11,0,44,3,,,,,,,,,235.3296026000753,,,,,,,,,,,,,,,,,,,,,,,,,,,,,,,,,,235.3135592000326,235.3296026000753,235.81327220005915,235.81327220005915,235.81327220005915,235.81327220005915,235.82958850008436,236.11305270006415,236.11305270006415,236.11305270006415,,236.59746860002633,z,236.5979062000988,236.61338520003483,237.61390120000578,237.59762610006146,0.780066299950704,None,,,,,,,,,,,,,,,,,,,,,,,,,,,,,,,,,,,,,,,,,,,,,,,,,,,,,,,,,,,,,,,,,,,,,,,,,,,,,,,,,,,b_9,001,2024-11-29_10h58.02.542,untitled,2024.1.5,None,2024-11-29 10h58.21.470720 +0530,
triangle.png,stranger,1,M,,,,,,,,,11,1,45,1,,,,,,,,,237.61390120000578,,,,,,,,,,,,,,,,,,,,,,,,,,,,,,,,,,237.59797590004746,237.61390120000578,238.0977202000795,238.0977202000795,238.0977202000795,238.0977202000795,238.11449990002438,238.39767370000482,238.39767370000482,238.39767370000482,,238.99878280004486,m,238.99921000003815,239.01480400003493,240.01510100008454,239.99876700004097,0.8874043999239802,None,,,,,,,,,,,,,,,,,,,,,,,,,,,,,,,,,,,,,,,,,,,,,,,,,,,,,,,,,,,,,,,,,,,,,,,,,,,,,,,,,,,b_9,001,2024-11-29_10h58.02.542,untitled,2024.1.5,None,2024-11-29 10h58.21.470720 +0530,
square.png,you,1,M,,,,,,,,,11,2,46,0,,,,,,,,,240.01510100008454,,,,,,,,,,,,,,,,,,,,,,,,,,,,,,,,,,239.99913350003771,240.01510100008454,240.49876680003945,240.49876680003945,240.49876680003945,240.49876680003945,240.51565830002073,240.79893380007707,240.79893380007707,240.79893380007707,,241.50019310007337,z,241.50062750000507,241.51623230008408,242.5162973999977,242.50035800004844,0.9858792000450194,None,,,,,,,,,,,,,,,,,,,,,,,,,,,,,,,,,,,,,,,,,,,,,,,,,,,,,,,,,,,,,,,,,,,,,,,,,,,,,,,,,,,b_9,001,2024-11-29_10h58.02.542,untitled,2024.1.5,None,2024-11-29 10h58.21.470720 +0530,
square.png,stranger,0,Z,,,,,,,,,11,3,47,2,,,,,,,,,242.5162973999977,,,,,,,,,,,,,,,,,,,,,,,,,,,,,,,,,,242.5007102000527,242.5162973999977,242.9999527001055,242.9999527001055,242.9999527001055,242.9999527001055,243.0167934000492,243.30007100000512,243.30007100000512,243.30007100000512,,243.7677300000796,z,243.76817000005394,243.78364780009724,244.7843364001019,244.76814960001502,0.7645696999970824,None,,,,,,,,,,,,,,,,,,,,,,,,,,,,,,,,,,,,,,,,,,,,,,,,,,,,,,,,,,,,,,,,,,,,,,,,,,,,,,,,,,,b_9,001,2024-11-29_10h58.02.542,untitled,2024.1.5,None,2024-11-29 10h58.21.470720 +0530,
triangle.png,you,0,Z,,,,,,,,,12,0,48,3,,,,,,,,,244.7843364001019,,,,,,,,,,,,,,,,,,,,,,,,,,,,,,,,,,244.7685000000056,244.7843364001019,245.2681890000822,245.2681890000822,245.2681890000822,245.2681890000822,245.2847997000208,245.5680606000824,245.5680606000824,245.5680606000824,,245.73567970003933,m,245.73611190007068,245.75133950007148,246.75200780003797,246.73552050010767,0.4612425999948755,None,,,,,,,,,,,,,,,,,,,,,,,,,,,,,,,,,,,,,,,,,,,,,,,,,,,,,,,,,,,,,,,,,,,,,,,,,,,,,,,,,,,b_9,001,2024-11-29_10h58.02.542,untitled,2024.1.5,None,2024-11-29 10h58.21.470720 +0530,
triangle.png,stranger,1,M,,,,,,,,,12,1,49,1,,,,,,,,,246.75200780003797,,,,,,,,,,,,,,,,,,,,,,,,,,,,,,,,,,246.7358842000831,246.75200780003797,247.23576599999797,247.23576599999797,247.23576599999797,247.23576599999797,247.25243390002288,247.53559450001922,247.53559450001922,247.53559450001922,,248.05340540001635,z,248.05384629999753,248.0693736000685,249.06995790009387,249.0535732000135,0.8131740998942405,None,,,,,,,,,,,,,,,,,,,,,,,,,,,,,,,,,,,,,,,,,,,,,,,,,,,,,,,,,,,,,,,,,,,,,,,,,,,,,,,,,,,b_9,001,2024-11-29_10h58.02.542,untitled,2024.1.5,None,2024-11-29 10h58.21.470720 +0530,
square.png,stranger,0,Z,,,,,,,,,12,2,50,2,,,,,,,,,249.06995790009387,,,,,,,,,,,,,,,,,,,,,,,,,,,,,,,,,,249.05392210010905,249.06995790009387,249.5537882000208,249.5537882000208,249.5537882000208,249.5537882000208,249.57024740008637,249.85340530006215,249.85340530006215,249.85340530006215,,250.23777250002604,z,250.2382073000772,250.25378630007617,251.2541836000746,251.23788340005558,0.671516300062649,None,,,,,,,,,,,,,,,,,,,,,,,,,,,,,,,,,,,,,,,,,,,,,,,,,,,,,,,,,,,,,,,,,,,,,,,,,,,,,,,,,,,b_9,001,2024-11-29_10h58.02.542,untitled,2024.1.5,None,2024-11-29 10h58.21.470720 +0530,
square.png,you,1,M,,,,,,,,,12,3,51,0,,,,,,,,,251.2541836000746,,,,,,,,,,,,,,,,,,,,,,,,,,,,,,,,,,251.23823360004462,251.2541836000746,251.73782580008265,251.73782580008265,251.73782580008265,251.73782580008265,251.75437960005365,252.03798420005478,252.03798420005478,252.03798420005478,,252.45563350000884,m,252.45606610004324,252.4714718000032,253.4720436000498,253.45605390006676,0.7076897999504581,None,,,,,,,,,,,,,,,,,,,,,,,,,,,,,,,,,,,,,,,,,,,,,,,,,,,,,,,,,,,,,,,,,,,,,,,,,,,,,,,,,,,b_9,001,2024-11-29_10h58.02.542,untitled,2024.1.5,None,2024-11-29 10h58.21.470720 +0530,
square.png,stranger,0,Z,,,,,,,,,13,0,52,2,,,,,,,,,253.4720436000498,,,,,,,,,,,,,,,,,,,,,,,,,,,,,,,,,,253.4564054000657,253.4720436000498,253.9556722000707,253.9556722000707,253.9556722000707,253.9556722000707,253.97249180008657,254.25584009999875,254.25584009999875,254.25584009999875,,254.5567506001098,z,254.55718650005292,254.5728033001069,255.57328440004494,255.5571198000107,0.5894696000032127,None,,,,,,,,,,,,,,,,,,,,,,,,,,,,,,,,,,,,,,,,,,,,,,,,,,,,,,,,,,,,,,,,,,,,,,,,,,,,,,,,,,,b_9,001,2024-11-29_10h58.02.542,untitled,2024.1.5,None,2024-11-29 10h58.21.470720 +0530,
square.png,you,1,M,,,,,,,,,13,1,53,0,,,,,,,,,255.57328440004494,,,,,,,,,,,,,,,,,,,,,,,,,,,,,,,,,,255.55746900010854,255.57328440004494,256.05693960003555,256.05693960003555,256.05693960003555,256.05693960003555,256.0734765001107,256.35703780001495,256.35703780001495,256.35703780001495,,256.6909499000758,m,256.6913827001117,256.70700740010943,257.7076724000508,257.6912529000547,0.6328049000585452,None,,,,,,,,,,,,,,,,,,,,,,,,,,,,,,,,,,,,,,,,,,,,,,,,,,,,,,,,,,,,,,,,,,,,,,,,,,,,,,,,,,,b_9,001,2024-11-29_10h58.02.542,untitled,2024.1.5,None,2024-11-29 10h58.21.470720 +0530,
triangle.png,you,0,Z,,,,,,,,,13,2,54,3,,,,,,,,,257.7076724000508,,,,,,,,,,,,,,,,,,,,,,,,,,,,,,,,,,257.6916073000757,257.7076724000508,258.19142560008913,258.19142560008913,258.19142560008913,258.19142560008913,258.20802260003984,258.4912377001019,258.4912377001019,258.4912377001019,,258.95882130006794,m,258.9592504000757,258.975006600027,259.9754307999974,259.9593983000377,0.7537872999673709,None,,,,,,,,,,,,,,,,,,,,,,,,,,,,,,,,,,,,,,,,,,,,,,,,,,,,,,,,,,,,,,,,,,,,,,,,,,,,,,,,,,,b_9,001,2024-11-29_10h58.02.542,untitled,2024.1.5,None,2024-11-29 10h58.21.470720 +0530,
triangle.png,stranger,1,M,,,,,,,,,13,3,55,1,,,,,,,,,259.9754307999974,,,,,,,,,,,,,,,,,,,,,,,,,,,,,,,,,,259.9597531000618,259.9754307999974,260.45928030007053,260.45928030007053,260.45928030007053,260.45928030007053,260.47591330006253,260.75908320001327,260.75908320001327,260.75908320001327,,261.5104922000319,m,261.51092230004724,261.52620810002554,262.52675870002713,262.5106287000235,1.049358999938704,None,,,,,,,,,,,,,,,,,,,,,,,,,,,,,,,,,,,,,,,,,,,,,,,,,,,,,,,,,,,,,,,,,,,,,,,,,,,,,,,,,,,b_9,001,2024-11-29_10h58.02.542,untitled,2024.1.5,None,2024-11-29 10h58.21.470720 +0530,
square.png,stranger,0,Z,,,,,,,,,14,0,56,2,,,,,,,,,262.52675870002713,,,,,,,,,,,,,,,,,,,,,,,,,,,,,,,,,,262.5109866000712,262.52675870002713,263.0104097001022,263.0104097001022,263.0104097001022,263.0104097001022,263.02721760002896,263.31051700003445,263.31051700003445,263.31051700003445,,263.59476820006967,z,263.59521250007674,263.61050650000107,264.6110541000962,264.594762600027,0.5695384999271482,None,,,,,,,,,,,,,,,,,,,,,,,,,,,,,,,,,,,,,,,,,,,,,,,,,,,,,,,,,,,,,,,,,,,,,,,,,,,,,,,,,,,b_9,001,2024-11-29_10h58.02.542,untitled,2024.1.5,None,2024-11-29 10h58.21.470720 +0530,
square.png,you,1,M,,,,,,,,,14,1,57,0,,,,,,,,,264.6110541000962,,,,,,,,,,,,,,,,,,,,,,,,,,,,,,,,,,264.5951239001006,264.6110541000962,265.0948434000602,265.0948434000602,265.0948434000602,265.0948434000602,265.1116009000689,265.3947455000598,265.3947455000598,265.3947455000598,,265.6623847000301,m,265.6628247000044,265.6783417999977,266.67906100000255,266.6625872000586,0.5621420999523252,None,,,,,,,,,,,,,,,,,,,,,,,,,,,,,,,,,,,,,,,,,,,,,,,,,,,,,,,,,,,,,,,,,,,,,,,,,,,,,,,,,,,b_9,001,2024-11-29_10h58.02.542,untitled,2024.1.5,None,2024-11-29 10h58.21.470720 +0530,
triangle.png,stranger,1,M,,,,,,,,,14,2,58,1,,,,,,,,,266.67906100000255,,,,,,,,,,,,,,,,,,,,,,,,,,,,,,,,,,266.6629401000682,266.67906100000255,267.162615200039,267.162615200039,267.162615200039,267.162615200039,267.1793820000021,267.4627233000938,267.4627233000938,267.4627233000938,,268.09676660003606,z,268.0972038001055,268.11292070010677,269.1134093001019,269.0974189999979,0.9187459000386298,None,,,,,,,,,,,,,,,,,,,,,,,,,,,,,,,,,,,,,,,,,,,,,,,,,,,,,,,,,,,,,,,,,,,,,,,,,,,,,,,,,,,b_9,001,2024-11-29_10h58.02.542,untitled,2024.1.5,None,2024-11-29 10h58.21.470720 +0530,
triangle.png,you,0,Z,,,,,,,,,14,3,59,3,,,,,,,,,269.1134093001019,,,,,,,,,,,,,,,,,,,,,,,,,,,,,,,,,,269.0977779000532,269.1134093001019,269.59702510002535,269.59702510002535,269.59702510002535,269.59702510002535,269.6136645000661,269.89716390008107,269.89716390008107,269.89716390008107,,270.2647260000231,m,270.2651694000233,270.2809283999959,271.2810368000064,271.2651612000773,0.6590406000614166,None,,,,,,,,,,,,,,,,,,,,,,,,,,,,,,,,,,,,,,,,,,,,,,,,,,,,,,,,,,,,,,,,,,,,,,,,,,,,,,,,,,,b_9,001,2024-11-29_10h58.02.542,untitled,2024.1.5,None,2024-11-29 10h58.21.470720 +0530,
square.png,you,1,M,,,,,,,,,15,0,60,0,,,,,,,,,271.2810368000064,,,,,,,,,,,,,,,,,,,,,,,,,,,,,,,,,,271.2655184000032,271.2810368000064,271.76491490006447,271.76491490006447,271.76491490006447,271.76491490006447,271.7815263000084,272.0648888000287,272.0648888000287,272.0648888000287,,272.24918980000075,m,272.249618700007,272.2651000000769,273.2655604000902,273.2493636000436,0.47479470004327595,None,,,,,,,,,,,,,,,,,,,,,,,,,,,,,,,,,,,,,,,,,,,,,,,,,,,,,,,,,,,,,,,,,,,,,,,,,,,,,,,,,,,b_9,001,2024-11-29_10h58.02.542,untitled,2024.1.5,None,2024-11-29 10h58.21.470720 +0530,
square.png,stranger,0,Z,,,,,,,,,15,1,61,2,,,,,,,,,273.2655604000902,,,,,,,,,,,,,,,,,,,,,,,,,,,,,,,,,,273.2497152000433,273.2655604000902,273.749217600096,273.749217600096,273.749217600096,273.749217600096,273.76585670001805,274.04918630002066,274.04918630002066,274.04918630002066,,274.20035650010686,z,274.2007916000439,274.2162135000108,275.2167324000038,275.20030550006777,0.448009799933061,None,,,,,,,,,,,,,,,,,,,,,,,,,,,,,,,,,,,,,,,,,,,,,,,,,,,,,,,,,,,,,,,,,,,,,,,,,,,,,,,,,,,b_9,001,2024-11-29_10h58.02.542,untitled,2024.1.5,None,2024-11-29 10h58.21.470720 +0530,
triangle.png,stranger,1,M,,,,,,,,,15,2,62,1,,,,,,,,,275.2167324000038,,,,,,,,,,,,,,,,,,,,,,,,,,,,,,,,,,275.20065980008803,275.2167324000038,275.70039270003326,275.70039270003326,275.70039270003326,275.70039270003326,275.7168978000991,276.0003570000408,276.0003570000408,276.0003570000408,,276.60127210000064,m,276.60172540007625,276.61726420000196,277.61799310008064,277.601487500011,0.8850399000803009,None,,,,,,,,,,,,,,,,,,,,,,,,,,,,,,,,,,,,,,,,,,,,,,,,,,,,,,,,,,,,,,,,,,,,,,,,,,,,,,,,,,,b_9,001,2024-11-29_10h58.02.542,untitled,2024.1.5,None,2024-11-29 10h58.21.470720 +0530,
triangle.png,you,0,Z,,,,,,,,,15,3,63,3,,,,,,,,,277.61799310008064,,,,,,,,,,,,,,,,,,,,,,,,,,,,,,,,,,277.60184260003734,277.61799310008064,278.1013710000552,278.1013710000552,278.1013710000552,278.1013710000552,278.1181640001014,278.40148130001035,278.40148130001035,278.40148130001035,,278.7691121000098,z,278.7695393000031,278.7851920000976,279.7855850000633,279.769347500056,0.6550673999590799,None,,,,,,,,,,,,,,,,,,,,,,,,,,,,,,,,,,,,,,,,,,,,,,,,,,,,,,,,,,,,,,,,,,,,,,,,,,,,,,,,,,,b_9,001,2024-11-29_10h58.02.542,untitled,2024.1.5,None,2024-11-29 10h58.21.470720 +0530,
square.png,you,1,M,,,,,,,,,16,0,64,0,,,,,,,,,279.7855850000633,,,,,,,,,,,,,,,,,,,,,,,,,,,,,,,,,,279.7696987000527,279.7855850000633,280.2693002000451,280.2693002000451,280.2693002000451,280.2693002000451,280.28622180002276,280.56924560002517,280.56924560002517,280.56924560002517,,280.87028410006315,m,280.87071360007394,280.8861535000615,281.8868970000185,281.8705101000378,0.5920838000020012,None,,,,,,,,,,,,,,,,,,,,,,,,,,,,,,,,,,,,,,,,,,,,,,,,,,,,,,,,,,,,,,,,,,,,,,,,,,,,,,,,,,,b_9,001,2024-11-29_10h58.02.542,untitled,2024.1.5,None,2024-11-29 10h58.21.470720 +0530,
triangle.png,stranger,1,M,,,,,,,,,16,1,65,1,,,,,,,,,281.8868970000185,,,,,,,,,,,,,,,,,,,,,,,,,,,,,,,,,,281.87087220000103,281.8868970000185,282.37032760004513,282.37032760004513,282.37032760004513,282.37032760004513,282.38719989999663,282.6705087000737,282.6705087000737,282.6705087000737,,283.02128890005406,z,283.02172080008313,283.03719950001687,284.03764690004755,284.02162920008413,0.635497200069949,None,,,,,,,,,,,,,,,,,,,,,,,,,,,,,,,,,,,,,,,,,,,,,,,,,,,,,,,,,,,,,,,,,,,,,,,,,,,,,,,,,,,b_9,001,2024-11-29_10h58.02.542,untitled,2024.1.5,None,2024-11-29 10h58.21.470720 +0530,
square.png,stranger,0,Z,,,,,,,,,16,2,66,2,,,,,,,,,284.03764690004755,,,,,,,,,,,,,,,,,,,,,,,,,,,,,,,,,,284.02198210009374,284.03764690004755,284.5213478000369,284.5213478000369,284.5213478000369,284.5213478000369,284.53794910002034,284.821456600097,284.821456600097,284.821456600097,,285.0222446999978,m,285.0226810000604,285.0384033001028,286.0387477000477,286.0226423999993,0.4957052000099793,None,,,,,,,,,,,,,,,,,,,,,,,,,,,,,,,,,,,,,,,,,,,,,,,,,,,,,,,,,,,,,,,,,,,,,,,,,,,,,,,,,,,b_9,001,2024-11-29_10h58.02.542,untitled,2024.1.5,None,2024-11-29 10h58.21.470720 +0530,
triangle.png,you,0,Z,,,,,,,,,16,3,67,3,,,,,,,,,286.0387477000477,,,,,,,,,,,,,,,,,,,,,,,,,,,,,,,,,,286.02299520000815,286.0387477000477,286.5226399000967,286.5226399000967,286.5226399000967,286.5226399000967,286.53921400010586,,,,,286.7235098000383,z,286.72393970005214,286.7393640000373,287.7397743000183,287.72347940003965,0.19394319993443787,None,,,,,,,,,,,,,,,,,,,,,,,,,,,,,,,,,,,,,,,,,,,,,,,,,,,,,,,,,,,,,,,,,,,,,,,,,,,,,,,,,,,b_9,001,2024-11-29_10h58.02.542,untitled,2024.1.5,None,2024-11-29 10h58.21.470720 +0530,
triangle.png,you,0,Z,,,,,,,,,17,0,68,3,,,,,,,,,287.7397743000183,,,,,,,,,,,,,,,,,,,,,,,,,,,,,,,,,,287.7238430000143,287.7397743000183,288.2234505000524,288.2234505000524,288.2234505000524,288.2234505000524,288.2399104000069,288.5234761000611,288.5234761000611,288.5234761000611,,288.9575267001055,z,288.9579671000829,288.9735778000904,289.9741108000744,289.9580014999956,0.7250656000105664,None,,,,,,,,,,,,,,,,,,,,,,,,,,,,,,,,,,,,,,,,,,,,,,,,,,,,,,,,,,,,,,,,,,,,,,,,,,,,,,,,,,,b_9,001,2024-11-29_10h58.02.542,untitled,2024.1.5,None,2024-11-29 10h58.21.470720 +0530,
square.png,stranger,0,Z,,,,,,,,,17,1,69,2,,,,,,,,,289.9741108000744,,,,,,,,,,,,,,,,,,,,,,,,,,,,,,,,,,289.95836120005697,289.9741108000744,290.45779850007966,290.45779850007966,290.45779850007966,290.45779850007966,290.47472050006036,290.7579805999994,290.7579805999994,290.7579805999994,,291.05863610003144,m,291.0590662000468,291.07482170010917,292.07540030009113,292.0591228000121,0.5907496999716386,None,,,,,,,,,,,,,,,,,,,,,,,,,,,,,,,,,,,,,,,,,,,,,,,,,,,,,,,,,,,,,,,,,,,,,,,,,,,,,,,,,,,b_9,001,2024-11-29_10h58.02.542,untitled,2024.1.5,None,2024-11-29 10h58.21.470720 +0530,
triangle.png,stranger,1,M,,,,,,,,,17,2,70,1,,,,,,,,,292.07540030009113,,,,,,,,,,,,,,,,,,,,,,,,,,,,,,,,,,292.05948370008264,292.07540030009113,292.5590338000329,292.5590338000329,292.5590338000329,292.5590338000329,292.57556400005706,292.8590943000745,292.8590943000745,292.8590943000745,,293.3267993000336,m,293.3272377999965,293.3425413001096,294.3432002000045,294.3269970000256,0.7646817000349984,None,,,,,,,,,,,,,,,,,,,,,,,,,,,,,,,,,,,,,,,,,,,,,,,,,,,,,,,,,,,,,,,,,,,,,,,,,,,,,,,,,,,b_9,001,2024-11-29_10h58.02.542,untitled,2024.1.5,None,2024-11-29 10h58.21.470720 +0530,
square.png,you,1,M,,,,,,,,,17,3,71,0,,,,,,,,,294.3432002000045,,,,,,,,,,,,,,,,,,,,,,,,,,,,,,,,,,294.32734720001463,294.3432002000045,294.8267934001051,294.8267934001051,294.8267934001051,294.8267934001051,294.8433180000866,295.1269358000718,295.1269358000718,295.1269358000718,,295.1942981000757,m,295.19472640007734,295.21039070002735,296.210498200031,296.1945338000078,0.35690409992821515,None,,,,,,,,,,,,,,,,,,,,,,,,,,,,,,,,,,,,,,,,,,,,,,,,,,,,,,,,,,,,,,,,,,,,,,,,,,,,,,,,,,,b_9,001,2024-11-29_10h58.02.542,untitled,2024.1.5,None,2024-11-29 10h58.21.470720 +0530,
triangle.png,stranger,1,M,,,,,,,,,18,0,72,1,,,,,,,,,296.210498200031,,,,,,,,,,,,,,,,,,,,,,,,,,,,,,,,,,296.1948988001095,296.210498200031,296.6946166000562,296.6946166000562,296.6946166000562,296.6946166000562,296.7109569000313,296.99456090002786,296.99456090002786,296.99456090002786,,297.22852040000726,z,297.2289527000394,297.24451620003674,298.24510170007125,298.22870590002276,0.5214638999896124,None,,,,,,,,,,,,,,,,,,,,,,,,,,,,,,,,,,,,,,,,,,,,,,,,,,,,,,,,,,,,,,,,,,,,,,,,,,,,,,,,,,,b_9,001,2024-11-29_10h58.02.542,untitled,2024.1.5,None,2024-11-29 10h58.21.470720 +0530,
triangle.png,you,0,Z,,,,,,,,,18,1,73,3,,,,,,,,,298.24510170007125,,,,,,,,,,,,,,,,,,,,,,,,,,,,,,,,,,298.22906400007196,298.24510170007125,298.72878040000796,298.72878040000796,298.72878040000796,298.72878040000796,298.7452734000981,299.028971599997,299.028971599997,299.028971599997,,299.4799120000098,z,299.48033800011035,299.4958488000557,300.496209200006,300.48002620006446,0.7481010000919923,None,,,,,,,,,,,,,,,,,,,,,,,,,,,,,,,,,,,,,,,,,,,,,,,,,,,,,,,,,,,,,,,,,,,,,,,,,,,,,,,,,,,b_9,001,2024-11-29_10h58.02.542,untitled,2024.1.5,None,2024-11-29 10h58.21.470720 +0530,
square.png,stranger,0,Z,,,,,,,,,18,2,74,2,,,,,,,,,300.496209200006,,,,,,,,,,,,,,,,,,,,,,,,,,,,,,,,,,300.4803818000946,300.496209200006,300.9801479000598,300.9801479000598,300.9801479000598,300.9801479000598,300.9965106000891,301.27985670010094,301.27985670010094,301.27985670010094,,301.4807286000578,z,301.48115740006324,301.49689470010344,302.49718470009975,302.4809273000574,0.48905229999218136,None,,,,,,,,,,,,,,,,,,,,,,,,,,,,,,,,,,,,,,,,,,,,,,,,,,,,,,,,,,,,,,,,,,,,,,,,,,,,,,,,,,,b_9,001,2024-11-29_10h58.02.542,untitled,2024.1.5,None,2024-11-29 10h58.21.470720 +0530,
square.png,you,1,M,,,,,,,,,18,3,75,0,,,,,,,,,302.49718470009975,,,,,,,,,,,,,,,,,,,,,,,,,,,,,,,,,,302.48127920005936,302.49718470009975,302.9811021001078,302.9811021001078,302.9811021001078,302.9811021001078,302.99754040001426,303.28111070010345,303.28111070010345,303.28111070010345,,303.4318399000913,m,303.43227069999557,303.44803080009297,304.4483342000749,304.43195430003107,0.4433839999837801,None,,,,,,,,,,,,,,,,,,,,,,,,,,,,,,,,,,,,,,,,,,,,,,,,,,,,,,,,,,,,,,,,,,,,,,,,,,,,,,,,,,,b_9,001,2024-11-29_10h58.02.542,untitled,2024.1.5,None,2024-11-29 10h58.21.470720 +0530,
triangle.png,stranger,1,M,,,,,,,,,19,0,76,1,,,,,,,,,304.4483342000749,,,,,,,,,,,,,,,,,,,,,,,,,,,,,,,,,,304.4323166999966,304.4483342000749,304.9319532000227,304.9319532000227,304.9319532000227,304.9319532000227,304.9487583000446,305.23217910004314,305.23217910004314,305.23217910004314,,305.3997575000394,z,305.400185400038,305.41553480003495,306.41590190003626,306.3999474000884,0.4605875000124797,None,,,,,,,,,,,,,,,,,,,,,,,,,,,,,,,,,,,,,,,,,,,,,,,,,,,,,,,,,,,,,,,,,,,,,,,,,,,,,,,,,,,b_9,001,2024-11-29_10h58.02.542,untitled,2024.1.5,None,2024-11-29 10h58.21.470720 +0530,
square.png,stranger,0,Z,,,,,,,,,19,1,77,2,,,,,,,,,306.41590190003626,,,,,,,,,,,,,,,,,,,,,,,,,,,,,,,,,,306.40030070010107,306.41590190003626,306.8995811000932,306.8995811000932,306.8995811000932,306.8995811000932,306.916147800046,307.1997662000358,307.1997662000358,307.1997662000358,,307.41714850009885,z,307.4175779001089,307.43325470003765,308.43361410009675,308.41744440002367,0.5048425999702886,None,,,,,,,,,,,,,,,,,,,,,,,,,,,,,,,,,,,,,,,,,,,,,,,,,,,,,,,,,,,,,,,,,,,,,,,,,,,,,,,,,,,b_9,001,2024-11-29_10h58.02.542,untitled,2024.1.5,None,2024-11-29 10h58.21.470720 +0530,
square.png,you,1,M,,,,,,,,,19,2,78,0,,,,,,,,,308.43361410009675,,,,,,,,,,,,,,,,,,,,,,,,,,,,,,,,,,308.41779790003784,308.43361410009675,308.9174891000148,308.9174891000148,308.9174891000148,308.9174891000148,308.934176400071,309.21734710002784,309.21734710002784,309.21734710002784,,309.4017790000653,m,309.4022066000616,309.4174456000328,310.41818930010777,310.40188360004686,0.4830933000193909,None,,,,,,,,,,,,,,,,,,,,,,,,,,,,,,,,,,,,,,,,,,,,,,,,,,,,,,,,,,,,,,,,,,,,,,,,,,,,,,,,,,,b_9,001,2024-11-29_10h58.02.542,untitled,2024.1.5,None,2024-11-29 10h58.21.470720 +0530,
triangle.png,you,0,Z,,,,,,,,,19,3,79,3,,,,,,,,,310.41818930010777,,,,,,,,,,,,,,,,,,,,,,,,,,,,,,,,,,310.402238800074,310.41818930010777,310.9017130000284,310.9017130000284,310.9017130000284,310.9017130000284,310.9182684000116,311.201621800079,311.201621800079,311.201621800079,,311.3026516000973,z,311.3030875000404,311.31846219999716,312.31893960002344,312.30260830000043,0.386238900013268,None,,,,,,,,,,,,,,,,,,,,,,,,,,,,,,,,,,,,,,,,,,,,,,,,,,,,,,,,,,,,,,,,,,,,,,,,,,,,,,,,,,,b_9,001,2024-11-29_10h58.02.542,untitled,2024.1.5,None,2024-11-29 10h58.21.470720 +0530,
square.png,you,1,M,,,,,,,,,20,0,80,0,,,,,,,,,312.31893960002344,,,,,,,,,,,,,,,,,,,,,,,,,,,,,,,,,,312.3029701000778,312.31893960002344,312.8026565000182,312.8026565000182,312.8026565000182,312.8026565000182,312.81945470010396,313.10260940005537,313.10260940005537,313.10260940005537,,313.1870367000811,m,313.1874713000143,313.20299630006775,314.2032435000874,314.1871352000162,0.3830149000277743,None,,,,,,,,,,,,,,,,,,,,,,,,,,,,,,,,,,,,,,,,,,,,,,,,,,,,,,,,,,,,,,,,,,,,,,,,,,,,,,,,,,,b_9,001,2024-11-29_10h58.02.542,untitled,2024.1.5,None,2024-11-29 10h58.21.470720 +0530,
triangle.png,stranger,1,M,,,,,,,,,20,1,81,1,,,,,,,,,314.2032435000874,,,,,,,,,,,,,,,,,,,,,,,,,,,,,,,,,,314.18749420007225,314.2032435000874,314.68685850000475,314.68685850000475,314.68685850000475,314.68685850000475,314.70360820007045,314.98697850003373,314.98697850003373,314.98697850003373,,315.1044211999979,z,315.1048589000711,315.1206599000143,316.1210619000485,316.10462700005155,0.4096404000883922,None,,,,,,,,,,,,,,,,,,,,,,,,,,,,,,,,,,,,,,,,,,,,,,,,,,,,,,,,,,,,,,,,,,,,,,,,,,,,,,,,,,,b_9,001,2024-11-29_10h58.02.542,untitled,2024.1.5,None,2024-11-29 10h58.21.470720 +0530,
square.png,stranger,0,Z,,,,,,,,,20,2,82,2,,,,,,,,,316.1210619000485,,,,,,,,,,,,,,,,,,,,,,,,,,,,,,,,,,316.1049858001061,316.1210619000485,316.6050015001092,316.6050015001092,316.6050015001092,316.6050015001092,316.6212974000955,316.9047205999959,316.9047205999959,316.9047205999959,,317.17232510005124,m,317.1727558000712,317.1883365000831,318.1887789000757,318.172410500003,0.5561277999076992,None,,,,,,,,,,,,,,,,,,,,,,,,,,,,,,,,,,,,,,,,,,,,,,,,,,,,,,,,,,,,,,,,,,,,,,,,,,,,,,,,,,,b_9,001,2024-11-29_10h58.02.542,untitled,2024.1.5,None,2024-11-29 10h58.21.470720 +0530,
triangle.png,you,0,Z,,,,,,,,,20,3,83,3,,,,,,,,,318.1887789000757,,,,,,,,,,,,,,,,,,,,,,,,,,,,,,,,,,318.17276280000806,318.1887789000757,318.6723091000458,318.6723091000458,318.6723091000458,318.6723091000458,318.6889463000698,318.97232290008105,318.97232290008105,318.97232290008105,,319.07324400008656,m,319.07367559999693,319.08923590008635,320.08955520007294,320.0733896000311,0.38849279994610697,None,,,,,,,,,,,,,,,,,,,,,,,,,,,,,,,,,,,,,,,,,,,,,,,,,,,,,,,,,,,,,,,,,,,,,,,,,,,,,,,,,,,b_9,001,2024-11-29_10h58.02.542,untitled,2024.1.5,None,2024-11-29 10h58.21.470720 +0530,
triangle.png,stranger,1,M,,,,,,,,,21,0,84,1,,,,,,,,,320.08955520007294,,,,,,,,,,,,,,,,,,,,,,,,,,,,,,,,,,320.0737487000879,320.08955520007294,320.5735142000485,320.5735142000485,320.5735142000485,320.5735142000485,320.5898161000805,320.8732877000002,320.8732877000002,320.8732877000002,,320.9242007000139,z,320.9246382000856,320.9400919000618,321.94060590001754,321.92421950004064,0.34752529999241233,None,,,,,,,,,,,,,,,,,,,,,,,,,,,,,,,,,,,,,,,,,,,,,,,,,,,,,,,,,,,,,,,,,,,,,,,,,,,,,,,,,,,b_9,001,2024-11-29_10h58.02.542,untitled,2024.1.5,None,2024-11-29 10h58.21.470720 +0530,
square.png,you,1,M,,,,,,,,,21,1,85,0,,,,,,,,,321.94060590001754,,,,,,,,,,,,,,,,,,,,,,,,,,,,,,,,,,321.9245782000944,321.94060590001754,322.4242626000196,322.4242626000196,322.4242626000196,322.4242626000196,322.441159900045,322.72422610002104,322.72422610002104,322.72422610002104,,323.04189600003883,m,323.0423264000565,323.0578028000891,324.0584820000222,324.0421592000639,0.6130396000808105,None,,,,,,,,,,,,,,,,,,,,,,,,,,,,,,,,,,,,,,,,,,,,,,,,,,,,,,,,,,,,,,,,,,,,,,,,,,,,,,,,,,,b_9,001,2024-11-29_10h58.02.542,untitled,2024.1.5,None,2024-11-29 10h58.21.470720 +0530,
triangle.png,you,0,Z,,,,,,,,,21,2,86,3,,,,,,,,,324.0584820000222,,,,,,,,,,,,,,,,,,,,,,,,,,,,,,,,,,324.0425142000895,324.0584820000222,324.54228330007754,324.54228330007754,324.54228330007754,324.54228330007754,324.5586204000283,324.84224330005236,324.84224330005236,324.84224330005236,,325.29292440006975,z,325.2933502000524,325.3091083000181,326.3095192000037,326.29310270003043,0.734970899997279,None,,,,,,,,,,,,,,,,,,,,,,,,,,,,,,,,,,,,,,,,,,,,,,,,,,,,,,,,,,,,,,,,,,,,,,,,,,,,,,,,,,,b_9,001,2024-11-29_10h58.02.542,untitled,2024.1.5,None,2024-11-29 10h58.21.470720 +0530,
square.png,stranger,0,Z,,,,,,,,,21,3,87,2,,,,,,,,,326.3095192000037,,,,,,,,,,,,,,,,,,,,,,,,,,,,,,,,,,326.29346330009867,326.3095192000037,326.7931515000528,326.7931515000528,326.7931515000528,326.7931515000528,326.8097648000112,327.0931156000588,327.0931156000588,327.0931156000588,,327.3608197000576,m,327.3612560000038,327.37666690000333,328.3771058000857,328.361016400042,0.5524640999501571,None,,,,,,,,,,,,,,,,,,,,,,,,,,,,,,,,,,,,,,,,,,,,,,,,,,,,,,,,,,,,,,,,,,,,,,,,,,,,,,,,,,,b_9,001,2024-11-29_10h58.02.542,untitled,2024.1.5,None,2024-11-29 10h58.21.470720 +0530,
triangle.png,stranger,1,M,,,,,,,,,22,0,88,1,,,,,,,,,328.3771058000857,,,,,,,,,,,,,,,,,,,,,,,,,,,,,,,,,,328.361377100111,328.3771058000857,328.86100800009444,328.86100800009444,328.86100800009444,328.86100800009444,328.87770490010735,329.16104430006817,329.16104430006817,329.16104430006817,,329.2949892000761,z,329.29542340000626,329.3111854000017,,330.2955276001012,0.42434000002685934,None,,,,,,,,,,,,,,,,,,,,,,,,,,,,,,,,,,,,,,,,,,,,,,,,,,,,,,,,,,,,,,,,,,,,,,,,,,,,,,,,,,,b_9,001,2024-11-29_10h58.02.542,untitled,2024.1.5,None,2024-11-29 10h58.21.470720 +0530,
square.png,you,1,M,,,,,,,,,22,1,89,0,,,,,,,,,330.3117663000012,,,,,,,,,,,,,,,,,,,,,,,,,,,,,,,,,,330.2959503000602,330.3117663000012,330.7952114000218,330.7952114000218,330.7952114000218,330.7952114000218,330.81201059999876,331.0953919000458,331.0953919000458,331.0953919000458,,331.1292457000818,z,331.1297073001042,331.1453850000398,332.1460308000678,332.1297037000768,0.3292800000635907,None,,,,,,,,,,,,,,,,,,,,,,,,,,,,,,,,,,,,,,,,,,,,,,,,,,,,,,,,,,,,,,,,,,,,,,,,,,,,,,,,,,,b_9,001,2024-11-29_10h58.02.542,untitled,2024.1.5,None,2024-11-29 10h58.21.470720 +0530,
square.png,stranger,0,Z,,,,,,,,,22,2,90,2,,,,,,,,,332.1460308000678,,,,,,,,,,,,,,,,,,,,,,,,,,,,,,,,,,332.13006130000576,332.1460308000678,332.6298111000797,332.6298111000797,332.6298111000797,332.6298111000797,332.6462986000115,332.9295933000976,332.9295933000976,332.9295933000976,,333.24708330002613,z,333.2475201000925,333.26331140007824,334.263823700021,334.2473260000115,0.6036208999576047,None,,,,,,,,,,,,,,,,,,,,,,,,,,,,,,,,,,,,,,,,,,,,,,,,,,,,,,,,,,,,,,,,,,,,,,,,,,,,,,,,,,,b_9,001,2024-11-29_10h58.02.542,untitled,2024.1.5,None,2024-11-29 10h58.21.470720 +0530,
triangle.png,you,0,Z,,,,,,,,,22,3,91,3,,,,,,,,,334.263823700021,,,,,,,,,,,,,,,,,,,,,,,,,,,,,,,,,,334.24767420010176,334.263823700021,334.74726930004545,334.74726930004545,334.74726930004545,334.74726930004545,334.763990300009,335.04745160008315,335.04745160008315,335.04745160008315,,335.41506160004064,z,335.4154904000461,335.4309920000378,336.43133960000705,336.41496950003784,0.6613098999951035,None,,,,,,,,,,,,,,,,,,,,,,,,,,,,,,,,,,,,,,,,,,,,,,,,,,,,,,,,,,,,,,,,,,,,,,,,,,,,,,,,,,,b_9,001,2024-11-29_10h58.02.542,untitled,2024.1.5,None,2024-11-29 10h58.21.470720 +0530,
square.png,stranger,0,Z,,,,,,,,,23,0,92,2,,,,,,,,,336.43133960000705,,,,,,,,,,,,,,,,,,,,,,,,,,,,,,,,,,336.41533760004677,336.43133960000705,336.91522250010166,336.91522250010166,336.91522250010166,336.91522250010166,336.93155930005014,337.2151969000697,337.2151969000697,337.2151969000697,,337.5826176000992,z,337.58305360004306,337.59869210002944,338.5990560000064,338.58310540008824,0.6528627999359742,None,,,,,,,,,,,,,,,,,,,,,,,,,,,,,,,,,,,,,,,,,,,,,,,,,,,,,,,,,,,,,,,,,,,,,,,,,,,,,,,,,,,b_9,001,2024-11-29_10h58.02.542,untitled,2024.1.5,None,2024-11-29 10h58.21.470720 +0530,
triangle.png,you,0,Z,,,,,,,,,23,1,93,3,,,,,,,,,338.5990560000064,,,,,,,,,,,,,,,,,,,,,,,,,,,,,,,,,,338.58345730009023,338.5990560000064,339.08274680003524,339.08274680003524,339.08274680003524,339.08274680003524,339.0994009000715,339.38272570003755,339.38272570003755,339.38272570003755,,339.8505548000103,z,339.8509866000386,339.86641300003976,340.86693570006173,340.8507281000493,0.754685900057666,None,,,,,,,,,,,,,,,,,,,,,,,,,,,,,,,,,,,,,,,,,,,,,,,,,,,,,,,,,,,,,,,,,,,,,,,,,,,,,,,,,,,b_9,001,2024-11-29_10h58.02.542,untitled,2024.1.5,None,2024-11-29 10h58.21.470720 +0530,
triangle.png,stranger,1,M,,,,,,,,,23,2,94,1,,,,,,,,,340.86693570006173,,,,,,,,,,,,,,,,,,,,,,,,,,,,,,,,,,340.8510826000711,340.86693570006173,341.3508300000103,341.3508300000103,341.3508300000103,341.3508300000103,341.3674553000601,341.6507091000676,341.6507091000676,341.6507091000676,,342.05159740010276,m,342.05204209999647,342.06742170010693,343.0682266000658,343.05179040005896,0.6861467000562698,None,,,,,,,,,,,,,,,,,,,,,,,,,,,,,,,,,,,,,,,,,,,,,,,,,,,,,,,,,,,,,,,,,,,,,,,,,,,,,,,,,,,b_9,001,2024-11-29_10h58.02.542,untitled,2024.1.5,None,2024-11-29 10h58.21.470720 +0530,
square.png,you,1,M,,,,,,,,,23,3,95,0,,,,,,,,,343.0682266000658,,,,,,,,,,,,,,,,,,,,,,,,,,,,,,,,,,343.05213870003354,343.0682266000658,343.5517037000973,343.5517037000973,343.5517037000973,343.5517037000973,343.56854870007373,343.85176420002244,343.85176420002244,343.85176420002244,,343.8360713000875,m,343.83652390004136,343.85176420002244,344.8525219000876,344.8360493000364,0.28014289995189756,None,,,,,,,,,,,,,,,,,,,,,,,,,,,,,,,,,,,,,,,,,,,,,,,,,,,,,,,,,,,,,,,,,,,,,,,,,,,,,,,,,,,b_9,001,2024-11-29_10h58.02.542,untitled,2024.1.5,None,2024-11-29 10h58.21.470720 +0530,
square.png,you,1,M,,,,,,,,,24,0,96,0,,,,,,,,,344.8525219000876,,,,,,,,,,,,,,,,,,,,,,,,,,,,,,,,,,344.8364024000475,344.8525219000876,345.336004300043,345.336004300043,345.336004300043,345.336004300043,345.3527796000708,345.63602910004556,345.63602910004556,345.63602910004556,,345.8868805000093,m,345.8873146000551,345.9029300000984,346.9035215000622,346.887217600015,0.5368428999790922,None,,,,,,,,,,,,,,,,,,,,,,,,,,,,,,,,,,,,,,,,,,,,,,,,,,,,,,,,,,,,,,,,,,,,,,,,,,,,,,,,,,,b_9,001,2024-11-29_10h58.02.542,untitled,2024.1.5,None,2024-11-29 10h58.21.470720 +0530,
triangle.png,stranger,1,M,,,,,,,,,24,1,97,1,,,,,,,,,346.9035215000622,,,,,,,,,,,,,,,,,,,,,,,,,,,,,,,,,,346.88757530006114,346.9035215000622,347.3870259000687,347.3870259000687,347.3870259000687,347.3870259000687,347.4037122000009,347.6872335000662,347.6872335000662,347.6872335000662,,347.9381823000731,z,347.93862790009007,347.9539402000373,348.9544037000742,348.93811850005295,0.5449888999573886,None,,,,,,,,,,,,,,,,,,,,,,,,,,,,,,,,,,,,,,,,,,,,,,,,,,,,,,,,,,,,,,,,,,,,,,,,,,,,,,,,,,,b_9,001,2024-11-29_10h58.02.542,untitled,2024.1.5,None,2024-11-29 10h58.21.470720 +0530,
triangle.png,you,0,Z,,,,,,,,,24,2,98,3,,,,,,,,,348.9544037000742,,,,,,,,,,,,,,,,,,,,,,,,,,,,,,,,,,348.9384751000907,348.9544037000742,349.43833320005797,349.43833320005797,349.43833320005797,349.43833320005797,349.454935100046,349.7381346001057,349.7381346001057,349.7381346001057,,349.9388775000116,m,349.93931899999734,349.9550070000114,350.9556861000601,350.9393528000219,0.4902567999670282,None,,,,,,,,,,,,,,,,,,,,,,,,,,,,,,,,,,,,,,,,,,,,,,,,,,,,,,,,,,,,,,,,,,,,,,,,,,,,,,,,,,,b_9,001,2024-11-29_10h58.02.542,untitled,2024.1.5,None,2024-11-29 10h58.21.470720 +0530,
square.png,stranger,0,Z,,,,,,,,,24,3,99,2,,,,,,,,,350.9556861000601,,,,,,,,,,,,,,,,,,,,,,,,,,,,,,,,,,350.9397005001083,350.9556861000601,351.4393747000722,351.4393747000722,351.4393747000722,351.4393747000722,351.4558104000753,351.73938280006405,351.73938280006405,351.73938280006405,,351.8066039000405,z,351.8070432000095,351.8227474000305,352.8233580000233,352.806796100107,0.3619597000069916,None,,,,,,,,,,,,,,,,,,,,,,,,,,,,,,,,,,,,,,,,,,,,,,,,,,,,,,,,,,,,,,,,,,,,,,,,,,,,,,,,,,,b_9,001,2024-11-29_10h58.02.542,untitled,2024.1.5,None,2024-11-29 10h58.21.470720 +0530,
triangle.png,stranger,1,M,,,,,,,,,25,0,100,1,,,,,,,,,352.8233580000233,,,,,,,,,,,,,,,,,,,,,,,,,,,,,,,,,,352.8071532000322,352.8233580000233,353.3070202000672,353.3070202000672,353.3070202000672,353.3070202000672,353.323649100028,353.6066576000303,353.6066576000303,353.6066576000303,,353.9077046000166,z,353.90813130000606,353.9238545000553,354.9244046000531,354.9081785000162,0.5899449000135064,None,,,,,,,,,,,,,,,,,,,,,,,,,,,,,,,,,,,,,,,,,,,,,,,,,,,,,,,,,,,,,,,,,,,,,,,,,,,,,,,,,,,b_9,001,2024-11-29_10h58.02.542,untitled,2024.1.5,None,2024-11-29 10h58.21.470720 +0530,
triangle.png,you,0,Z,,,,,,,,,25,1,101,3,,,,,,,,,354.9244046000531,,,,,,,,,,,,,,,,,,,,,,,,,,,,,,,,,,354.9085315000266,354.9244046000531,355.4080098000122,355.4080098000122,355.4080098000122,355.4080098000122,355.42449140001554,355.7080463001039,355.7080463001039,355.7080463001039,,355.89238730003126,m,355.89281470002607,355.9081692000618,356.9085959000513,356.89255600003526,0.4757083000149578,None,,,,,,,,,,,,,,,,,,,,,,,,,,,,,,,,,,,,,,,,,,,,,,,,,,,,,,,,,,,,,,,,,,,,,,,,,,,,,,,,,,,b_9,001,2024-11-29_10h58.02.542,untitled,2024.1.5,None,2024-11-29 10h58.21.470720 +0530,
square.png,stranger,0,Z,,,,,,,,,25,2,102,2,,,,,,,,,356.9085959000513,,,,,,,,,,,,,,,,,,,,,,,,,,,,,,,,,,356.89291150006466,356.9085959000513,357.39229210000485,357.39229210000485,357.39229210000485,357.39229210000485,357.4087648000568,357.6923317000037,357.6923317000037,357.6923317000037,,358.24342950002756,z,358.24386140005663,358.2592138000764,359.25971890008077,359.2434917000355,0.843543800059706,None,,,,,,,,,,,,,,,,,,,,,,,,,,,,,,,,,,,,,,,,,,,,,,,,,,,,,,,,,,,,,,,,,,,,,,,,,,,,,,,,,,,b_9,001,2024-11-29_10h58.02.542,untitled,2024.1.5,None,2024-11-29 10h58.21.470720 +0530,
square.png,you,1,M,,,,,,,,,25,3,103,0,,,,,,,,,359.25971890008077,,,,,,,,,,,,,,,,,,,,,,,,,,,,,,,,,,359.2438428000314,359.25971890008077,359.7436542001087,359.7436542001087,359.7436542001087,359.7436542001087,359.76025740010664,360.04339060001075,360.04339060001075,360.04339060001075,,360.1944835000904,m,360.1949156000046,360.2102336001117,361.21074100001715,361.19449980009813,0.4417301999637857,None,,,,,,,,,,,,,,,,,,,,,,,,,,,,,,,,,,,,,,,,,,,,,,,,,,,,,,,,,,,,,,,,,,,,,,,,,,,,,,,,,,,b_9,001,2024-11-29_10h58.02.542,untitled,2024.1.5,None,2024-11-29 10h58.21.470720 +0530,
triangle.png,you,0,Z,,,,,,,,,26,0,104,3,,,,,,,,,361.21074100001715,,,,,,,,,,,,,,,,,,,,,,,,,,,,,,,,,,361.1948499000864,361.21074100001715,361.69464980007615,361.69464980007615,361.69464980007615,361.69464980007615,361.71107320010196,361.9943129000021,361.9943129000021,361.9943129000021,,362.19566660001874,z,362.1960933000082,362.21131820010487,363.21179740002844,363.1956952000037,0.4853885000338778,None,,,,,,,,,,,,,,,,,,,,,,,,,,,,,,,,,,,,,,,,,,,,,,,,,,,,,,,,,,,,,,,,,,,,,,,,,,,,,,,,,,,b_9,001,2024-11-29_10h58.02.542,untitled,2024.1.5,None,2024-11-29 10h58.21.470720 +0530,
square.png,stranger,0,Z,,,,,,,,,26,1,105,2,,,,,,,,,363.21179740002844,,,,,,,,,,,,,,,,,,,,,,,,,,,,,,,,,,363.1960514000384,363.21179740002844,363.69563600001857,363.69563600001857,363.69563600001857,363.69563600001857,363.71233140002005,363.9956265001092,363.9956265001092,363.9956265001092,364.79602340003476,364.77966390002985,None,364.77985490008723,364.79602340003476,365.7965392000042,365.7802961000707,,,,,,,,,,,,,,,,,,,,,,,,,,,,,,,,,,,,,,,,,,,,,,,,,,,,,,,,,,,,,,,,,,,,,,,,,,,,,,,,,,,,,b_9,001,2024-11-29_10h58.02.542,untitled,2024.1.5,None,2024-11-29 10h58.21.470720 +0530,
triangle.png,stranger,1,M,,,,,,,,,26,2,106,1,,,,,,,,,365.7965392000042,,,,,,,,,,,,,,,,,,,,,,,,,,,,,,,,,,365.7806598000461,365.7965392000042,366.29691550007556,366.29691550007556,366.29691550007556,366.29691550007556,366.29691550007556,366.59655840008054,366.59655840008054,366.59655840008054,,366.8311009000754,z,366.8315363000147,366.846970600076,367.84764940000605,367.83122930000536,0.5319996000034735,None,,,,,,,,,,,,,,,,,,,,,,,,,,,,,,,,,,,,,,,,,,,,,,,,,,,,,,,,,,,,,,,,,,,,,,,,,,,,,,,,,,,b_9,001,2024-11-29_10h58.02.542,untitled,2024.1.5,None,2024-11-29 10h58.21.470720 +0530,
square.png,you,1,M,,,,,,,,,26,3,107,0,,,,,,,,,367.84764940000605,,,,,,,,,,,,,,,,,,,,,,,,,,,,,,,,,,367.83157860010397,367.84764940000605,368.3315448000794,368.3315448000794,368.3315448000794,368.3315448000794,368.3477603000356,368.6311522000469,368.6311522000469,368.6311522000469,,368.6154561000876,m,368.6158985000802,368.6311522000469,369.6321439000312,369.61563420004677,0.2685590999899432,None,,,,,,,,,,,,,,,,,,,,,,,,,,,,,,,,,,,,,,,,,,,,,,,,,,,,,,,,,,,,,,,,,,,,,,,,,,,,,,,,,,,b_9,001,2024-11-29_10h58.02.542,untitled,2024.1.5,None,2024-11-29 10h58.21.470720 +0530,
square.png,you,1,M,,,,,,,,,27,0,108,0,,,,,,,,,369.6321439000312,,,,,,,,,,,,,,,,,,,,,,,,,,,,,,,,,,369.6159971000161,369.6321439000312,370.1156287000049,370.1156287000049,370.1156287000049,370.1156287000049,370.1322447001003,370.41538240003865,370.41538240003865,370.41538240003865,,370.5496750000166,m,370.5501104000723,370.5655090000946,371.56609210011084,371.54993300000206,0.42146350000984967,None,,,,,,,,,,,,,,,,,,,,,,,,,,,,,,,,,,,,,,,,,,,,,,,,,,,,,,,,,,,,,,,,,,,,,,,,,,,,,,,,,,,b_9,001,2024-11-29_10h58.02.542,untitled,2024.1.5,None,2024-11-29 10h58.21.470720 +0530,
triangle.png,stranger,1,M,,,,,,,,,27,1,109,1,,,,,,,,,371.56609210011084,,,,,,,,,,,,,,,,,,,,,,,,,,,,,,,,,,371.55028750002384,371.56609210011084,372.0496838000836,372.0496838000836,372.0496838000836,372.0496838000836,372.06624830001965,372.3497304000193,372.3497304000193,372.3497304000193,,372.6338622000767,m,372.63429770001676,372.6498830000637,373.65057550009806,373.63432960002683,0.5709603999275714,None,,,,,,,,,,,,,,,,,,,,,,,,,,,,,,,,,,,,,,,,,,,,,,,,,,,,,,,,,,,,,,,,,,,,,,,,,,,,,,,,,,,b_9,001,2024-11-29_10h58.02.542,untitled,2024.1.5,None,2024-11-29 10h58.21.470720 +0530,
triangle.png,you,0,Z,,,,,,,,,27,2,110,3,,,,,,,,,373.65057550009806,,,,,,,,,,,,,,,,,,,,,,,,,,,,,,,,,,373.6346885000821,373.65057550009806,374.13435050006956,374.13435050006956,374.13435050006956,374.13435050006956,374.15095870010555,374.43428960000165,374.43428960000165,374.43428960000165,,374.6016203000909,m,374.602102200035,374.61755070008803,375.61813479999546,375.6018037000904,0.45342389994766563,None,,,,,,,,,,,,,,,,,,,,,,,,,,,,,,,,,,,,,,,,,,,,,,,,,,,,,,,,,,,,,,,,,,,,,,,,,,,,,,,,,,,b_9,001,2024-11-29_10h58.02.542,untitled,2024.1.5,None,2024-11-29 10h58.21.470720 +0530,
square.png,stranger,0,Z,,,,,,,,,27,3,111,2,,,,,,,,,375.61813479999546,,,,,,,,,,,,,,,,,,,,,,,,,,,,,,,,,,375.60216650005896,375.61813479999546,376.1021296000108,376.1021296000108,376.1021296000108,376.1021296000108,376.1185076000402,376.4018030000152,376.4018030000152,376.4018030000152,,376.4362742000958,z,376.4367055000039,376.4519747000886,377.45248020009603,377.43609060009476,0.3216629000380635,None,,,,,,,,,,,,,,,,,,,,,,,,,,,,,,,,,,,,,,,,,,,,,,,,,,,,,,,,,,,,,,,,,,,,,,,,,,,,,,,,,,,b_9,001,2024-11-29_10h58.02.542,untitled,2024.1.5,None,2024-11-29 10h58.21.470720 +0530,
square.png,you,1,M,,,,,,,,,28,0,112,0,,,,,,,,,377.45248020009603,,,,,,,,,,,,,,,,,,,,,,,,,,,,,,,,,,377.43645210005343,377.45248020009603,377.9362423000857,377.9362423000857,377.9362423000857,377.9362423000857,377.9525843000738,378.23623020004015,378.23623020004015,378.23623020004015,,378.32030310004484,z,378.32073440006934,378.33613350009546,379.33678030001465,379.3203508000588,0.37294339993968606,None,,,,,,,,,,,,,,,,,,,,,,,,,,,,,,,,,,,,,,,,,,,,,,,,,,,,,,,,,,,,,,,,,,,,,,,,,,,,,,,,,,,b_9,001,2024-11-29_10h58.02.542,untitled,2024.1.5,None,2024-11-29 10h58.21.470720 +0530,
triangle.png,stranger,1,M,,,,,,,,,28,1,113,1,,,,,,,,,379.33678030001465,,,,,,,,,,,,,,,,,,,,,,,,,,,,,,,,,,379.32071130000986,379.33678030001465,379.82043810002506,379.82043810002506,379.82043810002506,379.82043810002506,379.8373057000572,380.12062709999736,380.12062709999736,380.12062709999736,,380.4380426000571,z,380.4384770001052,380.45396160008386,381.45468060008716,381.4383223000914,0.6126762999920174,None,,,,,,,,,,,,,,,,,,,,,,,,,,,,,,,,,,,,,,,,,,,,,,,,,,,,,,,,,,,,,,,,,,,,,,,,,,,,,,,,,,,b_9,001,2024-11-29_10h58.02.542,untitled,2024.1.5,None,2024-11-29 10h58.21.470720 +0530,
square.png,stranger,0,Z,,,,,,,,,28,2,114,2,,,,,,,,,381.45468060008716,,,,,,,,,,,,,,,,,,,,,,,,,,,,,,,,,,381.43867090006825,381.45468060008716,381.9384066000348,381.9384066000348,381.9384066000348,381.9384066000348,381.95474610000383,382.2382318000309,382.2382318000309,382.2382318000309,,382.5726434000535,z,382.57306880003307,382.58861930004787,383.5890189000638,383.57279200002085,0.6295894000213593,None,,,,,,,,,,,,,,,,,,,,,,,,,,,,,,,,,,,,,,,,,,,,,,,,,,,,,,,,,,,,,,,,,,,,,,,,,,,,,,,,,,,b_9,001,2024-11-29_10h58.02.542,untitled,2024.1.5,None,2024-11-29 10h58.21.470720 +0530,
triangle.png,you,0,Z,,,,,,,,,28,3,115,3,,,,,,,,,383.5890189000638,,,,,,,,,,,,,,,,,,,,,,,,,,,,,,,,,,383.5731442000251,383.5890189000638,384.07297229999676,384.07297229999676,384.07297229999676,384.07297229999676,384.089214000036,384.3726037000306,384.3726037000306,384.3726037000306,,384.69045760005247,z,384.6908836000366,384.7063791000983,385.7066257999977,385.6905267999973,0.6118537998991087,None,,,,,,,,,,,,,,,,,,,,,,,,,,,,,,,,,,,,,,,,,,,,,,,,,,,,,,,,,,,,,,,,,,,,,,,,,,,,,,,,,,,b_9,001,2024-11-29_10h58.02.542,untitled,2024.1.5,None,2024-11-29 10h58.21.470720 +0530,
square.png,stranger,0,Z,,,,,,,,,29,0,116,2,,,,,,,,,385.7066257999977,,,,,,,,,,,,,,,,,,,,,,,,,,,,,,,,,,385.6908798000077,385.7066257999977,386.19053550006356,386.19053550006356,386.19053550006356,386.19053550006356,386.207122300053,386.4904189000372,386.4904189000372,386.4904189000372,,386.8912648000987,z,386.8917000000365,386.90734120004345,387.90774870000314,387.89182850008365,0.698616600013338,None,,,,,,,,,,,,,,,,,,,,,,,,,,,,,,,,,,,,,,,,,,,,,,,,,,,,,,,,,,,,,,,,,,,,,,,,,,,,,,,,,,,b_9,001,2024-11-29_10h58.02.542,untitled,2024.1.5,None,2024-11-29 10h58.21.470720 +0530,
triangle.png,stranger,1,M,,,,,,,,,29,1,117,1,,,,,,,,,387.90774870000314,,,,,,,,,,,,,,,,,,,,,,,,,,,,,,,,,,387.89218010008335,387.90774870000314,388.39150150003843,388.39150150003843,388.39150150003843,388.39150150003843,388.4082785000792,388.69155980006326,388.69155980006326,388.69155980006326,,388.79241520003416,m,388.792851800099,388.80816410004627,389.8089591000462,389.7927003001096,0.3852514000609517,None,,,,,,,,,,,,,,,,,,,,,,,,,,,,,,,,,,,,,,,,,,,,,,,,,,,,,,,,,,,,,,,,,,,,,,,,,,,,,,,,,,,b_9,001,2024-11-29_10h58.02.542,untitled,2024.1.5,None,2024-11-29 10h58.21.470720 +0530,
triangle.png,you,0,Z,,,,,,,,,29,2,118,3,,,,,,,,,389.8089591000462,,,,,,,,,,,,,,,,,,,,,,,,,,,,,,,,,,389.7930555000203,389.8089591000462,390.29252780007664,390.29252780007664,390.29252780007664,390.29252780007664,390.3091376000084,390.5925689000869,390.5925689000869,390.5925689000869,,390.5933203001041,m,390.5937638001051,390.60916120000184,391.6099409000017,391.59358120011166,0.2843968999804929,None,,,,,,,,,,,,,,,,,,,,,,,,,,,,,,,,,,,,,,,,,,,,,,,,,,,,,,,,,,,,,,,,,,,,,,,,,,,,,,,,,,,b_9,001,2024-11-29_10h58.02.542,untitled,2024.1.5,None,2024-11-29 10h58.21.470720 +0530,
square.png,you,1,M,,,,,,,,,29,3,119,0,,,,,,,,,391.6099409000017,,,,,,,,,,,,,,,,,,,,,,,,,,,,,,,,,,391.59394080005586,391.6099409000017,392.09336260007694,392.09336260007694,392.09336260007694,392.09336260007694,392.11006440001074,392.3937116001034,392.3937116001034,392.3937116001034,,392.37777710007504,z,392.3782098001102,392.3937116001034,393.3939142000163,393.37775380001403,0.2800813999492675,None,,,,,,,,,,,,,,,,,,,,,,,,,,,,,,,,,,,,,,,,,,,,,,,,,,,,,,,,,,,,,,,,,,,,,,,,,,,,,,,,,,,b_9,001,2024-11-29_10h58.02.542,untitled,2024.1.5,None,2024-11-29 10h58.21.470720 +0530,
square.png,stranger,0,Z,,,,,,,,,30,0,120,2,,,,,,,,,393.3939142000163,,,,,,,,,,,,,,,,,,,,,,,,,,,,,,,,,,393.3781125000678,393.3939142000163,393.87782980001066,393.87782980001066,393.87782980001066,393.87782980001066,393.8945228001103,394.17784340004437,394.17784340004437,394.17784340004437,,394.628651700099,z,394.62908880005125,394.64442090003286,395.64501860004384,395.628895400092,0.7392408000305295,None,,,,,,,,,,,,,,,,,,,,,,,,,,,,,,,,,,,,,,,,,,,,,,,,,,,,,,,,,,,,,,,,,,,,,,,,,,,,,,,,,,,b_9,001,2024-11-29_10h58.02.542,untitled,2024.1.5,None,2024-11-29 10h58.21.470720 +0530,
triangle.png,stranger,1,M,,,,,,,,,30,1,121,1,,,,,,,,,395.64501860004384,,,,,,,,,,,,,,,,,,,,,,,,,,,,,,,,,,395.6292481001001,395.64501860004384,396.1290418000426,396.1290418000426,396.1290418000426,396.1290418000426,396.14540850010235,396.42889590002596,396.42889590002596,396.42889590002596,,396.6798317000503,z,396.68027890007943,396.6956546000438,397.6963192000985,397.6798622000497,0.5402271000202745,None,,,,,,,,,,,,,,,,,,,,,,,,,,,,,,,,,,,,,,,,,,,,,,,,,,,,,,,,,,,,,,,,,,,,,,,,,,,,,,,,,,,b_9,001,2024-11-29_10h58.02.542,untitled,2024.1.5,None,2024-11-29 10h58.21.470720 +0530,
triangle.png,you,0,Z,,,,,,,,,30,2,122,3,,,,,,,,,397.6963192000985,,,,,,,,,,,,,,,,,,,,,,,,,,,,,,,,,,397.68021620006766,397.6963192000985,398.1800034000771,398.1800034000771,398.1800034000771,398.1800034000771,398.19672140001785,398.4800608000951,398.4800608000951,398.4800608000951,,398.84762920008507,z,398.84806850005407,398.8635133000789,399.8640379999997,399.847684700042,0.6571124999318272,None,,,,,,,,,,,,,,,,,,,,,,,,,,,,,,,,,,,,,,,,,,,,,,,,,,,,,,,,,,,,,,,,,,,,,,,,,,,,,,,,,,,b_9,001,2024-11-29_10h58.02.542,untitled,2024.1.5,None,2024-11-29 10h58.21.470720 +0530,
square.png,you,1,M,,,,,,,,,30,3,123,0,,,,,,,,,399.8640379999997,,,,,,,,,,,,,,,,,,,,,,,,,,,,,,,,,,399.84803870006,399.8640379999997,400.3477947000647,400.3477947000647,400.3477947000647,400.3477947000647,400.3642039000988,400.64764280000236,400.64764280000236,400.64764280000236,,400.8489017999964,m,400.8493538000621,400.8646693000337,401.864911200013,401.8488099001115,0.4974388999398798,None,,,,,,,,,,,,,,,,,,,,,,,,,,,,,,,,,,,,,,,,,,,,,,,,,,,,,,,,,,,,,,,,,,,,,,,,,,,,,,,,,,,b_9,001,2024-11-29_10h58.02.542,untitled,2024.1.5,None,2024-11-29 10h58.21.470720 +0530,
square.png,you,1,M,,,,,,,,,31,0,124,0,,,,,,,,,401.864911200013,,,,,,,,,,,,,,,,,,,,,,,,,,,,,,,,,,401.8491613001097,401.864911200013,402.3486827000743,402.3486827000743,402.3486827000743,402.3486827000743,402.3653223000001,402.6488351000007,402.6488351000007,402.6488351000007,,402.73277280002367,m,402.7332082000794,402.7486450000433,403.74938780011144,403.733231500024,0.3726738999830559,None,,,,,,,,,,,,,,,,,,,,,,,,,,,,,,,,,,,,,,,,,,,,,,,,,,,,,,,,,,,,,,,,,,,,,,,,,,,,,,,,,,,b_9,001,2024-11-29_10h58.02.542,untitled,2024.1.5,None,2024-11-29 10h58.21.470720 +0530,
triangle.png,you,0,Z,,,,,,,,,31,1,125,3,,,,,,,,,403.74938780011144,,,,,,,,,,,,,,,,,,,,,,,,,,,,,,,,,,403.7335955000017,403.74938780011144,404.233117600088,404.233117600088,404.233117600088,404.233117600088,404.2497058000881,404.5329131000908,404.5329131000908,404.5329131000908,,404.61711860005744,z,404.61754470004234,404.633040200104,405.6335281000938,405.6175771000562,0.3718228000216186,None,,,,,,,,,,,,,,,,,,,,,,,,,,,,,,,,,,,,,,,,,,,,,,,,,,,,,,,,,,,,,,,,,,,,,,,,,,,,,,,,,,,b_9,001,2024-11-29_10h58.02.542,untitled,2024.1.5,None,2024-11-29 10h58.21.470720 +0530,
square.png,stranger,0,Z,,,,,,,,,31,2,126,2,,,,,,,,,405.6335281000938,,,,,,,,,,,,,,,,,,,,,,,,,,,,,,,,,,405.6179288000567,405.6335281000938,406.1174509000266,406.1174509000266,406.1174509000266,406.1174509000266,406.13382820005063,406.4172490000492,406.4172490000492,406.4172490000492,,406.8184626000002,z,406.81890650000423,406.8343207000289,407.8347067000577,407.81859340006486,0.6991496999980882,None,,,,,,,,,,,,,,,,,,,,,,,,,,,,,,,,,,,,,,,,,,,,,,,,,,,,,,,,,,,,,,,,,,,,,,,,,,,,,,,,,,,b_9,001,2024-11-29_10h58.02.542,untitled,2024.1.5,None,2024-11-29 10h58.21.470720 +0530,
triangle.png,stranger,1,M,,,,,,,,,31,3,127,1,,,,,,,,,407.8347067000577,,,,,,,,,,,,,,,,,,,,,,,,,,,,,,,,,,407.8189482000889,407.8347067000577,408.31856680009514,408.31856680009514,408.31856680009514,408.31856680009514,408.3349742999999,408.61833379999734,408.61833379999734,408.61833379999734,,408.80245529999956,m,408.8028969001025,408.81849740003236,409.8193130000727,409.8028430000413,0.47461559996008873,None,,,,,,,,,,,,,,,,,,,,,,,,,,,,,,,,,,,,,,,,,,,,,,,,,,,,,,,,,,,,,,,,,,,,,,,,,,,,,,,,,,,b_9,001,2024-11-29_10h58.02.542,untitled,2024.1.5,None,2024-11-29 10h58.21.470720 +0530,
square.png,stranger,0,Z,,,,,,,,,32,0,128,2,,,,,,,,,409.8193130000727,,,,,,,,,,,,,,,,,,,,,,,,,,,,,,,,,,409.803194600041,409.8193130000727,410.3029517000541,410.3029517000541,410.3029517000541,410.3029517000541,410.3194800000638,410.6025066000875,410.6025066000875,410.6025066000875,,410.7701318000909,m,410.7705727000721,410.7861664000666,411.78687589999754,411.7703974000178,0.4626181999919936,None,,,,,,,,,,,,,,,,,,,,,,,,,,,,,,,,,,,,,,,,,,,,,,,,,,,,,,,,,,,,,,,,,,,,,,,,,,,,,,,,,,,b_9,001,2024-11-29_10h58.02.542,untitled,2024.1.5,None,2024-11-29 10h58.21.470720 +0530,
triangle.png,you,0,Z,,,,,,,,,32,1,129,3,,,,,,,,,411.78687589999754,,,,,,,,,,,,,,,,,,,,,,,,,,,,,,,,,,411.77075670007616,411.78687589999754,412.2702994000865,412.2702994000865,412.2702994000865,412.2702994000865,412.2871756000677,,,,,412.52127310005017,z,412.52170510008,412.53729790006764,413.53762230009306,413.5214968000073,0.2431687000207603,None,,,,,,,,,,,,,,,,,,,,,,,,,,,,,,,,,,,,,,,,,,,,,,,,,,,,,,,,,,,,,,,,,,,,,,,,,,,,,,,,,,,b_9,001,2024-11-29_10h58.02.542,untitled,2024.1.5,None,2024-11-29 10h58.21.470720 +0530,
triangle.png,stranger,1,M,,,,,,,,,32,2,130,1,,,,,,,,,413.53762230009306,,,,,,,,,,,,,,,,,,,,,,,,,,,,,,,,,,413.5218510000268,413.53762230009306,414.0214609000832,414.0214609000832,414.0214609000832,414.0214609000832,414.03796280000824,414.32129890006036,414.32129890006036,414.32129890006036,,414.5054925000295,z,414.5059370000381,414.5215814000694,415.5221997000044,415.5058265000116,0.4717239999445155,None,,,,,,,,,,,,,,,,,,,,,,,,,,,,,,,,,,,,,,,,,,,,,,,,,,,,,,,,,,,,,,,,,,,,,,,,,,,,,,,,,,,b_9,001,2024-11-29_10h58.02.542,untitled,2024.1.5,None,2024-11-29 10h58.21.470720 +0530,
square.png,you,1,M,,,,,,,,,32,3,131,0,,,,,,,,,415.5221997000044,,,,,,,,,,,,,,,,,,,,,,,,,,,,,,,,,,415.50618060003035,415.5221997000044,416.00564090011176,416.00564090011176,416.00564090011176,416.00564090011176,416.02217450004537,416.30586050008424,416.30586050008424,416.30586050008424,,416.38989990006667,m,416.3903324001003,416.40591230010614,417.40628690004814,417.3901388000231,0.37078909995034337,None,,,,,,,,,,,,,,,,,,,,,,,,,,,,,,,,,,,,,,,,,,,,,,,,,,,,,,,,,,,,,,,,,,,,,,,,,,,,,,,,,,,b_9,001,2024-11-29_10h58.02.542,untitled,2024.1.5,None,2024-11-29 10h58.21.470720 +0530,
square.png,you,1,M,,,,,,,,,33,0,132,0,,,,,,,,,417.40628690004814,,,,,,,,,,,,,,,,,,,,,,,,,,,,,,,,,,417.3904943000525,417.40628690004814,417.89017580007203,417.89017580007203,417.89017580007203,417.89017580007203,417.9067665000912,418.19023130007554,418.19023130007554,418.19023130007554,,418.29070120002143,z,418.2911339000566,418.3068889999995,419.30746140005067,419.2910547000356,0.3898519999347627,None,,,,,,,,,,,,,,,,,,,,,,,,,,,,,,,,,,,,,,,,,,,,,,,,,,,,,,,,,,,,,,,,,,,,,,,,,,,,,,,,,,,b_9,001,2024-11-29_10h58.02.542,untitled,2024.1.5,None,2024-11-29 10h58.21.470720 +0530,
square.png,stranger,0,Z,,,,,,,,,33,1,133,2,,,,,,,,,419.30746140005067,,,,,,,,,,,,,,,,,,,,,,,,,,,,,,,,,,419.2914076000452,419.30746140005067,419.7911554001039,419.7911554001039,419.7911554001039,419.7911554001039,419.80772490007803,420.0909907000605,420.0909907000605,420.0909907000605,,420.5085853000637,z,420.50901960011106,420.5245984001085,421.5252964000683,421.509104100056,0.7048269999213517,None,,,,,,,,,,,,,,,,,,,,,,,,,,,,,,,,,,,,,,,,,,,,,,,,,,,,,,,,,,,,,,,,,,,,,,,,,,,,,,,,,,,b_9,001,2024-11-29_10h58.02.542,untitled,2024.1.5,None,2024-11-29 10h58.21.470720 +0530,
triangle.png,stranger,1,M,,,,,,,,,33,2,134,1,,,,,,,,,421.5252964000683,,,,,,,,,,,,,,,,,,,,,,,,,,,,,,,,,,421.50945580005646,421.5252964000683,422.0088446000591,422.0088446000591,422.0088446000591,422.0088446000591,422.0254608000396,422.3089392000111,422.3089392000111,422.3089392000111,,422.40996130008716,m,422.4103922001086,422.4257505000569,423.42628250003327,423.40989820007235,0.39989590004552156,None,,,,,,,,,,,,,,,,,,,,,,,,,,,,,,,,,,,,,,,,,,,,,,,,,,,,,,,,,,,,,,,,,,,,,,,,,,,,,,,,,,,b_9,001,2024-11-29_10h58.02.542,untitled,2024.1.5,None,2024-11-29 10h58.21.470720 +0530,
triangle.png,you,0,Z,,,,,,,,,33,3,135,3,,,,,,,,,423.42628250003327,,,,,,,,,,,,,,,,,,,,,,,,,,,,,,,,,,423.4102502000751,423.42628250003327,423.9100448000245,423.9100448000245,423.9100448000245,423.9100448000245,423.92634330003057,424.2098679000046,424.2098679000046,424.2098679000046,,424.27727120008785,m,424.27770450001117,424.29320900002494,425.2937033000635,425.2775164000923,0.35463180008810014,None,,,,,,,,,,,,,,,,,,,,,,,,,,,,,,,,,,,,,,,,,,,,,,,,,,,,,,,,,,,,,,,,,,,,,,,,,,,,,,,,,,,b_9,001,2024-11-29_10h58.02.542,untitled,2024.1.5,None,2024-11-29 10h58.21.470720 +0530,
triangle.png,stranger,1,M,,,,,,,,,34,0,136,1,,,,,,,,,425.2937033000635,,,,,,,,,,,,,,,,,,,,,,,,,,,,,,,,,,425.27787350001745,425.2937033000635,425.7775459000841,425.7775459000841,425.7775459000841,425.7775459000841,425.7942551000742,426.0774797000922,426.0774797000922,426.0774797000922,,426.67863130010664,m,426.67906100000255,426.6946181000676,427.6948924000608,427.67874280002434,0.8991492999484763,None,,,,,,,,,,,,,,,,,,,,,,,,,,,,,,,,,,,,,,,,,,,,,,,,,,,,,,,,,,,,,,,,,,,,,,,,,,,,,,,,,,,b_9,001,2024-11-29_10h58.02.542,untitled,2024.1.5,None,2024-11-29 10h58.21.470720 +0530,
square.png,stranger,0,Z,,,,,,,,,34,1,137,2,,,,,,,,,427.6948924000608,,,,,,,,,,,,,,,,,,,,,,,,,,,,,,,,,,427.67909670004155,427.6948924000608,428.1786078000441,428.1786078000441,428.1786078000441,428.1786078000441,428.195156800095,428.4788127000211,428.4788127000211,428.4788127000211,,428.8962890000548,m,428.8967266000109,428.9120970000513,429.9126747000264,429.89643590000924,0.7066034000599757,None,,,,,,,,,,,,,,,,,,,,,,,,,,,,,,,,,,,,,,,,,,,,,,,,,,,,,,,,,,,,,,,,,,,,,,,,,,,,,,,,,,,b_9,001,2024-11-29_10h58.02.542,untitled,2024.1.5,None,2024-11-29 10h58.21.470720 +0530,
triangle.png,you,0,Z,,,,,,,,,34,2,138,3,,,,,,,,,429.9126747000264,,,,,,,,,,,,,,,,,,,,,,,,,,,,,,,,,,429.89678670000285,429.9126747000264,430.39638670010027,430.39638670010027,430.39638670010027,430.39638670010027,430.4131991000613,430.69651700009126,430.69651700009126,430.69651700009126,,430.7975942000048,m,430.79802390001714,430.8133385000983,431.81392910005525,431.79746920010075,0.4000891000032425,None,,,,,,,,,,,,,,,,,,,,,,,,,,,,,,,,,,,,,,,,,,,,,,,,,,,,,,,,,,,,,,,,,,,,,,,,,,,,,,,,,,,b_9,001,2024-11-29_10h58.02.542,untitled,2024.1.5,None,2024-11-29 10h58.21.470720 +0530,
square.png,you,1,M,,,,,,,,,34,3,139,0,,,,,,,,,431.81392910005525,,,,,,,,,,,,,,,,,,,,,,,,,,,,,,,,,,431.797821000102,431.81392910005525,432.297522900044,432.297522900044,432.297522900044,432.297522900044,432.31408360006753,432.59742510004435,432.59742510004435,432.59742510004435,,432.8149404000724,m,432.81536660005804,432.83092380000744,433.8313881000504,433.81522740004584,0.5159283999819309,None,,,,,,,,,,,,,,,,,,,,,,,,,,,,,,,,,,,,,,,,,,,,,,,,,,,,,,,,,,,,,,,,,,,,,,,,,,,,,,,,,,,b_9,001,2024-11-29_10h58.02.542,untitled,2024.1.5,None,2024-11-29 10h58.21.470720 +0530,
square.png,stranger,0,Z,,,,,,,,,35,0,140,2,,,,,,,,,433.8313881000504,,,,,,,,,,,,,,,,,,,,,,,,,,,,,,,,,,433.8155827000737,433.8313881000504,434.31534720002674,434.31534720002674,434.31534720002674,434.31534720002674,434.3316528000869,434.6150628000032,434.6150628000032,434.6150628000032,,434.9159465000266,z,434.9163841000991,434.9320566999959,435.932745099999,435.91634620004334,0.590091900085099,None,,,,,,,,,,,,,,,,,,,,,,,,,,,,,,,,,,,,,,,,,,,,,,,,,,,,,,,,,,,,,,,,,,,,,,,,,,,,,,,,,,,b_9,001,2024-11-29_10h58.02.542,untitled,2024.1.5,None,2024-11-29 10h58.21.470720 +0530,
triangle.png,you,0,Z,,,,,,,,,35,1,141,3,,,,,,,,,435.932745099999,,,,,,,,,,,,,,,,,,,,,,,,,,,,,,,,,,435.91675550001673,435.932745099999,436.41620360000525,436.41620360000525,436.41620360000525,436.41620360000525,436.4331213000696,436.71642420010176,436.71642420010176,436.71642420010176,,437.05048830003943,z,437.0509252001066,437.0664821000537,438.06687780003995,438.0507292000111,0.6248107000719756,None,,,,,,,,,,,,,,,,,,,,,,,,,,,,,,,,,,,,,,,,,,,,,,,,,,,,,,,,,,,,,,,,,,,,,,,,,,,,,,,,,,,b_9,001,2024-11-29_10h58.02.542,untitled,2024.1.5,None,2024-11-29 10h58.21.470720 +0530,
triangle.png,stranger,1,M,,,,,,,,,35,2,142,1,,,,,,,,,438.06687780003995,,,,,,,,,,,,,,,,,,,,,,,,,,,,,,,,,,438.0510876000626,438.06687780003995,438.55055970000103,438.55055970000103,438.55055970000103,438.55055970000103,438.5671851000516,438.8507023000857,438.8507023000857,438.8507023000857,,439.38493160007056,m,439.38537740008906,439.40115480008535,440.40157520002685,440.3853987000184,0.8188332000281662,None,,,,,,,,,,,,,,,,,,,,,,,,,,,,,,,,,,,,,,,,,,,,,,,,,,,,,,,,,,,,,,,,,,,,,,,,,,,,,,,,,,,b_9,001,2024-11-29_10h58.02.542,untitled,2024.1.5,None,2024-11-29 10h58.21.470720 +0530,
square.png,you,1,M,,,,,,,,,35,3,143,0,,,,,,,,,440.40157520002685,,,,,,,,,,,,,,,,,,,,,,,,,,,,,,,,,,440.38574739999603,440.40157520002685,440.88523850007914,440.88523850007914,440.88523850007914,440.88523850007914,440.901634800015,441.1851472000126,441.1851472000126,441.1851472000126,,441.33581350010354,z,441.3362513000611,441.3519445999991,442.3525891000172,442.3363724000519,0.44389310001861304,None,,,,,,,,,,,,,,,,,,,,,,,,,,,,,,,,,,,,,,,,,,,,,,,,,,,,,,,,,,,,,,,,,,,,,,,,,,,,,,,,,,,b_9,001,2024-11-29_10h58.02.542,untitled,2024.1.5,None,2024-11-29 10h58.21.470720 +0530,
triangle.png,you,0,Z,,,,,,,,,36,0,144,3,,,,,,,,,442.3525891000172,,,,,,,,,,,,,,,,,,,,,,,,,,,,,,,,,,442.3367240000516,442.3525891000172,442.8364452000242,442.8364452000242,442.8364452000242,442.8364452000242,442.85302280006,443.1361630000174,443.1361630000174,443.1361630000174,,443.30374380003195,z,443.3042296000058,443.3194794000592,444.3201030000346,444.3039623000659,0.4651504000648856,None,,,,,,,,,,,,,,,,,,,,,,,,,,,,,,,,,,,,,,,,,,,,,,,,,,,,,,,,,,,,,,,,,,,,,,,,,,,,,,,,,,,b_9,001,2024-11-29_10h58.02.542,untitled,2024.1.5,None,2024-11-29 10h58.21.470720 +0530,
